onset	duration	run_type	trial_type	trial_index	cue	stimulusintensity	rating_value	rating_glmslabel	rating_value_fillna	rating_glmslabel_fillna	rating_mouseonset	rating_mousedur	stim_file_TODO	pain_onset_ttl1	pain_onset_ttl2	pain_onset_ttl3	pain_onset_ttl4	pain_stimulus_delivery_success	cognitive_correct_response	cognitive_participant_response	cognitive_response_accuracy
4.99	0.99	cognitive	cue	1	high_cue	n/a	n/a	n/a	n/a	n/a	n/a	n/a	task-social/cue/runtype-cognitive/sch/h025.png	n/a	n/a	n/a	n/a	n/a	n/a	n/a	n/a
7.21	n/a	cognitive	expectrating	1	high_cue	n/a	n/a	n/a	50.22	Strong	0.72	2.58	task-social/cue/runtype-cognitive/sch/h025.png	n/a	n/a	n/a	n/a	n/a	n/a	n/a	n/a
19.19	5.0	cognitive	stimulus	1	high_cue	low_stim	n/a	n/a	n/a	n/a	n/a	n/a	task-social/stim/runtype-cognitive/44_50_R.jpg	n/a	n/a	n/a	n/a	n/a	diff	same	False
27.4	n/a	cognitive	outcomerating	1	high_cue	low_stim	n/a	n/a	44.35	Strong	0.72	2.58	task-social/outcomerating/task-cognitive_scale.png	n/a	n/a	n/a	n/a	n/a	n/a	n/a	n/a
39.6	0.98	cognitive	cue	2	high_cue	n/a	n/a	n/a	n/a	n/a	n/a	n/a	task-social/cue/runtype-cognitive/sch/h006.png	n/a	n/a	n/a	n/a	n/a	n/a	n/a	n/a
42.8	n/a	cognitive	expectrating	2	high_cue	n/a	n/a	n/a	55.41	Strong	1.0	2.25	task-social/cue/runtype-cognitive/sch/h006.png	n/a	n/a	n/a	n/a	n/a	n/a	n/a	n/a
50.49	5.0	cognitive	stimulus	2	high_cue	low_stim	n/a	n/a	n/a	n/a	n/a	n/a	task-social/stim/runtype-cognitive/9_50_R.jpg	n/a	n/a	n/a	n/a	n/a	diff	diff	True
61.79	n/a	cognitive	outcomerating	2	high_cue	low_stim	n/a	n/a	27.8	Moderate	1.0	2.25	task-social/outcomerating/task-cognitive_scale.png	n/a	n/a	n/a	n/a	n/a	n/a	n/a	n/a
72.5	0.98	cognitive	cue	3	high_cue	n/a	n/a	n/a	n/a	n/a	n/a	n/a	task-social/cue/runtype-cognitive/sch/h035.png	n/a	n/a	n/a	n/a	n/a	n/a	n/a	n/a
74.5	n/a	cognitive	expectrating	3	high_cue	n/a	n/a	n/a	42.72	Strong	1.03	2.27	task-social/cue/runtype-cognitive/sch/h035.png	n/a	n/a	n/a	n/a	n/a	n/a	n/a	n/a
82.2	5.0	cognitive	stimulus	3	high_cue	med_stim	n/a	n/a	n/a	n/a	n/a	n/a	task-social/stim/runtype-cognitive/24_100.jpg	n/a	n/a	n/a	n/a	n/a	same	same	True
93.11	n/a	cognitive	outcomerating	3	high_cue	med_stim	n/a	n/a	44.83	Strong	1.03	2.27	task-social/outcomerating/task-cognitive_scale.png	n/a	n/a	n/a	n/a	n/a	n/a	n/a	n/a
105.29	0.99	cognitive	cue	4	low_cue	n/a	n/a	n/a	n/a	n/a	n/a	n/a	task-social/cue/runtype-cognitive/scl/l018.png	n/a	n/a	n/a	n/a	n/a	n/a	n/a	n/a
107.29	n/a	cognitive	expectrating	4	low_cue	n/a	n/a	n/a	40.28	Strong	0.85	3.93	task-social/cue/runtype-cognitive/scl/l018.png	n/a	n/a	n/a	n/a	n/a	n/a	n/a	n/a
115.0	5.0	cognitive	stimulus	4	low_cue	med_stim	n/a	n/a	n/a	n/a	n/a	n/a	task-social/stim/runtype-cognitive/48_100_R.jpg	n/a	n/a	n/a	n/a	n/a	diff	same	False
123.2	n/a	cognitive	outcomerating	4	low_cue	med_stim	n/a	n/a	37.51	Strong	0.85	3.93	task-social/outcomerating/task-cognitive_scale.png	n/a	n/a	n/a	n/a	n/a	n/a	n/a	n/a
129.4	0.98	cognitive	cue	5	high_cue	n/a	n/a	n/a	n/a	n/a	n/a	n/a	task-social/cue/runtype-cognitive/sch/h013.png	n/a	n/a	n/a	n/a	n/a	n/a	n/a	n/a
133.3	n/a	cognitive	expectrating	5	high_cue	n/a	n/a	n/a	54.84	Strong	1.25	2.73	task-social/cue/runtype-cognitive/sch/h013.png	n/a	n/a	n/a	n/a	n/a	n/a	n/a	n/a
150.89	5.0	cognitive	stimulus	5	high_cue	high_stim	n/a	n/a	n/a	n/a	n/a	n/a	task-social/stim/runtype-cognitive/48_150.jpg	n/a	n/a	n/a	n/a	n/a	same	n/a	False
163.1	n/a	cognitive	outcomerating	5	high_cue	high_stim	n/a	n/a	44.51	Strong	1.25	2.73	task-social/outcomerating/task-cognitive_scale.png	n/a	n/a	n/a	n/a	n/a	n/a	n/a	n/a
167.9	0.98	cognitive	cue	6	low_cue	n/a	n/a	n/a	n/a	n/a	n/a	n/a	task-social/cue/runtype-cognitive/scl/l056.png	n/a	n/a	n/a	n/a	n/a	n/a	n/a	n/a
171.1	n/a	cognitive	expectrating	6	low_cue	n/a	n/a	n/a	44.32	Strong	1.05	1.73	task-social/cue/runtype-cognitive/scl/l056.png	n/a	n/a	n/a	n/a	n/a	n/a	n/a	n/a
182.29	5.0	cognitive	stimulus	6	low_cue	high_stim	n/a	n/a	n/a	n/a	n/a	n/a	task-social/stim/runtype-cognitive/34_150.jpg	n/a	n/a	n/a	n/a	n/a	same	diff	False
191.09	n/a	cognitive	outcomerating	6	low_cue	high_stim	n/a	n/a	37.47	Strong	1.05	1.73	task-social/outcomerating/task-cognitive_scale.png	n/a	n/a	n/a	n/a	n/a	n/a	n/a	n/a
200.5	0.99	cognitive	cue	7	high_cue	n/a	n/a	n/a	n/a	n/a	n/a	n/a	task-social/cue/runtype-cognitive/sch/h026.png	n/a	n/a	n/a	n/a	n/a	n/a	n/a	n/a
202.5	n/a	cognitive	expectrating	7	high_cue	n/a	n/a	n/a	43.54	Strong	1.03	1.77	task-social/cue/runtype-cognitive/sch/h026.png	n/a	n/a	n/a	n/a	n/a	n/a	n/a	n/a
214.9	5.0	cognitive	stimulus	7	high_cue	high_stim	n/a	n/a	n/a	n/a	n/a	n/a	task-social/stim/runtype-cognitive/17_150_R.jpg	n/a	n/a	n/a	n/a	n/a	diff	diff	True
226.71	n/a	cognitive	outcomerating	7	high_cue	high_stim	n/a	n/a	18.8	Moderate	1.03	1.77	task-social/outcomerating/task-cognitive_scale.png	n/a	n/a	n/a	n/a	n/a	n/a	n/a	n/a
236.99	0.99	cognitive	cue	8	high_cue	n/a	n/a	n/a	n/a	n/a	n/a	n/a	task-social/cue/runtype-cognitive/sch/h047.png	n/a	n/a	n/a	n/a	n/a	n/a	n/a	n/a
240.19	n/a	cognitive	expectrating	8	high_cue	n/a	n/a	n/a	49.6	Strong	0.8	1.47	task-social/cue/runtype-cognitive/sch/h047.png	n/a	n/a	n/a	n/a	n/a	n/a	n/a	n/a
251.4	5.0	cognitive	stimulus	8	high_cue	med_stim	n/a	n/a	n/a	n/a	n/a	n/a	task-social/stim/runtype-cognitive/48_100.jpg	n/a	n/a	n/a	n/a	n/a	same	same	True
262.7	n/a	cognitive	outcomerating	8	high_cue	med_stim	n/a	n/a	59.63	Strong	0.8	1.47	task-social/outcomerating/task-cognitive_scale.png	n/a	n/a	n/a	n/a	n/a	n/a	n/a	n/a
268.49	0.99	cognitive	cue	9	low_cue	n/a	n/a	n/a	n/a	n/a	n/a	n/a	task-social/cue/runtype-cognitive/scl/l004.png	n/a	n/a	n/a	n/a	n/a	n/a	n/a	n/a
271.71	n/a	cognitive	expectrating	9	low_cue	n/a	n/a	n/a	56.31	Strong	0.9	2.55	task-social/cue/runtype-cognitive/scl/l004.png	n/a	n/a	n/a	n/a	n/a	n/a	n/a	n/a
280.69	5.0	cognitive	stimulus	9	low_cue	low_stim	n/a	n/a	n/a	n/a	n/a	n/a	task-social/stim/runtype-cognitive/44_50.jpg	n/a	n/a	n/a	n/a	n/a	same	same	True
288.91	n/a	cognitive	outcomerating	9	low_cue	low_stim	n/a	n/a	50.05	Strong	0.9	2.55	task-social/outcomerating/task-cognitive_scale.png	n/a	n/a	n/a	n/a	n/a	n/a	n/a	n/a
296.4	0.98	cognitive	cue	10	low_cue	n/a	n/a	n/a	n/a	n/a	n/a	n/a	task-social/cue/runtype-cognitive/scl/l047.png	n/a	n/a	n/a	n/a	n/a	n/a	n/a	n/a
298.3	n/a	cognitive	expectrating	10	low_cue	n/a	n/a	n/a	43.7	Strong	1.0	1.62	task-social/cue/runtype-cognitive/scl/l047.png	n/a	n/a	n/a	n/a	n/a	n/a	n/a	n/a
308.7	5.0	cognitive	stimulus	10	low_cue	high_stim	n/a	n/a	n/a	n/a	n/a	n/a	task-social/stim/runtype-cognitive/45_150_R.jpg	n/a	n/a	n/a	n/a	n/a	diff	n/a	False
319.99	n/a	cognitive	outcomerating	10	low_cue	high_stim	n/a	n/a	39.32	Strong	1.0	1.62	task-social/outcomerating/task-cognitive_scale.png	n/a	n/a	n/a	n/a	n/a	n/a	n/a	n/a
330.69	0.99	cognitive	cue	11	low_cue	n/a	n/a	n/a	n/a	n/a	n/a	n/a	task-social/cue/runtype-cognitive/scl/l008.png	n/a	n/a	n/a	n/a	n/a	n/a	n/a	n/a
332.39	n/a	cognitive	expectrating	11	low_cue	n/a	n/a	n/a	43.86	Strong	0.98	2.2	task-social/cue/runtype-cognitive/scl/l008.png	n/a	n/a	n/a	n/a	n/a	n/a	n/a	n/a
342.0	5.0	cognitive	stimulus	11	low_cue	low_stim	n/a	n/a	n/a	n/a	n/a	n/a	task-social/stim/runtype-cognitive/23_50_R.jpg	n/a	n/a	n/a	n/a	n/a	diff	same	False
365.81	n/a	cognitive	outcomerating	11	low_cue	low_stim	n/a	n/a	52.17	Strong	0.98	2.2	task-social/outcomerating/task-cognitive_scale.png	n/a	n/a	n/a	n/a	n/a	n/a	n/a	n/a
371.99	0.99	cognitive	cue	12	low_cue	n/a	n/a	n/a	n/a	n/a	n/a	n/a	task-social/cue/runtype-cognitive/scl/l022.png	n/a	n/a	n/a	n/a	n/a	n/a	n/a	n/a
373.59	n/a	cognitive	expectrating	12	low_cue	n/a	n/a	n/a	47.94	Strong	1.0	3.97	task-social/cue/runtype-cognitive/scl/l022.png	n/a	n/a	n/a	n/a	n/a	n/a	n/a	n/a
383.2	5.0	cognitive	stimulus	12	low_cue	med_stim	n/a	n/a	n/a	n/a	n/a	n/a	task-social/stim/runtype-cognitive/10_100_R.jpg	n/a	n/a	n/a	n/a	n/a	diff	diff	True
395.2	n/a	cognitive	outcomerating	12	low_cue	med_stim	n/a	n/a	45.0	Strong	1.0	3.97	task-social/outcomerating/task-cognitive_scale.png	n/a	n/a	n/a	n/a	n/a	n/a	n/a	n/a
