onset	duration	trial_type	response_value	stim_file
2.769	148.054	video	n/a	task-alignvideo/ses-03_run-02_order-01_content-planetearth.mp4
155.383	n/a	rating_relevance	n/a	task-alignvideo/ses-03_run-02_order-01_content-planetearth.mp4
160.418	n/a	rating_happy	n/a	task-alignvideo/ses-03_run-02_order-01_content-planetearth.mp4
165.454	n/a	rating_sad	n/a	task-alignvideo/ses-03_run-02_order-01_content-planetearth.mp4
170.489	n/a	rating_afraid	n/a	task-alignvideo/ses-03_run-02_order-01_content-planetearth.mp4
175.524	n/a	rating_disgusted	n/a	task-alignvideo/ses-03_run-02_order-01_content-planetearth.mp4
180.559	n/a	rating_warm	n/a	task-alignvideo/ses-03_run-02_order-01_content-planetearth.mp4
185.578	n/a	rating_engaged	n/a	task-alignvideo/ses-03_run-02_order-01_content-planetearth.mp4
186.111	86.6	video	n/a	task-alignvideo/ses-03_run-02_order-02_content-normativeprosocial3.mp4
277.262	n/a	rating_relevance	n/a	task-alignvideo/ses-03_run-02_order-02_content-normativeprosocial3.mp4
282.297	n/a	rating_happy	n/a	task-alignvideo/ses-03_run-02_order-02_content-normativeprosocial3.mp4
287.332	n/a	rating_sad	n/a	task-alignvideo/ses-03_run-02_order-02_content-normativeprosocial3.mp4
292.351	n/a	rating_afraid	n/a	task-alignvideo/ses-03_run-02_order-02_content-normativeprosocial3.mp4
297.386	n/a	rating_disgusted	n/a	task-alignvideo/ses-03_run-02_order-02_content-normativeprosocial3.mp4
302.421	n/a	rating_warm	n/a	task-alignvideo/ses-03_run-02_order-02_content-normativeprosocial3.mp4
307.457	n/a	rating_engaged	n/a	task-alignvideo/ses-03_run-02_order-02_content-normativeprosocial3.mp4
307.987	196.693	video	n/a	task-alignvideo/ses-03_run-02_order-03_content-heartstop.mp4
509.215	n/a	rating_relevance	n/a	task-alignvideo/ses-03_run-02_order-03_content-heartstop.mp4
514.234	n/a	rating_happy	n/a	task-alignvideo/ses-03_run-02_order-03_content-heartstop.mp4
519.269	n/a	rating_sad	n/a	task-alignvideo/ses-03_run-02_order-03_content-heartstop.mp4
524.304	n/a	rating_afraid	n/a	task-alignvideo/ses-03_run-02_order-03_content-heartstop.mp4
529.339	n/a	rating_disgusted	n/a	task-alignvideo/ses-03_run-02_order-03_content-heartstop.mp4
534.375	n/a	rating_warm	n/a	task-alignvideo/ses-03_run-02_order-03_content-heartstop.mp4
539.41	n/a	rating_engaged	n/a	task-alignvideo/ses-03_run-02_order-03_content-heartstop.mp4
539.941	35.149	video	n/a	task-alignvideo/ses-03_run-02_order-04_content-beachsunrise.mp4
579.641	n/a	rating_relevance	n/a	task-alignvideo/ses-03_run-02_order-04_content-beachsunrise.mp4
584.66	n/a	rating_happy	n/a	task-alignvideo/ses-03_run-02_order-04_content-beachsunrise.mp4
589.678	n/a	rating_sad	n/a	task-alignvideo/ses-03_run-02_order-04_content-beachsunrise.mp4
594.697	n/a	rating_afraid	n/a	task-alignvideo/ses-03_run-02_order-04_content-beachsunrise.mp4
599.716	n/a	rating_disgusted	n/a	task-alignvideo/ses-03_run-02_order-04_content-beachsunrise.mp4
604.751	n/a	rating_warm	n/a	task-alignvideo/ses-03_run-02_order-04_content-beachsunrise.mp4
609.786	n/a	rating_engaged	n/a	task-alignvideo/ses-03_run-02_order-04_content-beachsunrise.mp4
