onset	duration	trial_type	response_x	response_y	situation	context	modality	stim_file_TODO
7.824	12.655	narrative_presentation	n/a	n/a	Enmity of kin	prison	Audio	task-narratives/Narrative5Situation1.mp3
20.479	1.734	rating_feeling	1024	403	Enmity of kin	prison	Audio	n/a
21.496	0.718	feeling_mouse_trajectory	1024	403	Enmity of kin	prison	Audio	n/a
24.506	2.551	rating_expectation	998	403	Enmity of kin	prison	Audio	n/a
25.523	1.535	expectation_mouse_trajectory	998	403	Enmity of kin	prison	Audio	n/a
31.56	28.116	narrative_presentation	n/a	n/a	All sacrificed for passion	prison	Audio	task-narratives/Narrative5Situation2.mp3
59.677	1.267	rating_feeling	752	558	All sacrificed for passion	prison	Audio	n/a
60.327	0.617	feeling_mouse_trajectory	752	558	All sacrificed for passion	prison	Audio	n/a
63.703	1.484	rating_expectation	697	452	All sacrificed for passion	prison	Audio	n/a
63.853	1.334	expectation_mouse_trajectory	697	452	All sacrificed for passion	prison	Audio	n/a
70.758	13.313	narrative_presentation	n/a	n/a	Discovery of dishonour of loved one	prison	Audio	task-narratives/Narrative5Situation3.mp3
84.07	1.407	rating_feeling	1073	483	Discovery of dishonour of loved one	prison	Audio	n/a
84.137	1.34	feeling_mouse_trajectory	1073	483	Discovery of dishonour of loved one	prison	Audio	n/a
88.1	0.988	rating_expectation	721	448	Discovery of dishonour of loved one	prison	Audio	n/a
88.167	0.922	expectation_mouse_trajectory	721	448	Discovery of dishonour of loved one	prison	Audio	n/a
93.153	20.143	narrative_presentation	n/a	n/a	Crimes of love	park	Audio	task-narratives/Narrative5Situation4.mp3
113.296	1.234	rating_feeling	797	508	Crimes of love	park	Audio	n/a
113.362	1.167	feeling_mouse_trajectory	797	508	Crimes of love	park	Audio	n/a
117.323	1.278	rating_expectation	735	443	Crimes of love	park	Audio	n/a
117.556	1.044	expectation_mouse_trajectory	735	443	Crimes of love	park	Audio	n/a
126.379	14.114	narrative_presentation	n/a	n/a	Necessity of sacrificing loved ones	park	Audio	task-narratives/Narrative5Situation5.mp3
140.493	1.069	rating_feeling	687	332	Necessity of sacrificing loved ones	park	Audio	n/a
140.576	0.986	feeling_mouse_trajectory	687	332	Necessity of sacrificing loved ones	park	Audio	n/a
144.517	2.034	rating_expectation	633	331	Necessity of sacrificing loved ones	park	Audio	n/a
144.667	1.884	expectation_mouse_trajectory	633	331	Necessity of sacrificing loved ones	park	Audio	n/a
151.571	5.475	narrative_presentation	n/a	n/a	Adultery	park	Audio	task-narratives/Narrative5Situation6.mp3
157.046	3.185	rating_feeling	1051	524	Adultery	park	Audio	n/a
157.863	2.368	feeling_mouse_trajectory	1051	524	Adultery	park	Audio	n/a
161.072	1.467	rating_expectation	807	513	Adultery	park	Audio	n/a
161.389	1.151	expectation_mouse_trajectory	807	513	Adultery	park	Audio	n/a
169.128	20.814	narrative_presentation	n/a	n/a	Revolt	beach	Audio	task-narratives/Narrative5Situation7.mp3
189.942	1.851	rating_feeling	836	567	Revolt	beach	Audio	n/a
190.142	1.651	feeling_mouse_trajectory	836	567	Revolt	beach	Audio	n/a
193.968	1.584	rating_expectation	789	461	Revolt	beach	Audio	n/a
194.401	1.151	expectation_mouse_trajectory	789	461	Revolt	beach	Audio	n/a
201.023	7.287	narrative_presentation	n/a	n/a	An enemy loved	beach	Audio	task-narratives/Narrative5Situation8.mp3
208.31	2.318	rating_feeling	874	491	An enemy loved	beach	Audio	n/a
209.077	1.551	feeling_mouse_trajectory	874	491	An enemy loved	beach	Audio	n/a
212.342	2.151	rating_expectation	869	340	An enemy loved	beach	Audio	n/a
212.658	1.834	expectation_mouse_trajectory	869	340	An enemy loved	beach	Audio	n/a
219.396	37.947	narrative_presentation	n/a	n/a	Mistaken jealousy	beach	Audio	task-narratives/Narrative5Situation9.mp3
257.343	1.634	rating_feeling	1235	488	Mistaken jealousy	beach	Audio	n/a
257.709	1.267	feeling_mouse_trajectory	1235	488	Mistaken jealousy	beach	Audio	n/a
261.376	1.774	rating_expectation	1018	352	Mistaken jealousy	beach	Audio	n/a
261.61	1.54	expectation_mouse_trajectory	1018	352	Mistaken jealousy	beach	Audio	n/a
267.449	25.982	narrative_presentation	n/a	n/a	Recovery of a lost one	town	Audio	task-narratives/Narrative6Situation1.mp3
293.43	2.951	rating_feeling	884	506	Recovery of a lost one	town	Audio	n/a
293.83	2.551	feeling_mouse_trajectory	884	506	Recovery of a lost one	town	Audio	n/a
297.457	1.536	rating_expectation	856	462	Recovery of a lost one	town	Audio	n/a
297.823	1.169	expectation_mouse_trajectory	856	462	Recovery of a lost one	town	Audio	n/a
304.512	27.985	narrative_presentation	n/a	n/a	The enigma	town	Audio	task-narratives/Narrative6Situation2.mp3
332.497	2.401	rating_feeling	808	572	The enigma	town	Audio	n/a
332.881	2.018	feeling_mouse_trajectory	808	572	The enigma	town	Audio	n/a
336.521	0.95	rating_expectation	725	488	The enigma	town	Audio	n/a
336.555	0.917	expectation_mouse_trajectory	725	488	The enigma	town	Audio	n/a
345.577	11.981	narrative_presentation	n/a	n/a	Revolt	town	Audio	task-narratives/Narrative6Situation3.mp3
357.559	3.7	rating_feeling	963	428	Revolt	town	Audio	n/a
358.059	3.2	feeling_mouse_trajectory	963	428	Revolt	town	Audio	n/a
361.584	0.286	rating_expectation	971	704	Revolt	town	Audio	n/a
361.617	0.253	expectation_mouse_trajectory	971	704	Revolt	town	Audio	n/a
367.652	11.98	narrative_presentation	n/a	n/a	Loss of loved one	swamp	Audio	task-narratives/Narrative6Situation4.mp3
379.633	1.851	rating_feeling	831	537	Loss of loved one	swamp	Audio	n/a
379.883	1.601	feeling_mouse_trajectory	831	537	Loss of loved one	swamp	Audio	n/a
383.655	1.112	rating_expectation	818	499	Loss of loved one	swamp	Audio	n/a
383.688	1.078	expectation_mouse_trajectory	818	499	Loss of loved one	swamp	Audio	n/a
389.71	7.313	narrative_presentation	n/a	n/a	An enemy loved	swamp	Audio	task-narratives/Narrative6Situation5.mp3
397.023	1.59	rating_feeling	804	517	An enemy loved	swamp	Audio	n/a
397.539	1.073	feeling_mouse_trajectory	804	517	An enemy loved	swamp	Audio	n/a
401.05	2.488	rating_expectation	733	446	An enemy loved	swamp	Audio	n/a
401.167	2.372	expectation_mouse_trajectory	733	446	An enemy loved	swamp	Audio	n/a
407.103	10.824	narrative_presentation	n/a	n/a	Daring Enterprise	swamp	Audio	task-narratives/Narrative6Situation6.mp3
417.928	1.134	rating_feeling	841	594	Daring Enterprise	swamp	Audio	n/a
418.361	0.701	feeling_mouse_trajectory	841	594	Daring Enterprise	swamp	Audio	n/a
421.953	0.917	rating_expectation	745	414	Daring Enterprise	swamp	Audio	n/a
421.986	0.884	expectation_mouse_trajectory	745	414	Daring Enterprise	swamp	Audio	n/a
431.009	23.289	narrative_presentation	n/a	n/a	Self-sacrifice for kin	city	Audio	task-narratives/Narrative6Situation7.mp3
454.298	1.252	rating_feeling	761	482	Self-sacrifice for kin	city	Audio	n/a
454.632	0.919	feeling_mouse_trajectory	761	482	Self-sacrifice for kin	city	Audio	n/a
458.333	0.717	rating_expectation	1061	537	Self-sacrifice for kin	city	Audio	n/a
458.416	0.634	expectation_mouse_trajectory	1061	537	Self-sacrifice for kin	city	Audio	n/a
467.389	5.29	narrative_presentation	n/a	n/a	Falling prey to misfortune	city	Audio	task-narratives/Narrative6Situation8.mp3
472.68	1.851	rating_feeling	760	467	Falling prey to misfortune	city	Audio	n/a
473.813	0.718	feeling_mouse_trajectory	760	467	Falling prey to misfortune	city	Audio	n/a
476.707	2.301	rating_expectation	727	439	Falling prey to misfortune	city	Audio	n/a
477.057	1.951	expectation_mouse_trajectory	727	439	Falling prey to misfortune	city	Audio	n/a
484.763	9.318	narrative_presentation	n/a	n/a	Madness	city	Audio	task-narratives/Narrative6Situation9.mp3
494.081	1.087	rating_feeling	687	460	Madness	city	Audio	n/a
494.114	1.054	feeling_mouse_trajectory	687	460	Madness	city	Audio	n/a
498.117	1.219	rating_expectation	664	442	Madness	city	Audio	n/a
498.217	1.119	expectation_mouse_trajectory	664	442	Madness	city	Audio	n/a
