onset	duration	subtask_type	event_type	response_accuracy	cue_location	target_location	button_press	trial_index
8.36679577827454	0.2	posner	invalid_cue	correct	left			1
8.58354425430298	0.473036766052246	posner	target_response	correct	left	right	right	1
15.8529207706451	0.2	posner	invalid_cue	correct	right			2
16.0529963970184	0.340359449386597	posner	target_response	correct	right	left	left	2
22.1219265460968	0.2	posner	valid_cue	correct	left			3
22.3220002651215	0.369982719421387	posner	target_response	correct	left	left	left	3
25.5898864269257	0.2	posner	valid_cue	correct	left			4
25.7899601459503	0.374697685241699	posner	target_response	correct	left	left	left	4
33.0593378543854	0.2	posner	valid_cue	correct	right			5
33.25941157341	0.361182451248169	posner	target_response	correct	right	right	right	5
39.9285655021667	0.2	posner	invalid_cue	correct	left			6
40.1286413669586	0.353256464004517	posner	target_response	correct	left	right	right	6
43.2964890003204	0.2	posner	valid_cue	correct	left			7
43.4965641498566	0.311041831970215	posner	target_response	correct	left	left	left	7
48.4650835990906	0.2	posner	valid_cue	correct	right			8
48.665158033371	0.29893684387207	posner	target_response	correct	right	right	right	8
51.8330039978027	0.2	posner	invalid_cue	correct	left			9
52.0330798625946	0.393671989440918	posner	target_response	correct	left	right	right	9
58.4021215438843	0.2	posner	valid_cue	correct	right			10
58.6021974086761	0.281394481658936	posner	target_response	correct	right	right	right	10
61.870082616806	0.2	posner	valid_cue	correct	right			11
62.0701575279236	0.309658288955688	posner	target_response	correct	right	right	right	11
66.338415145874	0.2	posner	valid_cue	correct	left			12
66.5384893417358	0.325241565704346	posner	target_response	correct	left	left	left	12
71.20689702034	0.2	posner	valid_cue	correct	left			13
71.4069716930389	0.33405613899231	posner	target_response	correct	left	left	left	13
74.5748200416565	0.2	posner	valid_cue	correct	left			14
74.7748947143555	0.336705207824707	posner	target_response	correct	left	left	left	14
78.342892408371	0.2	posner	invalid_cue	correct	right			15
78.5429666042328	0.350011348724365	posner	target_response	correct	right	left	left	15
83.0112998485565	0.2	posner	valid_cue	correct	right			16
83.2113742828369	0.360245704650879	posner	target_response	correct	right	right	right	16
90.0806019306183	0.2	posner	valid_cue	correct	right			17
90.2806770801544	0.303873777389526	posner	target_response	correct	right	right	right	17
94.548935174942	0.2	posner	invalid_cue	correct	left			18
94.749009847641	0.314311027526855	posner	target_response	correct	left	right	right	18
100.017641782761	0.2	posner	invalid_cue	correct	left			19
100.217716217041	0.283822774887085	posner	target_response	correct	left	right	right	19
104.986160516739	0.2	posner	invalid_cue	correct	left			20
105.186236143112	0.3016517162323	posner	target_response	correct	left	right	right	20
111.155127763748	0.2	posner	valid_cue	correct	right			21
111.35520362854	0.320978403091431	posner	target_response	correct	right	right	right	21
116.123646736145	0.2	posner	valid_cue	correct	right			22
116.3237221241	0.271941900253296	posner	target_response	correct	right	right	right	22
119.291495800018	0.2	posner	invalid_cue	correct	right			23
119.491570234299	0.346324682235718	posner	target_response	correct	right	left	left	23
123.059567213058	0.2	posner	invalid_cue	correct	left			24
123.25964307785	0.335477828979492	posner	target_response	correct	left	right	right	24
126.127379179001	0.2	posner	invalid_cue	correct	left			25
126.327453136444	0.375671863555908	posner	target_response	correct	left	right	right	25
129.295225381851	0.2	posner	invalid_cue	correct	left			26
129.495300769806	0.340028047561646	posner	target_response	correct	left	right	right	26
132.463073968887	0.2	posner	invalid_cue	correct	right			27
132.663149356842	0.333781480789185	posner	target_response	correct	right	left	left	27
139.632414579391	0.2	posner	invalid_cue	correct	left			28
139.832490205765	0.308052778244019	posner	target_response	correct	left	right	right	28
143.200412034988	0.2	posner	valid_cue	correct	left			29
143.400486946106	0.314874887466431	posner	target_response	correct	left	left	left	29
148.36900639534	0.2	posner	invalid_cue	correct	right			30
148.56908082962	0.316074132919312	posner	target_response	correct	right	left	left	30
155.838458061218	0.2	posner	valid_cue	correct	left			31
156.038532972336	0.226071834564209	posner	target_response	correct	left	left	left	31
158.806230306625	0.2	posner	valid_cue	correct	right			32
159.006307125092	0.303662776947021	posner	target_response	correct	right	right	right	32
162.574303865433	0.2	posner	invalid_cue	correct	right			33
162.774378061295	0.325342893600464	posner	target_response	correct	right	left	left	33
165.542076826096	0.2	posner	valid_cue	correct	left			34
165.742151737213	0.350395202636719	posner	target_response	correct	left	left	left	34
168.8099629879	0.2	posner	invalid_cue	correct	right			35
169.01003742218	0.0092403888702392	posner	target_response	correct	right	left	left	35
176.279414892197	0.2	posner	valid_cue	correct	left			36
176.47948884964	0.323616027832031	posner	target_response	correct	left	left	left	36
179.547300100327	0.2	posner	valid_cue	correct	right			37
179.747374296188	0.373434543609619	posner	target_response	correct	right	right	right	37
184.515818834305	0.2	posner	invalid_cue	incorrect	left			38
184.71589422226	0.262845754623413	posner	target_response	incorrect	left	right	left	38
190.684787511826	0.2	posner	invalid_cue	correct	right			39
190.884860992432	0.322930812835693	posner	target_response	correct	right	left	left	39
198.154239416122	0.2	posner	valid_cue	correct	right			40
198.354314565659	0.257729291915894	posner	target_response	correct	right	right	right	40
204.723354578018	0.2	posner	invalid_cue	correct	left			41
204.923430204391	0.279218673706055	posner	target_response	correct	left	right	right	41
211.892695426941	0.2	posner	invalid_cue	correct	left			42
212.092769861221	0.318372964859009	posner	target_response	correct	left	right	right	42
215.26061797142	0.2	posner	invalid_cue	correct	left			43
215.460693120956	0.288149833679199	posner	target_response	correct	left	right	right	43
218.628541231155	0.2	posner	valid_cue	correct	left			44
218.828616142273	0.358500719070435	posner	target_response	correct	left	left	left	44
224.597432851791	0.2	posner	valid_cue	correct	right			45
224.797508239746	0.246311664581299	posner	target_response	correct	right	right	right	45
232.066884994507	0.2	posner	invalid_cue	correct	right			46
232.266959905624	0.365262031555176	posner	target_response	correct	right	left	left	46
236.035031557083	0.2	posner	valid_cue	correct	right			47
236.235107660294	0.384568214416504	posner	target_response	correct	right	right	right	47
243.104335308075	0.2	posner	invalid_cue	correct	right			48
243.304409980774	0.321390867233276	posner	target_response	correct	right	left	left	48
246.572295665741	0.2	posner	valid_cue	correct	right			49
246.772370100021	0.339746713638306	posner	target_response	correct	right	right	right	49
251.340740442276	0.2	posner	valid_cue	correct	right			50
251.540815353394	0.311756610870361	posner	target_response	correct	right	right	right	50
254.30851316452	0.2	posner	invalid_cue	correct	right			51
254.508588075638	0.364690780639648	posner	target_response	correct	right	left	left	51
259.076958417892	0.2	posner	invalid_cue	correct	left			52
259.277032852173	0.349552154541016	posner	target_response	correct	left	right	right	52
265.846149206161	0.2	posner	valid_cue	correct	right			53
266.046224117279	0.315104722976685	posner	target_response	correct	right	right	right	53
270.014369726181	0.2	posner	valid_cue	correct	left			54
270.214445590973	0.313905239105225	posner	target_response	correct	left	left	left	54
274.682777643204	0.2	posner	valid_cue	correct	right			55
274.882853031158	0.28560996055603	posner	target_response	correct	right	right	right	55
277.950663328171	0.2	posner	valid_cue	correct	left			56
278.150738477707	0.260169506072998	posner	target_response	correct	left	left	left	56
287.120749950409	0.2	posner	valid_cue	correct	left			57
287.320823669434	0.256912231445312	posner	target_response	correct	left	left	left	57
290.288597822189	0.2	posner	valid_cue	correct	left			58
290.488672018051	0.288962841033936	posner	target_response	correct	left	left	left	58
293.656519889832	0.2	posner	invalid_cue	correct	right			59
293.856594800949	0.310604095458984	posner	target_response	correct	right	left	left	59
297.024443149567	0.2	posner	valid_cue	incorrect	right			60
297.224518299103	0.0075376033782959	posner	target_response	incorrect	right	right	left	60
300.992590427399	0.2	posner	valid_cue	correct	left			61
301.192663669586	0.289966344833374	posner	target_response	correct	left	left	left	61
308.061891794205	0.2	posner	valid_cue	correct	left			62
308.261967182159	0.320688724517822	posner	target_response	correct	left	left	left	62
314.73104596138	0.2	posner	valid_cue	correct	left			63
314.931121110916	0.314158916473389	posner	target_response	correct	left	left	left	63
318.098968267441	0.2	posner	invalid_cue	correct	left			64
318.299043893814	0.364763975143433	posner	target_response	correct	left	right	right	64
326.768868923187	0.2	posner	valid_cue	correct	right			65
326.968943357468	0.365095615386963	posner	target_response	correct	right	right	right	65
334.238320589066	0.2	posner	valid_cue	correct	right			66
334.438394784927	0.235420227050781	posner	target_response	correct	right	right	right	66
340.907474994659	0.2	posner	invalid_cue	correct	left			67
341.107548713684	0.338191270828247	posner	target_response	correct	left	right	right	67
345.075695753098	0.2	posner	valid_cue	correct	left			68
345.275770425797	0.296059608459473	posner	target_response	correct	left	left	left	68
348.443618535995	0.2	posner	valid_cue	correct	left			69
348.643693447113	0.373935461044312	posner	target_response	correct	left	left	left	69
351.911578178406	0.2	posner	valid_cue	correct	left			70
352.111653327942	0.329686641693115	posner	target_response	correct	left	left	left	70
355.879724740982	0.2	posner	valid_cue	correct	right			71
356.079798698425	0.327285289764404	posner	target_response	correct	right	right	right	71
359.347684860229	0.2	posner	valid_cue	correct	right			72
359.547758579254	0.303909301757812	posner	target_response	correct	right	right	right	72
364.11613035202	0.2	posner	invalid_cue	correct	right			73
364.316204071045	0.395544767379761	posner	target_response	correct	right	left	left	73
368.684500217438	0.2	posner	valid_cue	correct	right			74
368.884574174881	0.273108720779419	posner	target_response	correct	right	right	right	74
374.553354978561	0.2	posner	valid_cue	correct	right			75
374.753430128098	0.313187837600708	posner	target_response	correct	right	right	right	75
382.022807836533	0.2	posner	invalid_cue	correct	right			76
382.222882509232	0.351243495941162	posner	target_response	correct	right	left	left	76
389.492260694504	0.2	posner	invalid_cue	correct	left			77
389.692333936691	0.323324918746948	posner	target_response	correct	left	right	right	77
396.961711883545	0.2	posner	invalid_cue	correct	right			78
397.161786079407	0.310922861099243	posner	target_response	correct	right	left	left	78
400.029523134232	0.2	posner	valid_cue	correct	left			79
400.229596853256	0.305765151977539	posner	target_response	correct	left	left	left	79
406.498602151871	0.2	posner	valid_cue	correct	left			80
406.698677062988	0.273231744766235	posner	target_response	correct	left	left	left	80
413.968053817749	0.2	posner	invalid_cue	correct	right			81
414.168128013611	0.470088005065918	posner	target_response	correct	right	left	left	81
417.936200141907	0.2	posner	invalid_cue	correct	right			82
418.136274576187	0.328307390213013	posner	target_response	correct	right	left	left	82
426.105914354324	0.2	posner	valid_cue	correct	right			83
426.305988311768	0.259245634078979	posner	target_response	correct	right	right	right	83
432.975141525269	0.2	posner	valid_cue	correct	right			84
433.175216674805	0.341429233551025	posner	target_response	correct	right	right	right	84
436.343065500259	0.2	posner	invalid_cue	correct	right			85
436.543138504028	0.319847345352173	posner	target_response	correct	right	left	left	85
439.410875558853	0.2	posner	invalid_cue	correct	left			86
439.610949754715	0.380250215530396	posner	target_response	correct	left	right	right	86
442.478685855865	0.2	posner	valid_cue	correct	right			87
442.67876124382	0.403369665145874	posner	target_response	correct	right	right	right	87
445.546497344971	0.2	posner	valid_cue	correct	right			88
445.746569871902	0.370648145675659	posner	target_response	correct	right	right	right	88
448.914418935776	0.2	posner	valid_cue	correct	left			89
449.114494085312	0.250133752822876	posner	target_response	correct	left	left	left	89
456.383871793747	0.2	posner	invalid_cue	correct	left			90
456.583945512772	0.367968320846558	posner	target_response	correct	left	right	right	90
459.351644992828	0.2	posner	invalid_cue	correct	right			91
459.551719903946	0.474702119827271	posner	target_response	correct	right	left	left	91
466.821096897125	0.2	posner	invalid_cue	correct	right			92
467.021172046661	0.363309860229492	posner	target_response	correct	right	left	left	92
470.889281988144	0.2	posner	valid_cue	correct	left			93
471.089354753494	0.378823280334473	posner	target_response	correct	left	left	left	93
474.857428073883	0.2	posner	invalid_cue	correct	right			94
475.057502508163	0.419800519943237	posner	target_response	correct	right	left	left	94
478.725536108017	0.2	posner	valid_cue	correct	left			95
478.925611019135	0.367517948150635	posner	target_response	correct	left	left	left	95
482.793721437454	0.2	posner	valid_cue	correct	right			96
482.993795633316	0.309208393096924	posner	target_response	correct	right	right	right	96
487.262053966522	0.2	posner	valid_cue	correct	right			97
487.462128162384	0.352236747741699	posner	target_response	correct	right	right	right	97
493.73113322258	0.2	posner	valid_cue	correct	left			98
493.931207180023	0.270455837249756	posner	target_response	correct	left	left	left	98
497.699279308319	0.2	posner	valid_cue	correct	left			99
497.899354219437	0.257259607315063	posner	target_response	correct	left	left	left	99
500.767090559006	0.2	posner	invalid_cue	correct	left			100
500.967163801193	0.351747035980225	posner	target_response	correct	left	right	right	100
503.734862089157	0.2	posner	invalid_cue	correct	right			101
503.934936761856	0.323188066482544	posner	target_response	correct	right	left	left	101
506.802674055099	0.2	posner	valid_cue	correct	left			102
507.002748966217	0.314831972122192	posner	target_response	correct	left	left	left	102
510.270634174347	0.2	posner	valid_cue	correct	left			103
510.470707893372	0.326721906661987	posner	target_response	correct	left	left	left	103
513.338445186615	0.2	posner	valid_cue	correct	left			104
513.53851890564	0.252164125442505	posner	target_response	correct	left	left	left	104
516.806405067444	0.2	posner	invalid_cue	correct	right			105
517.006479501724	0.380560398101807	posner	target_response	correct	right	left	left	105
519.77417755127	0.2	posner	invalid_cue	correct	left			106
519.974253416061	0.457293510437012	posner	target_response	correct	left	right	right	106
523.642286539078	0.2	posner	valid_cue	correct	right			107
523.842362165451	0.327305793762207	posner	target_response	correct	right	right	right	107
527.01021027565	0.2	posner	valid_cue	correct	left			108
527.210283756256	0.323330163955688	posner	target_response	correct	left	left	left	108
531.478542804718	0.2	posner	invalid_cue	correct	right			109
531.678616762161	0.312902212142944	posner	target_response	correct	right	left	left	109
537.247360944748	0.2	posner	valid_cue	correct	left			110
537.447436094284	0.34611177444458	posner	target_response	correct	left	left	left	110
545.417073965073	0.2	posner	valid_cue	correct	right			111
545.617149114609	0.281649827957153	posner	target_response	correct	right	right	right	111
552.886526823044	0.2	posner	valid_cue	correct	right			112
553.086600780487	0.40441107749939	posner	target_response	correct	right	right	right	112
557.254822492599	0.2	posner	invalid_cue	correct	left			113
557.454896211624	0.366232633590698	posner	target_response	correct	left	right	right	113
563.423788785934	0.2	posner	valid_cue	correct	left			114
563.623863935471	0.264782905578613	posner	target_response	correct	left	left	left	114
568.792458295822	0.2	posner	invalid_cue	correct	right			115
568.992532491684	0.38591742515564	posner	target_response	correct	right	left	left	115
575.961798191071	0.2	posner	invalid_cue	correct	left			116
576.161872625351	0.344243288040161	posner	target_response	correct	left	right	right	116
579.329720973969	0.2	posner	invalid_cue	correct	left			117
579.529795885086	0.388972043991089	posner	target_response	correct	left	right	right	117
583.998128414154	0.2	posner	valid_cue	correct	right			118
584.198203086853	0.269691944122314	posner	target_response	correct	right	right	right	118
591.46758055687	0.2	posner	invalid_cue	correct	right			119
591.667655467987	0.275377511978149	posner	target_response	correct	right	left	left	119
598.937032938004	0.2	posner	invalid_cue	correct	left			120
599.137108564377	0.353086471557617	posner	target_response	correct	left	right	right	120
