onset	duration	trial_type	response_x	response_y	situation	context	modality	stim_file
4.819	25.996	narrative_presentation	n/a	n/a	Enmity of kin	prison	Text	task-narratives/Narrative6Situation1.mp3
30.815	2.485	rating_feeling	600	481	Enmity of kin	prison	Text	task-narratives/Narrative6Situation1.mp3
31.382	1.918	feeling_mouse_trajectory	600	481	Enmity of kin	prison	Text	task-narratives/Narrative6Situation1.mp3
34.86	2.568	rating_expectation	735	577	Enmity of kin	prison	Text	task-narratives/Narrative6Situation1.mp3
35.96	1.468	expectation_mouse_trajectory	735	577	Enmity of kin	prison	Text	task-narratives/Narrative6Situation1.mp3
42.048	27.984	narrative_presentation	n/a	n/a	The enigma	town	Text	task-narratives/Narrative6Situation2.mp3
70.032	3.668	rating_feeling	600	481	The enigma	town	Text	task-narratives/Narrative6Situation2.mp3
70.749	2.952	feeling_mouse_trajectory	600	481	The enigma	town	Text	task-narratives/Narrative6Situation2.mp3
74.058	2.851	rating_expectation	735	577	The enigma	town	Text	task-narratives/Narrative6Situation2.mp3
74.774	2.135	expectation_mouse_trajectory	735	577	The enigma	town	Text	task-narratives/Narrative6Situation2.mp3
83.13	11.978	narrative_presentation	n/a	n/a	Discovery of dishonour of loved one	prison	Text	task-narratives/Narrative6Situation3.mp3
95.108	2.873	rating_feeling	600	481	Discovery of dishonour of loved one	prison	Text	task-narratives/Narrative6Situation3.mp3
96.008	1.973	feeling_mouse_trajectory	600	481	Discovery of dishonour of loved one	prison	Text	task-narratives/Narrative6Situation3.mp3
99.156	3.005	rating_expectation	735	577	Discovery of dishonour of loved one	prison	Text	task-narratives/Narrative6Situation3.mp3
99.956	2.205	expectation_mouse_trajectory	735	577	Discovery of dishonour of loved one	prison	Text	task-narratives/Narrative6Situation3.mp3
105.241	11.975	narrative_presentation	n/a	n/a	Loss of loved one	swamp	Text	task-narratives/Narrative6Situation4.mp3
117.216	2.634	rating_feeling	600	481	Loss of loved one	swamp	Text	task-narratives/Narrative6Situation4.mp3
117.666	2.184	feeling_mouse_trajectory	600	481	Loss of loved one	swamp	Text	task-narratives/Narrative6Situation4.mp3
121.241	2.151	rating_expectation	735	577	Loss of loved one	swamp	Text	task-narratives/Narrative6Situation4.mp3
122.058	1.334	expectation_mouse_trajectory	735	577	Loss of loved one	swamp	Text	task-narratives/Narrative6Situation4.mp3
127.318	7.318	narrative_presentation	n/a	n/a	Necessity of sacrificing loved ones	park	Text	task-narratives/Narrative6Situation5.mp3
134.636	3.135	rating_feeling	600	481	Necessity of sacrificing loved ones	park	Text	task-narratives/Narrative6Situation5.mp3
135.886	1.885	feeling_mouse_trajectory	600	481	Necessity of sacrificing loved ones	park	Text	task-narratives/Narrative6Situation5.mp3
138.667	2.19	rating_expectation	735	577	Necessity of sacrificing loved ones	park	Text	task-narratives/Narrative6Situation5.mp3
139.25	1.607	expectation_mouse_trajectory	735	577	Necessity of sacrificing loved ones	park	Text	task-narratives/Narrative6Situation5.mp3
144.752	10.812	narrative_presentation	n/a	n/a	Daring Enterprise	swamp	Text	task-narratives/Narrative6Situation6.mp3
155.563	2.351	rating_feeling	600	481	Daring Enterprise	swamp	Text	task-narratives/Narrative6Situation6.mp3
156.28	1.634	feeling_mouse_trajectory	600	481	Daring Enterprise	swamp	Text	task-narratives/Narrative6Situation6.mp3
159.59	2.601	rating_expectation	735	577	Daring Enterprise	swamp	Text	task-narratives/Narrative6Situation6.mp3
160.606	1.584	expectation_mouse_trajectory	735	577	Daring Enterprise	swamp	Text	task-narratives/Narrative6Situation6.mp3
168.662	23.281	narrative_presentation	n/a	n/a	Revolt	beach	Text	task-narratives/Narrative6Situation7.mp3
191.943	3.704	rating_feeling	600	481	Revolt	beach	Text	task-narratives/Narrative6Situation7.mp3
194.06	1.587	feeling_mouse_trajectory	600	481	Revolt	beach	Text	task-narratives/Narrative6Situation7.mp3
195.971	1.886	rating_expectation	735	577	Revolt	beach	Text	task-narratives/Narrative6Situation7.mp3
196.721	1.136	expectation_mouse_trajectory	735	577	Revolt	beach	Text	task-narratives/Narrative6Situation7.mp3
205.025	5.274	narrative_presentation	n/a	n/a	Falling prey to misfortune	city	Text	task-narratives/Narrative6Situation8.mp3
210.299	2.685	rating_feeling	600	481	Falling prey to misfortune	city	Text	task-narratives/Narrative6Situation8.mp3
211.165	1.818	feeling_mouse_trajectory	600	481	Falling prey to misfortune	city	Text	task-narratives/Narrative6Situation8.mp3
214.326	2.468	rating_expectation	735	577	Falling prey to misfortune	city	Text	task-narratives/Narrative6Situation8.mp3
214.843	1.951	expectation_mouse_trajectory	735	577	Falling prey to misfortune	city	Text	task-narratives/Narrative6Situation8.mp3
222.381	9.316	narrative_presentation	n/a	n/a	Mistaken jealousy	beach	Text	task-narratives/Narrative6Situation9.mp3
231.697	2.172	rating_feeling	600	481	Mistaken jealousy	beach	Text	task-narratives/Narrative6Situation9.mp3
232.214	1.656	feeling_mouse_trajectory	600	481	Mistaken jealousy	beach	Text	task-narratives/Narrative6Situation9.mp3
235.721	2.254	rating_expectation	735	577	Mistaken jealousy	beach	Text	task-narratives/Narrative6Situation9.mp3
236.305	1.671	expectation_mouse_trajectory	735	577	Mistaken jealousy	beach	Text	task-narratives/Narrative6Situation9.mp3
244.79	12.643	narrative_presentation	n/a	n/a	Enmity of kin	prison	Text	task-narratives/Narrative5Situation1.mp3
257.433	3.752	rating_feeling	600	481	Enmity of kin	prison	Text	task-narratives/Narrative5Situation1.mp3
259.3	1.885	feeling_mouse_trajectory	600	481	Enmity of kin	prison	Text	task-narratives/Narrative5Situation1.mp3
261.46	3.051	rating_expectation	735	577	Enmity of kin	prison	Text	task-narratives/Narrative5Situation1.mp3
262.994	1.518	expectation_mouse_trajectory	735	577	Enmity of kin	prison	Text	task-narratives/Narrative5Situation1.mp3
268.515	28.118	narrative_presentation	n/a	n/a	The enigma	town	Text	task-narratives/Narrative5Situation2.mp3
296.633	2.835	rating_feeling	600	481	The enigma	town	Text	task-narratives/Narrative5Situation2.mp3
298.033	1.435	feeling_mouse_trajectory	600	481	The enigma	town	Text	task-narratives/Narrative5Situation2.mp3
300.658	2.501	rating_expectation	735	577	The enigma	town	Text	task-narratives/Narrative5Situation2.mp3
301.475	1.684	expectation_mouse_trajectory	735	577	The enigma	town	Text	task-narratives/Narrative5Situation2.mp3
307.713	13.316	narrative_presentation	n/a	n/a	Discovery of dishonour of loved one	prison	Text	task-narratives/Narrative5Situation3.mp3
321.029	2.639	rating_feeling	600	481	Discovery of dishonour of loved one	prison	Text	task-narratives/Narrative5Situation3.mp3
322.046	1.622	feeling_mouse_trajectory	600	481	Discovery of dishonour of loved one	prison	Text	task-narratives/Narrative5Situation3.mp3
325.055	2.304	rating_expectation	735	577	Discovery of dishonour of loved one	prison	Text	task-narratives/Narrative5Situation3.mp3
326.021	1.337	expectation_mouse_trajectory	735	577	Discovery of dishonour of loved one	prison	Text	task-narratives/Narrative5Situation3.mp3
330.124	20.146	narrative_presentation	n/a	n/a	Loss of loved one	swamp	Text	task-narratives/Narrative5Situation4.mp3
350.27	3.902	rating_feeling	600	481	Loss of loved one	swamp	Text	task-narratives/Narrative5Situation4.mp3
352.636	1.535	feeling_mouse_trajectory	600	481	Loss of loved one	swamp	Text	task-narratives/Narrative5Situation4.mp3
354.295	2.843	rating_expectation	735	577	Loss of loved one	swamp	Text	task-narratives/Narrative5Situation4.mp3
356.028	1.11	expectation_mouse_trajectory	735	577	Loss of loved one	swamp	Text	task-narratives/Narrative5Situation4.mp3
363.367	14.112	narrative_presentation	n/a	n/a	Necessity of sacrificing loved ones	park	Text	task-narratives/Narrative5Situation5.mp3
377.479	2.368	rating_feeling	600	481	Necessity of sacrificing loved ones	park	Text	task-narratives/Narrative5Situation5.mp3
378.413	1.435	feeling_mouse_trajectory	600	481	Necessity of sacrificing loved ones	park	Text	task-narratives/Narrative5Situation5.mp3
381.505	2.651	rating_expectation	735	577	Necessity of sacrificing loved ones	park	Text	task-narratives/Narrative5Situation5.mp3
382.738	1.418	expectation_mouse_trajectory	735	577	Necessity of sacrificing loved ones	park	Text	task-narratives/Narrative5Situation5.mp3
388.56	5.479	narrative_presentation	n/a	n/a	Daring Enterprise	swamp	Text	task-narratives/Narrative5Situation6.mp3
394.039	2.701	rating_feeling	600	481	Daring Enterprise	swamp	Text	task-narratives/Narrative5Situation6.mp3
395.572	1.168	feeling_mouse_trajectory	600	481	Daring Enterprise	swamp	Text	task-narratives/Narrative5Situation6.mp3
398.061	2.585	rating_expectation	735	577	Daring Enterprise	swamp	Text	task-narratives/Narrative5Situation6.mp3
398.878	1.768	expectation_mouse_trajectory	735	577	Daring Enterprise	swamp	Text	task-narratives/Narrative5Situation6.mp3
406.117	20.816	narrative_presentation	n/a	n/a	Revolt	beach	Text	task-narratives/Narrative5Situation7.mp3
426.933	2.835	rating_feeling	600	481	Revolt	beach	Text	task-narratives/Narrative5Situation7.mp3
427.849	1.918	feeling_mouse_trajectory	600	481	Revolt	beach	Text	task-narratives/Narrative5Situation7.mp3
430.957	3.568	rating_expectation	735	577	Revolt	beach	Text	task-narratives/Narrative5Situation7.mp3
432.357	2.168	expectation_mouse_trajectory	735	577	Revolt	beach	Text	task-narratives/Narrative5Situation7.mp3
438.012	7.293	narrative_presentation	n/a	n/a	Falling prey to misfortune	city	Text	task-narratives/Narrative5Situation8.mp3
445.305	2.901	rating_feeling	600	481	Falling prey to misfortune	city	Text	task-narratives/Narrative5Situation8.mp3
446.688	1.518	feeling_mouse_trajectory	600	481	Falling prey to misfortune	city	Text	task-narratives/Narrative5Situation8.mp3
449.33	3.024	rating_expectation	735	577	Falling prey to misfortune	city	Text	task-narratives/Narrative5Situation8.mp3
450.997	1.358	expectation_mouse_trajectory	735	577	Falling prey to misfortune	city	Text	task-narratives/Narrative5Situation8.mp3
456.402	37.948	narrative_presentation	n/a	n/a	Mistaken jealousy	beach	Text	task-narratives/Narrative5Situation9.mp3
494.351	2.558	rating_feeling	600	481	Mistaken jealousy	beach	Text	task-narratives/Narrative5Situation9.mp3
494.934	1.974	feeling_mouse_trajectory	600	481	Mistaken jealousy	beach	Text	task-narratives/Narrative5Situation9.mp3
498.382	2.873	rating_expectation	735	577	Mistaken jealousy	beach	Text	task-narratives/Narrative5Situation9.mp3
500.215	1.04	expectation_mouse_trajectory	735	577	Mistaken jealousy	beach	Text	task-narratives/Narrative5Situation9.mp3
