onset	duration	run_type	trial_type	trial_index	cue	stimulusintensity	rating_value	rating_glmslabel	rating_value_fillna	rating_glmslabel_fillna	rating_mouseonset	rating_mousedur	stim_file	pain_onset_ttl1	pain_onset_ttl2	pain_onset_ttl3	pain_onset_ttl4	pain_stimulus_delivery_success	cognitive_correct_response	cognitive_participant_response	cognitive_response_accuracy
13.39	1.0	pain	cue	1	low_cue	n/a	n/a	n/a	n/a	n/a	n/a	n/a	task-social/cue/runtype-pain/scl/l049.png	n/a	n/a	n/a	n/a	n/a	n/a	n/a	n/a
15.21	2.1	pain	expectrating	1	low_cue	n/a	49.9	Strong	49.9	Strong	0.65	1.45	task-social/cue/runtype-pain/scl/l049.png	n/a	n/a	n/a	n/a	n/a	n/a	n/a	n/a
23.97	11.899999999999999	pain	stimulus	1	low_cue	low_stim	n/a	n/a	n/a	n/a	n/a	n/a	n/a	23.97	27.47	32.47	35.87	success	n/a	n/a	n/a
36.9	2.42	pain	outcomerating	1	low_cue	low_stim	66.41	Very Strong	66.41	Very Strong	0.65	1.45	task-social/outcomerating/task-pain_scale.png	n/a	n/a	n/a	n/a	success	n/a	n/a	n/a
43.0	1.0	pain	cue	2	low_cue	n/a	n/a	n/a	n/a	n/a	n/a	n/a	task-social/cue/runtype-pain/scl/l032.png	n/a	n/a	n/a	n/a	n/a	n/a	n/a	n/a
46.0	2.67	pain	expectrating	2	low_cue	n/a	55.8	Strong	55.8	Strong	0.45	2.22	task-social/cue/runtype-pain/scl/l032.png	n/a	n/a	n/a	n/a	n/a	n/a	n/a	n/a
54.73	12.360000000000007	pain	stimulus	2	low_cue	med_stim	n/a	n/a	n/a	n/a	n/a	n/a	n/a	54.73	58.49	63.49	67.1	success	n/a	n/a	n/a
70.19	2.25	pain	outcomerating	2	low_cue	med_stim	71.27	Very Strong	71.27	Very Strong	0.45	2.22	task-social/outcomerating/task-pain_scale.png	n/a	n/a	n/a	n/a	success	n/a	n/a	n/a
78.7	1.0	pain	cue	3	high_cue	n/a	n/a	n/a	n/a	n/a	n/a	n/a	task-social/cue/runtype-pain/sch/h030.png	n/a	n/a	n/a	n/a	n/a	n/a	n/a	n/a
81.7	1.58	pain	expectrating	3	high_cue	n/a	62.82	Strong	62.82	Strong	0.37	1.22	task-social/cue/runtype-pain/sch/h030.png	n/a	n/a	n/a	n/a	n/a	n/a	n/a	n/a
86.53	12.370000000000005	pain	stimulus	3	high_cue	med_stim	n/a	n/a	n/a	n/a	n/a	n/a	n/a	86.53	90.29	95.29	98.9	success	n/a	n/a	n/a
99.99	2.11	pain	outcomerating	3	high_cue	med_stim	64.36	Very Strong	64.36	Very Strong	0.37	1.22	task-social/outcomerating/task-pain_scale.png	n/a	n/a	n/a	n/a	success	n/a	n/a	n/a
113.89	1.0	pain	cue	4	low_cue	n/a	n/a	n/a	n/a	n/a	n/a	n/a	task-social/cue/runtype-pain/scl/l004.png	n/a	n/a	n/a	n/a	n/a	n/a	n/a	n/a
115.79	2.74	pain	expectrating	4	low_cue	n/a	55.16	Strong	55.16	Strong	0.72	2.02	task-social/cue/runtype-pain/scl/l004.png	n/a	n/a	n/a	n/a	n/a	n/a	n/a	n/a
123.22	12.819999999999993	pain	stimulus	4	low_cue	high_stim	n/a	n/a	n/a	n/a	n/a	n/a	n/a	123.22	127.23	132.23	136.04	success	n/a	n/a	n/a
137.1	2.38	pain	outcomerating	4	low_cue	high_stim	65.59	Very Strong	65.59	Very Strong	0.72	2.02	task-social/outcomerating/task-pain_scale.png	n/a	n/a	n/a	n/a	success	n/a	n/a	n/a
151.69	1.0	pain	cue	5	high_cue	n/a	n/a	n/a	n/a	n/a	n/a	n/a	task-social/cue/runtype-pain/sch/h049.png	n/a	n/a	n/a	n/a	n/a	n/a	n/a	n/a
153.41	1.58	pain	expectrating	5	high_cue	n/a	52.81	Strong	52.81	Strong	0.68	0.9	task-social/cue/runtype-pain/sch/h049.png	n/a	n/a	n/a	n/a	n/a	n/a	n/a	n/a
159.94	12.370000000000005	pain	stimulus	5	high_cue	med_stim	n/a	n/a	n/a	n/a	n/a	n/a	n/a	159.94	163.7	168.7	172.31	success	n/a	n/a	n/a
173.1	1.88	pain	outcomerating	5	high_cue	med_stim	57.4	Strong	57.4	Strong	0.68	0.9	task-social/outcomerating/task-pain_scale.png	n/a	n/a	n/a	n/a	success	n/a	n/a	n/a
178.78	1.0	pain	cue	6	low_cue	n/a	n/a	n/a	n/a	n/a	n/a	n/a	task-social/cue/runtype-pain/scl/l024.png	n/a	n/a	n/a	n/a	n/a	n/a	n/a	n/a
181.9	2.93	pain	expectrating	6	low_cue	n/a	67.04	Very Strong	67.04	Very Strong	0.37	2.57	task-social/cue/runtype-pain/scl/l024.png	n/a	n/a	n/a	n/a	n/a	n/a	n/a	n/a
188.11	12.829999999999984	pain	stimulus	6	low_cue	high_stim	n/a	n/a	n/a	n/a	n/a	n/a	n/a	188.11	192.12	197.12	200.93	success	n/a	n/a	n/a
201.89	1.75	pain	outcomerating	6	low_cue	high_stim	59.12	Strong	59.12	Strong	0.37	2.57	task-social/outcomerating/task-pain_scale.png	n/a	n/a	n/a	n/a	success	n/a	n/a	n/a
207.19	1.0	pain	cue	7	low_cue	n/a	n/a	n/a	n/a	n/a	n/a	n/a	task-social/cue/runtype-pain/scl/l050.png	n/a	n/a	n/a	n/a	n/a	n/a	n/a	n/a
210.2	1.93	pain	expectrating	7	low_cue	n/a	61.56	Strong	61.56	Strong	1.08	0.85	task-social/cue/runtype-pain/scl/l050.png	n/a	n/a	n/a	n/a	n/a	n/a	n/a	n/a
219.5	11.900000000000006	pain	stimulus	7	low_cue	low_stim	n/a	n/a	n/a	n/a	n/a	n/a	n/a	219.5	223.0	228.0	231.4	success	n/a	n/a	n/a
232.69	1.89	pain	outcomerating	7	low_cue	low_stim	51.86	Strong	51.86	Strong	1.08	0.85	task-social/outcomerating/task-pain_scale.png	n/a	n/a	n/a	n/a	success	n/a	n/a	n/a
237.59	1.0	pain	cue	8	high_cue	n/a	n/a	n/a	n/a	n/a	n/a	n/a	task-social/cue/runtype-pain/sch/h047.png	n/a	n/a	n/a	n/a	n/a	n/a	n/a	n/a
239.29	1.54	pain	expectrating	8	high_cue	n/a	65.08	Very Strong	65.08	Very Strong	0.53	1.01	task-social/cue/runtype-pain/sch/h047.png	n/a	n/a	n/a	n/a	n/a	n/a	n/a	n/a
248.22	12.820000000000022	pain	stimulus	8	high_cue	high_stim	n/a	n/a	n/a	n/a	n/a	n/a	n/a	248.22	252.23	257.23	261.04	success	n/a	n/a	n/a
260.4	2.82	pain	outcomerating	8	high_cue	high_stim	68.11	Very Strong	68.11	Very Strong	0.53	1.01	task-social/outcomerating/task-pain_scale.png	n/a	n/a	n/a	n/a	success	n/a	n/a	n/a
268.28	1.0	pain	cue	9	high_cue	n/a	n/a	n/a	n/a	n/a	n/a	n/a	task-social/cue/runtype-pain/sch/h054.png	n/a	n/a	n/a	n/a	n/a	n/a	n/a	n/a
271.3	1.32	pain	expectrating	9	high_cue	n/a	64.26	Very Strong	64.26	Very Strong	0.4	0.92	task-social/cue/runtype-pain/sch/h054.png	n/a	n/a	n/a	n/a	n/a	n/a	n/a	n/a
277.53	12.82000000000005	pain	stimulus	9	high_cue	high_stim	n/a	n/a	n/a	n/a	n/a	n/a	n/a	277.53	281.54	286.54	290.35	success	n/a	n/a	n/a
292.19	2.04	pain	outcomerating	9	high_cue	high_stim	66.59	Very Strong	66.59	Very Strong	0.4	0.92	task-social/outcomerating/task-pain_scale.png	n/a	n/a	n/a	n/a	success	n/a	n/a	n/a
300.1	1.0	pain	cue	10	high_cue	n/a	n/a	n/a	n/a	n/a	n/a	n/a	task-social/cue/runtype-pain/sch/h027.png	n/a	n/a	n/a	n/a	n/a	n/a	n/a	n/a
302.9	2.22	pain	expectrating	10	high_cue	n/a	71.34	Very Strong	71.34	Very Strong	1.3	0.92	task-social/cue/runtype-pain/sch/h027.png	n/a	n/a	n/a	n/a	n/a	n/a	n/a	n/a
317.52	11.900000000000034	pain	stimulus	10	high_cue	low_stim	n/a	n/a	n/a	n/a	n/a	n/a	n/a	317.52	321.02	326.02	329.42	success	n/a	n/a	n/a
328.69	1.47	pain	outcomerating	10	high_cue	low_stim	49.8	Strong	49.8	Strong	1.3	0.92	task-social/outcomerating/task-pain_scale.png	n/a	n/a	n/a	n/a	success	n/a	n/a	n/a
333.59	1.0	pain	cue	11	high_cue	n/a	n/a	n/a	n/a	n/a	n/a	n/a	task-social/cue/runtype-pain/sch/h046.png	n/a	n/a	n/a	n/a	n/a	n/a	n/a	n/a
336.49	1.77	pain	expectrating	11	high_cue	n/a	61.79	Strong	61.79	Strong	0.62	1.15	task-social/cue/runtype-pain/sch/h046.png	n/a	n/a	n/a	n/a	n/a	n/a	n/a	n/a
345.42	11.909999999999968	pain	stimulus	11	high_cue	low_stim	n/a	n/a	n/a	n/a	n/a	n/a	n/a	345.42	348.92	353.92	357.32	success	n/a	n/a	n/a
359.4	1.45	pain	outcomerating	11	high_cue	low_stim	50.69	Strong	50.69	Strong	0.62	1.15	task-social/outcomerating/task-pain_scale.png	n/a	n/a	n/a	n/a	success	n/a	n/a	n/a
366.99	1.0	pain	cue	12	low_cue	n/a	n/a	n/a	n/a	n/a	n/a	n/a	task-social/cue/runtype-pain/scl/l015.png	n/a	n/a	n/a	n/a	n/a	n/a	n/a	n/a
368.89	2.98	pain	expectrating	12	low_cue	n/a	58.88	Strong	58.88	Strong	0.73	2.24	task-social/cue/runtype-pain/scl/l015.png	n/a	n/a	n/a	n/a	n/a	n/a	n/a	n/a
380.52	12.360000000000014	pain	stimulus	12	low_cue	med_stim	n/a	n/a	n/a	n/a	n/a	n/a	n/a	380.52	384.28	389.28	392.89	success	n/a	n/a	n/a
394.5	2.42	pain	outcomerating	12	low_cue	med_stim	50.55	Strong	50.55	Strong	0.73	2.24	task-social/outcomerating/task-pain_scale.png	n/a	n/a	n/a	n/a	success	n/a	n/a	n/a
