onset	duration	run_type	trial_type	trial_index	cue	stimulusintensity	rating_value	rating_glmslabel	rating_value_fillna	rating_glmslabel_fillna	rating_mouseonset	rating_mousedur	stim_file_TODO	pain_onset_ttl1	pain_onset_ttl2	pain_onset_ttl3	pain_onset_ttl4	pain_stimulus_delivery_success	cognitive_correct_response	cognitive_participant_response	cognitive_response_accuracy
14.2	0.98	vicarious	cue	1	low_cue	n/a	n/a	n/a	n/a	n/a	n/a	n/a	task-social/cue/runtype-vicarious/scl/l005.png	n/a	n/a	n/a	n/a	n/a	n/a	n/a	n/a
16.02	2.49	vicarious	expectrating	1	low_cue	n/a	9.62	Weak	9.62	Weak	0.67	1.82	task-social/cue/runtype-vicarious/scl/l005.png	n/a	n/a	n/a	n/a	n/a	n/a	n/a	n/a
22.59	5.0	vicarious	stimulus	1	low_cue	low_stim	n/a	n/a	n/a	n/a	n/a	n/a	task-social/stim/runtype-vicarious/dr052t1aeunaff_L.mp4	n/a	n/a	n/a	n/a	n/a	n/a	n/a	n/a
35.31	2.05	vicarious	outcomerating	1	low_cue	low_stim	36.69	Strong	36.69	Strong	0.67	1.82	task-social/outcomerating/task-vicarious_scale.png	n/a	n/a	n/a	n/a	n/a	n/a	n/a	n/a
40.59	0.99	vicarious	cue	2	low_cue	n/a	n/a	n/a	n/a	n/a	n/a	n/a	task-social/cue/runtype-vicarious/scl/l026.png	n/a	n/a	n/a	n/a	n/a	n/a	n/a	n/a
43.59	1.2	vicarious	expectrating	2	low_cue	n/a	12.53	Moderate	12.53	Moderate	0.05	1.15	task-social/cue/runtype-vicarious/scl/l026.png	n/a	n/a	n/a	n/a	n/a	n/a	n/a	n/a
50.19	5.0	vicarious	stimulus	2	low_cue	med_stim	n/a	n/a	n/a	n/a	n/a	n/a	task-social/stim/runtype-vicarious/bg096t2aaaff_M.mp4	n/a	n/a	n/a	n/a	n/a	n/a	n/a	n/a
63.7	2.27	vicarious	outcomerating	2	low_cue	med_stim	67.13	Very Strong	67.13	Very Strong	0.05	1.15	task-social/outcomerating/task-vicarious_scale.png	n/a	n/a	n/a	n/a	n/a	n/a	n/a	n/a
72.19	1.0	vicarious	cue	3	high_cue	n/a	n/a	n/a	n/a	n/a	n/a	n/a	task-social/cue/runtype-vicarious/sch/h052.png	n/a	n/a	n/a	n/a	n/a	n/a	n/a	n/a
75.21	2.03	vicarious	expectrating	3	high_cue	n/a	65.39	Very Strong	65.39	Very Strong	0.45	1.58	task-social/cue/runtype-vicarious/sch/h052.png	n/a	n/a	n/a	n/a	n/a	n/a	n/a	n/a
86.09	5.0	vicarious	stimulus	3	high_cue	med_stim	n/a	n/a	n/a	n/a	n/a	n/a	task-social/stim/runtype-vicarious/aa048t2afunaff_M.mp4	n/a	n/a	n/a	n/a	n/a	n/a	n/a	n/a
95.9	1.64	vicarious	outcomerating	3	high_cue	med_stim	6.44	Weak	6.44	Weak	0.45	1.58	task-social/outcomerating/task-vicarious_scale.png	n/a	n/a	n/a	n/a	n/a	n/a	n/a	n/a
109.0	0.98	vicarious	cue	4	low_cue	n/a	n/a	n/a	n/a	n/a	n/a	n/a	task-social/cue/runtype-vicarious/scl/l037.png	n/a	n/a	n/a	n/a	n/a	n/a	n/a	n/a
110.9	2.37	vicarious	expectrating	4	low_cue	n/a	3.45	Weak	3.45	Weak	0.35	2.02	task-social/cue/runtype-vicarious/scl/l037.png	n/a	n/a	n/a	n/a	n/a	n/a	n/a	n/a
120.29	5.0	vicarious	stimulus	4	low_cue	high_stim	n/a	n/a	n/a	n/a	n/a	n/a	task-social/stim/runtype-vicarious/aa048t2aeaff_H.mp4	n/a	n/a	n/a	n/a	n/a	n/a	n/a	n/a
130.51	2.18	vicarious	outcomerating	4	low_cue	high_stim	31.64	Strong	31.64	Strong	0.35	2.02	task-social/outcomerating/task-vicarious_scale.png	n/a	n/a	n/a	n/a	n/a	n/a	n/a	n/a
145.1	0.99	vicarious	cue	5	high_cue	n/a	n/a	n/a	n/a	n/a	n/a	n/a	task-social/cue/runtype-vicarious/sch/h013.png	n/a	n/a	n/a	n/a	n/a	n/a	n/a	n/a
146.8	2.69	vicarious	expectrating	5	high_cue	n/a	34.46	Strong	34.46	Strong	0.53	2.16	task-social/cue/runtype-vicarious/sch/h013.png	n/a	n/a	n/a	n/a	n/a	n/a	n/a	n/a
155.29	5.0	vicarious	stimulus	5	high_cue	med_stim	n/a	n/a	n/a	n/a	n/a	n/a	task-social/stim/runtype-vicarious/dr052t2aaaff_M.mp4	n/a	n/a	n/a	n/a	n/a	n/a	n/a	n/a
166.51	1.63	vicarious	outcomerating	5	high_cue	med_stim	41.58	Strong	41.58	Strong	0.53	2.16	task-social/outcomerating/task-vicarious_scale.png	n/a	n/a	n/a	n/a	n/a	n/a	n/a	n/a
171.39	0.99	vicarious	cue	6	low_cue	n/a	n/a	n/a	n/a	n/a	n/a	n/a	task-social/cue/runtype-vicarious/scl/l053.png	n/a	n/a	n/a	n/a	n/a	n/a	n/a	n/a
174.49	1.97	vicarious	expectrating	6	low_cue	n/a	10.68	Moderate	10.68	Moderate	0.05	1.92	task-social/cue/runtype-vicarious/scl/l053.png	n/a	n/a	n/a	n/a	n/a	n/a	n/a	n/a
182.69	5.0	vicarious	stimulus	6	low_cue	high_stim	n/a	n/a	n/a	n/a	n/a	n/a	task-social/stim/runtype-vicarious/dr052t1aiaff_H.mp4	n/a	n/a	n/a	n/a	n/a	n/a	n/a	n/a
194.5	2.25	vicarious	outcomerating	6	low_cue	high_stim	90.69	Very Strong	90.69	Very Strong	0.05	1.92	task-social/outcomerating/task-vicarious_scale.png	n/a	n/a	n/a	n/a	n/a	n/a	n/a	n/a
199.8	0.98	vicarious	cue	7	low_cue	n/a	n/a	n/a	n/a	n/a	n/a	n/a	task-social/cue/runtype-vicarious/scl/l047.png	n/a	n/a	n/a	n/a	n/a	n/a	n/a	n/a
202.8	2.38	vicarious	expectrating	7	low_cue	n/a	1.84	Barely detectable	1.84	Barely detectable	0.52	1.87	task-social/cue/runtype-vicarious/scl/l047.png	n/a	n/a	n/a	n/a	n/a	n/a	n/a	n/a
218.19	5.0	vicarious	stimulus	7	low_cue	low_stim	n/a	n/a	n/a	n/a	n/a	n/a	task-social/stim/runtype-vicarious/jl047t1aaunaff_L.mp4	n/a	n/a	n/a	n/a	n/a	n/a	n/a	n/a
231.1	3.12	vicarious	outcomerating	7	low_cue	low_stim	15.21	Moderate	15.21	Moderate	0.52	1.87	task-social/outcomerating/task-vicarious_scale.png	n/a	n/a	n/a	n/a	n/a	n/a	n/a	n/a
236.8	0.98	vicarious	cue	8	high_cue	n/a	n/a	n/a	n/a	n/a	n/a	n/a	task-social/cue/runtype-vicarious/sch/h003.png	n/a	n/a	n/a	n/a	n/a	n/a	n/a	n/a
238.5	1.75	vicarious	expectrating	8	high_cue	n/a	46.65	Strong	46.65	Strong	0.62	1.14	task-social/cue/runtype-vicarious/sch/h003.png	n/a	n/a	n/a	n/a	n/a	n/a	n/a	n/a
245.29	5.0	vicarious	stimulus	8	high_cue	high_stim	n/a	n/a	n/a	n/a	n/a	n/a	task-social/stim/runtype-vicarious/nm106t1afaff_H.mp4	n/a	n/a	n/a	n/a	n/a	n/a	n/a	n/a
255.51	2.05	vicarious	outcomerating	8	high_cue	high_stim	62.82	Strong	62.82	Strong	0.62	1.14	task-social/outcomerating/task-vicarious_scale.png	n/a	n/a	n/a	n/a	n/a	n/a	n/a	n/a
264.19	0.99	vicarious	cue	9	high_cue	n/a	n/a	n/a	n/a	n/a	n/a	n/a	task-social/cue/runtype-vicarious/sch/h029.png	n/a	n/a	n/a	n/a	n/a	n/a	n/a	n/a
267.19	2.08	vicarious	expectrating	9	high_cue	n/a	56.95	Strong	56.95	Strong	0.25	1.83	task-social/cue/runtype-vicarious/sch/h029.png	n/a	n/a	n/a	n/a	n/a	n/a	n/a	n/a
279.49	5.0	vicarious	stimulus	9	high_cue	high_stim	n/a	n/a	n/a	n/a	n/a	n/a	task-social/stim/runtype-vicarious/bg096t1aeaff_H.mp4	n/a	n/a	n/a	n/a	n/a	n/a	n/a	n/a
290.5	n/a	vicarious	outcomerating	9	high_cue	high_stim	n/a	n/a	71.71	Very Strong	0.25	1.83	task-social/outcomerating/task-vicarious_scale.png	n/a	n/a	n/a	n/a	n/a	n/a	n/a	n/a
298.39	0.99	vicarious	cue	10	high_cue	n/a	n/a	n/a	n/a	n/a	n/a	n/a	task-social/cue/runtype-vicarious/sch/h037.png	n/a	n/a	n/a	n/a	n/a	n/a	n/a	n/a
301.21	3.38	vicarious	expectrating	10	high_cue	n/a	19.24	Moderate	19.24	Moderate	1.03	2.35	task-social/cue/runtype-vicarious/sch/h037.png	n/a	n/a	n/a	n/a	n/a	n/a	n/a	n/a
321.89	5.0	vicarious	stimulus	10	high_cue	low_stim	n/a	n/a	n/a	n/a	n/a	n/a	task-social/stim/runtype-vicarious/ll042t1aaunaff_L.mp4	n/a	n/a	n/a	n/a	n/a	n/a	n/a	n/a
331.1	2.99	vicarious	outcomerating	10	high_cue	low_stim	29.74	Strong	29.74	Strong	1.03	2.35	task-social/outcomerating/task-vicarious_scale.png	n/a	n/a	n/a	n/a	n/a	n/a	n/a	n/a
336.0	0.98	vicarious	cue	11	high_cue	n/a	n/a	n/a	n/a	n/a	n/a	n/a	task-social/cue/runtype-vicarious/sch/h007.png	n/a	n/a	n/a	n/a	n/a	n/a	n/a	n/a
338.9	3.08	vicarious	expectrating	11	high_cue	n/a	29.74	Strong	29.74	Strong	0.63	2.45	task-social/cue/runtype-vicarious/sch/h007.png	n/a	n/a	n/a	n/a	n/a	n/a	n/a	n/a
345.69	5.0	vicarious	stimulus	11	high_cue	low_stim	n/a	n/a	n/a	n/a	n/a	n/a	task-social/stim/runtype-vicarious/aa048t2aaunaff_L.mp4	n/a	n/a	n/a	n/a	n/a	n/a	n/a	n/a
359.41	3.77	vicarious	outcomerating	11	high_cue	low_stim	14.37	Moderate	14.37	Moderate	0.63	2.45	task-social/outcomerating/task-vicarious_scale.png	n/a	n/a	n/a	n/a	n/a	n/a	n/a	n/a
367.0	0.98	vicarious	cue	12	low_cue	n/a	n/a	n/a	n/a	n/a	n/a	n/a	task-social/cue/runtype-vicarious/scl/l002.png	n/a	n/a	n/a	n/a	n/a	n/a	n/a	n/a
368.9	1.61	vicarious	expectrating	12	low_cue	n/a	0.46	No sensation	0.46	No sensation	0.05	1.56	task-social/cue/runtype-vicarious/scl/l002.png	n/a	n/a	n/a	n/a	n/a	n/a	n/a	n/a
382.49	5.0	vicarious	stimulus	12	low_cue	med_stim	n/a	n/a	n/a	n/a	n/a	n/a	task-social/stim/runtype-vicarious/ll042t1afunaff_M.mp4	n/a	n/a	n/a	n/a	n/a	n/a	n/a	n/a
394.51	2.12	vicarious	outcomerating	12	low_cue	med_stim	8.52	Weak	8.52	Weak	0.05	1.56	task-social/outcomerating/task-vicarious_scale.png	n/a	n/a	n/a	n/a	n/a	n/a	n/a	n/a
