onset	duration	subtask_type	question	event_type	participant_response	normative_response	response_accuracy	stim_file
5.015	0.569	tomspunt	reaching?	how_hand	yes	yes	correct	task-tomspunt/H_007.jpg
5.899	0.027	tomspunt	reaching?	how_hand	yes	no	incorrect	task-tomspunt/H_532.jpg
6.232	1.872	tomspunt	reaching?	how_hand	no	yes	incorrect	task-tomspunt/H_474.jpg
8.267	0.027	tomspunt	reaching?	how_hand	no	no	correct	task-tomspunt/H_438.jpg
8.6	1.579	tomspunt	reaching?	how_hand	yes	yes	correct	task-tomspunt/H_364.jpg
10.484	0.91	tomspunt	reaching?	how_hand	yes	yes	correct	task-tomspunt/H_006.jpg
11.701	1.141	tomspunt	reaching?	how_hand	yes	yes	correct	task-tomspunt/H_003.jpg
13.152	0.935	tomspunt	reaching?	how_hand	no	no	correct	task-tomspunt/H_132.jpg
22.555	1.438	tomspunt	healthy?	why_hand	yes	yes	correct	task-tomspunt/H_627.jpg
24.306	0.02	tomspunt	healthy?	why_hand	yes	yes	correct	task-tomspunt/H_438.jpg
24.639	1.453	tomspunt	healthy?	why_hand	yes	yes	correct	task-tomspunt/H_364.jpg
26.407	1.703	tomspunt	healthy?	why_hand	no	no	correct	task-tomspunt/H_130.jpg
28.424	0.819	tomspunt	healthy?	why_hand	yes	yes	correct	task-tomspunt/H_362.jpg
29.558	1.069	tomspunt	healthy?	why_hand	no	no	correct	task-tomspunt/H_007.jpg
30.942	0.018	tomspunt	healthy?	why_hand	no	yes	incorrect	task-tomspunt/H_167.jpg
31.275	n/a	tomspunt	healthy?	why_hand	n/a	no	incorrect	task-tomspunt/H_019.jpg
41.662	0.835	tomspunt	admiring?	why_face	yes	yes	correct	task-tomspunt/F_779.jpg
42.813	0.718	tomspunt	admiring?	why_face	yes	yes	correct	task-tomspunt/F_593.jpg
43.846	0.868	tomspunt	admiring?	why_face	no	no	correct	task-tomspunt/F_110.jpg
45.03	0.735	tomspunt	admiring?	why_face	yes	yes	correct	task-tomspunt/F_590.jpg
46.081	0.946	tomspunt	admiring?	why_face	no	no	correct	task-tomspunt/F_692.jpg
47.331	0.535	tomspunt	admiring?	why_face	yes	yes	correct	task-tomspunt/F_759.jpg
48.181	0.801	tomspunt	admiring?	why_face	yes	yes	correct	task-tomspunt/F_648.jpg
49.298	0.768	tomspunt	admiring?	why_face	no	no	correct	task-tomspunt/F_129.jpg
60.619	0.802	tomspunt	smiling?	how_face	yes	yes	correct	task-tomspunt/F_139.jpg
61.736	0.657	tomspunt	smiling?	how_face	no	no	correct	task-tomspunt/F_712.jpg
62.703	0.985	tomspunt	smiling?	how_face	yes	yes	correct	task-tomspunt/F_695.jpg
64.004	0.772	tomspunt	smiling?	how_face	no	no	correct	task-tomspunt/F_758.jpg
65.088	0.572	tomspunt	smiling?	how_face	yes	yes	correct	task-tomspunt/F_083.jpg
65.971	0.769	tomspunt	smiling?	how_face	yes	yes	correct	task-tomspunt/F_759.jpg
67.055	0.638	tomspunt	smiling?	how_face	no	no	correct	task-tomspunt/F_412.jpg
68.005	0.92	tomspunt	smiling?	how_face	yes	yes	correct	task-tomspunt/F_593.jpg
78.159	1.085	tomspunt	lifting?	how_hand	yes	yes	correct	task-tomspunt/H_136.jpg
79.56	0.735	tomspunt	lifting?	how_hand	no	no	correct	task-tomspunt/H_038.jpg
80.61	1.202	tomspunt	lifting?	how_hand	yes	yes	correct	task-tomspunt/H_189.jpg
82.127	1.115	tomspunt	lifting?	how_hand	no	no	correct	task-tomspunt/H_077.jpg
83.545	1.001	tomspunt	lifting?	how_hand	yes	yes	correct	task-tomspunt/H_443.jpg
84.862	0.785	tomspunt	lifting?	how_hand	no	no	correct	task-tomspunt/H_012.jpg
85.962	0.565	tomspunt	lifting?	how_hand	yes	yes	correct	task-tomspunt/H_362.jpg
86.829	0.735	tomspunt	lifting?	how_hand	yes	yes	correct	task-tomspunt/H_170.jpg
100.634	0.876	tomspunt	helping?	why_hand	yes	yes	correct	task-tomspunt/H_077.jpg
101.818	0.808	tomspunt	helping?	why_hand	yes	yes	correct	task-tomspunt/H_349.jpg
102.935	0.791	tomspunt	helping?	why_hand	yes	yes	correct	task-tomspunt/H_474.jpg
104.036	1.257	tomspunt	helping?	why_hand	yes	yes	correct	task-tomspunt/H_024.jpg
105.603	0.918	tomspunt	helping?	why_hand	no	no	correct	task-tomspunt/H_012.jpg
106.837	1.035	tomspunt	helping?	why_hand	no	no	correct	task-tomspunt/H_159.jpg
108.187	0.823	tomspunt	helping?	why_hand	yes	yes	correct	task-tomspunt/H_111.jpg
109.321	0.889	tomspunt	helping?	why_hand	no	no	correct	task-tomspunt/H_091.jpg
118.508	1.035	tomspunt	proud?	why_face	yes	yes	correct	task-tomspunt/F_598.jpg
119.858	0.735	tomspunt	proud?	why_face	no	no	correct	task-tomspunt/F_760.jpg
120.909	0.769	tomspunt	proud?	why_face	yes	yes	correct	task-tomspunt/F_582.jpg
121.992	0.718	tomspunt	proud?	why_face	no	no	correct	task-tomspunt/F_412.jpg
123.026	0.768	tomspunt	proud?	why_face	yes	yes	correct	task-tomspunt/F_083.jpg
124.11	0.919	tomspunt	proud?	why_face	no	no	correct	task-tomspunt/F_776.jpg
125.344	0.685	tomspunt	proud?	why_face	yes	yes	correct	task-tomspunt/F_618.jpg
126.344	0.935	tomspunt	proud?	why_face	yes	yes	correct	task-tomspunt/F_695.jpg
136.048	1.046	tomspunt	looking to side?	how_face	yes	yes	correct	task-tomspunt/F_590.jpg
137.398	0.945	tomspunt	looking to side?	how_face	yes	yes	correct	task-tomspunt/F_433.jpg
138.648	0.661	tomspunt	looking to side?	how_face	yes	yes	correct	task-tomspunt/F_716.jpg
139.615	0.719	tomspunt	looking to side?	how_face	yes	no	incorrect	task-tomspunt/F_779.jpg
140.649	1.018	tomspunt	looking to side?	how_face	yes	yes	correct	task-tomspunt/F_760.jpg
141.983	1.21	tomspunt	looking to side?	how_face	no	no	correct	task-tomspunt/F_111.jpg
143.5	0.676	tomspunt	looking to side?	how_face	yes	yes	correct	task-tomspunt/F_110.jpg
144.484	1.076	tomspunt	looking to side?	how_face	no	no	correct	task-tomspunt/F_798.jpg
155.155	0.988	tomspunt	argument?	why_face	yes	yes	correct	task-tomspunt/F_716.jpg
156.455	0.737	tomspunt	argument?	why_face	no	no	correct	task-tomspunt/F_139.jpg
157.506	0.687	tomspunt	argument?	why_face	yes	yes	correct	task-tomspunt/F_712.jpg
158.506	0.82	tomspunt	argument?	why_face	no	no	correct	task-tomspunt/F_433.jpg
159.64	0.803	tomspunt	argument?	why_face	yes	yes	correct	task-tomspunt/F_403.jpg
160.757	0.87	tomspunt	argument?	why_face	no	no	correct	task-tomspunt/F_844.jpg
161.941	0.919	tomspunt	argument?	why_face	yes	yes	correct	task-tomspunt/F_743.jpg
163.174	0.836	tomspunt	argument?	why_face	yes	yes	correct	task-tomspunt/F_758.jpg
172.995	0.935	tomspunt	open mouth?	how_face	yes	yes	correct	task-tomspunt/F_844.jpg
174.245	0.818	tomspunt	open mouth?	how_face	yes	yes	correct	task-tomspunt/F_776.jpg
175.379	0.735	tomspunt	open mouth?	how_face	no	no	correct	task-tomspunt/F_544.jpg
176.429	0.531	tomspunt	open mouth?	how_face	yes	yes	correct	task-tomspunt/F_692.jpg
177.263	0.802	tomspunt	open mouth?	how_face	no	no	correct	task-tomspunt/F_584.jpg
178.38	0.552	tomspunt	open mouth?	how_face	yes	yes	correct	task-tomspunt/F_403.jpg
179.247	0.613	tomspunt	open mouth?	how_face	yes	yes	correct	task-tomspunt/F_086.jpg
180.164	0.769	tomspunt	open mouth?	how_face	no	no	correct	task-tomspunt/F_648.jpg
190.885	0.702	tomspunt	pressing button?	how_hand	yes	yes	correct	task-tomspunt/H_019.jpg
191.902	0.885	tomspunt	pressing button?	how_hand	no	no	correct	task-tomspunt/H_024.jpg
193.102	0.807	tomspunt	pressing button?	how_hand	no	no	correct	task-tomspunt/H_130.jpg
194.219	0.657	tomspunt	pressing button?	how_hand	yes	yes	correct	task-tomspunt/H_502.jpg
195.186	0.785	tomspunt	pressing button?	how_hand	no	no	correct	task-tomspunt/H_261.jpg
196.287	0.773	tomspunt	pressing button?	how_hand	yes	yes	correct	task-tomspunt/H_332.jpg
197.37	0.706	tomspunt	pressing button?	how_hand	yes	yes	correct	task-tomspunt/H_126.jpg
198.387	0.856	tomspunt	pressing button?	how_hand	yes	yes	correct	task-tomspunt/H_483.jpg
208.675	1.036	tomspunt	competing?	why_hand	yes	yes	correct	task-tomspunt/H_261.jpg
210.025	1.018	tomspunt	competing?	why_hand	no	no	correct	task-tomspunt/H_483.jpg
211.342	0.818	tomspunt	competing?	why_hand	yes	yes	correct	task-tomspunt/H_132.jpg
212.476	0.968	tomspunt	competing?	why_hand	no	no	correct	task-tomspunt/H_126.jpg
213.76	0.818	tomspunt	competing?	why_hand	yes	yes	correct	task-tomspunt/H_136.jpg
214.894	1.085	tomspunt	competing?	why_hand	no	no	correct	task-tomspunt/H_502.jpg
216.294	0.802	tomspunt	competing?	why_hand	yes	yes	correct	task-tomspunt/H_003.jpg
217.411	0.701	tomspunt	competing?	why_hand	yes	yes	correct	task-tomspunt/H_170.jpg
226.731	0.701	tomspunt	self-doubt?	why_face	yes	yes	correct	task-tomspunt/F_544.jpg
227.748	0.868	tomspunt	self-doubt?	why_face	no	no	correct	task-tomspunt/F_086.jpg
228.932	0.628	tomspunt	self-doubt?	why_face	yes	yes	correct	task-tomspunt/F_798.jpg
229.866	0.744	tomspunt	self-doubt?	why_face	yes	yes	correct	task-tomspunt/F_111.jpg
230.916	0.576	tomspunt	self-doubt?	why_face	no	no	correct	task-tomspunt/F_774.jpg
231.8	0.66	tomspunt	self-doubt?	why_face	yes	yes	correct	task-tomspunt/F_754.jpg
232.767	1.168	tomspunt	self-doubt?	why_face	no	no	correct	task-tomspunt/F_128.jpg
234.251	0.885	tomspunt	self-doubt?	why_face	yes	yes	correct	task-tomspunt/F_584.jpg
245.788	0.754	tomspunt	looking at camera?	how_face	yes	yes	correct	task-tomspunt/F_128.jpg
246.855	0.737	tomspunt	looking at camera?	how_face	yes	yes	correct	task-tomspunt/F_618.jpg
247.906	0.587	tomspunt	looking at camera?	how_face	yes	yes	correct	task-tomspunt/F_598.jpg
248.806	0.618	tomspunt	looking at camera?	how_face	no	no	correct	task-tomspunt/F_743.jpg
249.74	0.587	tomspunt	looking at camera?	how_face	yes	yes	correct	task-tomspunt/F_774.jpg
250.64	1.069	tomspunt	looking at camera?	how_face	no	no	correct	task-tomspunt/F_582.jpg
252.024	1.102	tomspunt	looking at camera?	how_face	no	no	correct	task-tomspunt/F_754.jpg
253.441	0.735	tomspunt	looking at camera?	how_face	yes	yes	correct	task-tomspunt/F_129.jpg
264.579	0.864	tomspunt	both hands?	how_hand	yes	yes	correct	task-tomspunt/H_167.jpg
265.746	0.801	tomspunt	both hands?	how_hand	no	no	correct	task-tomspunt/H_091.jpg
266.863	0.897	tomspunt	both hands?	how_hand	no	no	correct	task-tomspunt/H_627.jpg
268.063	0.918	tomspunt	both hands?	how_hand	yes	yes	correct	task-tomspunt/H_027.jpg
269.297	0.752	tomspunt	both hands?	how_hand	yes	yes	correct	task-tomspunt/H_111.jpg
270.364	0.779	tomspunt	both hands?	how_hand	no	no	correct	task-tomspunt/H_159.jpg
271.448	1.085	tomspunt	both hands?	how_hand	yes	yes	correct	task-tomspunt/H_581.jpg
272.849	0.661	tomspunt	both hands?	how_hand	yes	yes	correct	task-tomspunt/H_349.jpg
283.369	0.841	tomspunt	self-protection?	why_hand	yes	yes	correct	task-tomspunt/H_443.jpg
284.52	0.868	tomspunt	self-protection?	why_hand	no	no	correct	task-tomspunt/H_006.jpg
285.703	1.423	tomspunt	self-protection?	why_hand	no	yes	incorrect	task-tomspunt/H_581.jpg
287.437	1.205	tomspunt	self-protection?	why_hand	no	no	correct	task-tomspunt/H_532.jpg
288.955	0.901	tomspunt	self-protection?	why_hand	yes	yes	correct	task-tomspunt/H_027.jpg
290.172	0.888	tomspunt	self-protection?	why_hand	yes	yes	correct	task-tomspunt/H_038.jpg
291.372	1.018	tomspunt	self-protection?	why_hand	no	no	correct	task-tomspunt/H_332.jpg
292.706	1.153	tomspunt	self-protection?	why_hand	yes	yes	correct	task-tomspunt/H_189.jpg
304.86	0.602	tomspunt	smiling?	how_face	yes	yes	correct	task-tomspunt/F_759.jpg
305.777	0.635	tomspunt	smiling?	how_face	no	no	correct	task-tomspunt/F_412.jpg
306.728	0.718	tomspunt	smiling?	how_face	yes	yes	correct	task-tomspunt/F_593.jpg
307.762	0.581	tomspunt	smiling?	how_face	no	no	correct	task-tomspunt/F_712.jpg
308.645	0.651	tomspunt	smiling?	how_face	yes	yes	correct	task-tomspunt/F_695.jpg
309.612	0.669	tomspunt	smiling?	how_face	yes	yes	correct	task-tomspunt/F_139.jpg
310.596	0.564	tomspunt	smiling?	how_face	yes	yes	correct	task-tomspunt/F_083.jpg
311.463	0.635	tomspunt	smiling?	how_face	no	no	correct	task-tomspunt/F_758.jpg
322.65	0.776	tomspunt	admiring?	why_face	yes	yes	correct	task-tomspunt/F_593.jpg
323.734	1.076	tomspunt	admiring?	why_face	no	no	correct	task-tomspunt/F_129.jpg
325.118	0.618	tomspunt	admiring?	why_face	yes	yes	correct	task-tomspunt/F_759.jpg
326.052	1.075	tomspunt	admiring?	why_face	no	no	correct	task-tomspunt/F_692.jpg
327.436	0.702	tomspunt	admiring?	why_face	yes	yes	correct	task-tomspunt/F_779.jpg
328.453	1.058	tomspunt	admiring?	why_face	yes	yes	correct	task-tomspunt/F_590.jpg
329.82	0.735	tomspunt	admiring?	why_face	yes	yes	correct	task-tomspunt/F_648.jpg
330.87	0.739	tomspunt	admiring?	why_face	no	no	correct	task-tomspunt/F_110.jpg
340.54	0.969	tomspunt	competing?	why_hand	yes	yes	correct	task-tomspunt/H_261.jpg
341.824	0.602	tomspunt	competing?	why_hand	yes	yes	correct	task-tomspunt/H_170.jpg
342.741	0.818	tomspunt	competing?	why_hand	no	no	correct	task-tomspunt/H_483.jpg
343.875	0.885	tomspunt	competing?	why_hand	yes	yes	correct	task-tomspunt/H_132.jpg
345.075	0.734	tomspunt	competing?	why_hand	yes	yes	correct	task-tomspunt/H_136.jpg
346.109	0.751	tomspunt	competing?	why_hand	yes	yes	correct	task-tomspunt/H_003.jpg
347.176	0.835	tomspunt	competing?	why_hand	no	no	correct	task-tomspunt/H_126.jpg
348.327	0.935	tomspunt	competing?	why_hand	no	no	correct	task-tomspunt/H_502.jpg
362.015	0.952	tomspunt	reaching?	how_hand	yes	yes	correct	task-tomspunt/H_003.jpg
363.282	0.685	tomspunt	reaching?	how_hand	yes	yes	correct	task-tomspunt/H_364.jpg
364.283	0.835	tomspunt	reaching?	how_hand	no	no	correct	task-tomspunt/H_532.jpg
365.433	1.018	tomspunt	reaching?	how_hand	yes	yes	correct	task-tomspunt/H_006.jpg
366.767	0.918	tomspunt	reaching?	how_hand	no	no	correct	task-tomspunt/H_438.jpg
368.001	0.725	tomspunt	reaching?	how_hand	yes	yes	correct	task-tomspunt/H_007.jpg
369.034	1.025	tomspunt	reaching?	how_hand	no	yes	incorrect	task-tomspunt/H_474.jpg
370.368	0.985	tomspunt	reaching?	how_hand	no	no	correct	task-tomspunt/H_132.jpg
379.855	0.671	tomspunt	open mouth?	how_face	yes	yes	correct	task-tomspunt/F_403.jpg
380.839	0.554	tomspunt	open mouth?	how_face	no	no	correct	task-tomspunt/F_648.jpg
381.706	0.453	tomspunt	open mouth?	how_face	yes	yes	correct	task-tomspunt/F_776.jpg
382.473	0.603	tomspunt	open mouth?	how_face	no	no	correct	task-tomspunt/F_584.jpg
383.39	0.687	tomspunt	open mouth?	how_face	yes	yes	correct	task-tomspunt/F_844.jpg
384.39	0.62	tomspunt	open mouth?	how_face	yes	yes	correct	task-tomspunt/F_692.jpg
385.324	0.586	tomspunt	open mouth?	how_face	yes	yes	correct	task-tomspunt/F_086.jpg
386.224	0.736	tomspunt	open mouth?	how_face	no	no	correct	task-tomspunt/F_544.jpg
398.529	0.752	tomspunt	argument?	why_face	yes	yes	correct	task-tomspunt/F_403.jpg
399.596	0.719	tomspunt	argument?	why_face	no	no	correct	task-tomspunt/F_844.jpg
400.63	0.852	tomspunt	argument?	why_face	yes	yes	correct	task-tomspunt/F_712.jpg
401.797	0.869	tomspunt	argument?	why_face	yes	yes	correct	task-tomspunt/F_758.jpg
402.98	0.735	tomspunt	argument?	why_face	no	no	correct	task-tomspunt/F_433.jpg
404.031	0.618	tomspunt	argument?	why_face	yes	yes	correct	task-tomspunt/F_716.jpg
404.964	0.862	tomspunt	argument?	why_face	no	no	correct	task-tomspunt/F_139.jpg
406.132	1.145	tomspunt	argument?	why_face	yes	yes	correct	task-tomspunt/F_743.jpg
416.752	1.018	tomspunt	helping?	why_hand	yes	yes	correct	task-tomspunt/H_024.jpg
418.086	0.573	tomspunt	helping?	why_hand	yes	yes	correct	task-tomspunt/H_349.jpg
418.97	0.59	tomspunt	helping?	why_hand	yes	yes	correct	task-tomspunt/H_077.jpg
419.87	0.823	tomspunt	helping?	why_hand	yes	yes	correct	task-tomspunt/H_474.jpg
421.004	0.023	tomspunt	helping?	why_hand	yes	no	incorrect	task-tomspunt/H_091.jpg
421.337	1.406	tomspunt	helping?	why_hand	no	no	correct	task-tomspunt/H_159.jpg
423.055	1.018	tomspunt	helping?	why_hand	yes	yes	correct	task-tomspunt/H_111.jpg
424.388	0.951	tomspunt	helping?	why_hand	no	no	correct	task-tomspunt/H_012.jpg
434.826	0.618	tomspunt	both hands?	how_hand	yes	yes	correct	task-tomspunt/H_111.jpg
435.759	0.802	tomspunt	both hands?	how_hand	yes	yes	correct	task-tomspunt/H_027.jpg
436.876	0.735	tomspunt	both hands?	how_hand	no	no	correct	task-tomspunt/H_091.jpg
437.927	0.749	tomspunt	both hands?	how_hand	yes	yes	correct	task-tomspunt/H_167.jpg
438.977	1.285	tomspunt	both hands?	how_hand	yes	yes	correct	task-tomspunt/H_581.jpg
440.578	0.685	tomspunt	both hands?	how_hand	no	no	correct	task-tomspunt/H_159.jpg
441.578	0.569	tomspunt	both hands?	how_hand	yes	yes	correct	task-tomspunt/H_349.jpg
442.462	0.902	tomspunt	both hands?	how_hand	no	no	correct	task-tomspunt/H_627.jpg
452.332	1.111	tomspunt	healthy?	why_hand	yes	yes	correct	task-tomspunt/H_438.jpg
453.749	1.26	tomspunt	healthy?	why_hand	yes	yes	correct	task-tomspunt/H_364.jpg
455.317	0.868	tomspunt	healthy?	why_hand	yes	yes	correct	task-tomspunt/H_362.jpg
456.5	1.66	tomspunt	healthy?	why_hand	no	no	correct	task-tomspunt/H_019.jpg
458.468	0.675	tomspunt	healthy?	why_hand	yes	yes	correct	task-tomspunt/H_167.jpg
459.451	1.208	tomspunt	healthy?	why_hand	no	no	correct	task-tomspunt/H_007.jpg
460.969	1.052	tomspunt	healthy?	why_hand	yes	yes	correct	task-tomspunt/H_627.jpg
462.336	0.935	tomspunt	healthy?	why_hand	no	no	correct	task-tomspunt/H_130.jpg
471.389	0.97	tomspunt	pressing button?	how_hand	yes	yes	correct	task-tomspunt/H_126.jpg
472.673	0.92	tomspunt	pressing button?	how_hand	no	no	correct	task-tomspunt/H_130.jpg
473.907	1.386	tomspunt	pressing button?	how_hand	yes	yes	correct	task-tomspunt/H_483.jpg
475.607	0.936	tomspunt	pressing button?	how_hand	no	no	correct	task-tomspunt/H_024.jpg
476.858	1.019	tomspunt	pressing button?	how_hand	yes	yes	correct	task-tomspunt/H_332.jpg
478.192	0.951	tomspunt	pressing button?	how_hand	yes	yes	correct	task-tomspunt/H_019.jpg
479.459	0.835	tomspunt	pressing button?	how_hand	no	no	correct	task-tomspunt/H_261.jpg
480.609	0.702	tomspunt	pressing button?	how_hand	yes	yes	correct	task-tomspunt/H_502.jpg
488.912	0.802	tomspunt	looking at camera?	how_face	yes	yes	correct	task-tomspunt/F_618.jpg
490.03	0.719	tomspunt	looking at camera?	how_face	no	no	correct	task-tomspunt/F_754.jpg
491.063	0.568	tomspunt	looking at camera?	how_face	yes	yes	correct	task-tomspunt/F_129.jpg
491.947	0.652	tomspunt	looking at camera?	how_face	yes	yes	correct	task-tomspunt/F_598.jpg
492.914	0.735	tomspunt	looking at camera?	how_face	yes	yes	correct	task-tomspunt/F_128.jpg
493.964	1.318	tomspunt	looking at camera?	how_face	yes	no	incorrect	task-tomspunt/F_582.jpg
495.598	0.868	tomspunt	looking at camera?	how_face	yes	yes	correct	task-tomspunt/F_774.jpg
496.782	0.718	tomspunt	looking at camera?	how_face	no	no	correct	task-tomspunt/F_743.jpg
507.886	0.891	tomspunt	self-doubt?	why_face	yes	yes	correct	task-tomspunt/F_798.jpg
509.087	0.873	tomspunt	self-doubt?	why_face	no	no	correct	task-tomspunt/F_086.jpg
510.27	0.906	tomspunt	self-doubt?	why_face	yes	yes	correct	task-tomspunt/F_544.jpg
511.488	0.605	tomspunt	self-doubt?	why_face	yes	yes	correct	task-tomspunt/F_754.jpg
512.405	0.868	tomspunt	self-doubt?	why_face	yes	yes	correct	task-tomspunt/F_111.jpg
513.588	0.805	tomspunt	self-doubt?	why_face	yes	yes	correct	task-tomspunt/F_584.jpg
514.705	1.054	tomspunt	self-doubt?	why_face	no	no	correct	task-tomspunt/F_128.jpg
516.073	1.554	tomspunt	self-doubt?	why_face	no	no	correct	task-tomspunt/F_774.jpg
525.393	1.569	tomspunt	self-protection?	why_hand	no	yes	incorrect	task-tomspunt/H_581.jpg
527.277	n/a	tomspunt	self-protection?	why_hand	n/a	yes	incorrect	task-tomspunt/H_443.jpg
529.311	1.386	tomspunt	self-protection?	why_hand	no	no	correct	task-tomspunt/H_332.jpg
531.011	0.865	tomspunt	self-protection?	why_hand	yes	yes	correct	task-tomspunt/H_027.jpg
532.179	0.785	tomspunt	self-protection?	why_hand	no	no	correct	task-tomspunt/H_532.jpg
533.279	1.048	tomspunt	self-protection?	why_hand	yes	yes	correct	task-tomspunt/H_189.jpg
534.629	0.851	tomspunt	self-protection?	why_hand	no	no	correct	task-tomspunt/H_006.jpg
535.797	0.985	tomspunt	self-protection?	why_hand	yes	yes	correct	task-tomspunt/H_038.jpg
543.616	1.052	tomspunt	lifting?	how_hand	yes	yes	correct	task-tomspunt/H_443.jpg
544.983	0.943	tomspunt	lifting?	how_hand	no	no	correct	task-tomspunt/H_038.jpg
546.234	0.918	tomspunt	lifting?	how_hand	yes	yes	correct	task-tomspunt/H_136.jpg
547.468	1.259	tomspunt	lifting?	how_hand	no	no	correct	task-tomspunt/H_012.jpg
549.035	0.602	tomspunt	lifting?	how_hand	yes	yes	correct	task-tomspunt/H_362.jpg
549.952	1.069	tomspunt	lifting?	how_hand	yes	yes	correct	task-tomspunt/H_189.jpg
551.336	0.669	tomspunt	lifting?	how_hand	yes	yes	correct	task-tomspunt/H_170.jpg
552.319	1.24	tomspunt	lifting?	how_hand	no	no	correct	task-tomspunt/H_077.jpg
561.49	0.887	tomspunt	looking to side?	how_face	yes	yes	correct	task-tomspunt/F_716.jpg
562.69	0.786	tomspunt	looking to side?	how_face	no	no	correct	task-tomspunt/F_798.jpg
563.79	0.819	tomspunt	looking to side?	how_face	yes	yes	correct	task-tomspunt/F_760.jpg
564.924	0.785	tomspunt	looking to side?	how_face	yes	yes	correct	task-tomspunt/F_110.jpg
566.025	0.835	tomspunt	looking to side?	how_face	yes	no	incorrect	task-tomspunt/F_779.jpg
567.175	1.185	tomspunt	looking to side?	how_face	yes	yes	correct	task-tomspunt/F_590.jpg
568.676	0.885	tomspunt	looking to side?	how_face	no	no	correct	task-tomspunt/F_111.jpg
569.876	0.735	tomspunt	looking to side?	how_face	yes	yes	correct	task-tomspunt/F_433.jpg
583.981	0.868	tomspunt	proud?	why_face	yes	yes	correct	task-tomspunt/F_083.jpg
585.165	0.861	tomspunt	proud?	why_face	yes	yes	correct	task-tomspunt/F_582.jpg
586.332	0.961	tomspunt	proud?	why_face	yes	yes	correct	task-tomspunt/F_618.jpg
587.599	1.561	tomspunt	proud?	why_face	no	no	correct	task-tomspunt/F_776.jpg
589.467	1.135	tomspunt	proud?	why_face	yes	yes	correct	task-tomspunt/F_598.jpg
590.917	0.835	tomspunt	proud?	why_face	no	no	correct	task-tomspunt/F_760.jpg
592.068	1.026	tomspunt	proud?	why_face	no	no	correct	task-tomspunt/F_412.jpg
593.401	0.925	tomspunt	proud?	why_face	yes	yes	correct	task-tomspunt/F_695.jpg
0.071	2.034	tomspunt	reaching?	block_question_presentation	n/a	n/a	n/a	n/a
0.071	0.3	tomspunt	reaching?	block_question_presentation	n/a	n/a	n/a	n/a
17.544	2.101	tomspunt	healthy?	block_question_presentation	n/a	n/a	n/a	n/a
17.544	0.3	tomspunt	healthy?	block_question_presentation	n/a	n/a	n/a	n/a
36.651	2.101	tomspunt	admiring?	block_question_presentation	n/a	n/a	n/a	n/a
36.651	0.3	tomspunt	admiring?	block_question_presentation	n/a	n/a	n/a	n/a
55.609	2.101	tomspunt	smiling?	block_question_presentation	n/a	n/a	n/a	n/a
55.609	0.3	tomspunt	smiling?	block_question_presentation	n/a	n/a	n/a	n/a
73.148	2.101	tomspunt	lifting?	block_question_presentation	n/a	n/a	n/a	n/a
73.148	0.3	tomspunt	lifting?	block_question_presentation	n/a	n/a	n/a	n/a
95.623	2.101	tomspunt	helping?	block_question_presentation	n/a	n/a	n/a	n/a
95.623	0.3	tomspunt	helping?	block_question_presentation	n/a	n/a	n/a	n/a
113.497	2.101	tomspunt	proud?	block_question_presentation	n/a	n/a	n/a	n/a
113.497	0.3	tomspunt	proud?	block_question_presentation	n/a	n/a	n/a	n/a
131.037	2.101	tomspunt	looking to side?	block_question_presentation	n/a	n/a	n/a	n/a
131.037	0.3	tomspunt	looking to side?	block_question_presentation	n/a	n/a	n/a	n/a
150.144	2.101	tomspunt	argument?	block_question_presentation	n/a	n/a	n/a	n/a
150.144	0.3	tomspunt	argument?	block_question_presentation	n/a	n/a	n/a	n/a
167.984	2.101	tomspunt	open mouth?	block_question_presentation	n/a	n/a	n/a	n/a
167.984	0.3	tomspunt	open mouth?	block_question_presentation	n/a	n/a	n/a	n/a
185.874	2.101	tomspunt	pressing button?	block_question_presentation	n/a	n/a	n/a	n/a
185.874	0.3	tomspunt	pressing button?	block_question_presentation	n/a	n/a	n/a	n/a
203.664	2.101	tomspunt	competing?	block_question_presentation	n/a	n/a	n/a	n/a
203.664	0.3	tomspunt	competing?	block_question_presentation	n/a	n/a	n/a	n/a
221.737	2.084	tomspunt	self-doubt?	block_question_presentation	n/a	n/a	n/a	n/a
221.737	0.3	tomspunt	self-doubt?	block_question_presentation	n/a	n/a	n/a	n/a
240.778	2.101	tomspunt	looking at camera?	block_question_presentation	n/a	n/a	n/a	n/a
240.778	0.3	tomspunt	looking at camera?	block_question_presentation	n/a	n/a	n/a	n/a
259.568	2.101	tomspunt	both hands?	block_question_presentation	n/a	n/a	n/a	n/a
259.568	0.3	tomspunt	both hands?	block_question_presentation	n/a	n/a	n/a	n/a
278.358	2.101	tomspunt	self-protection?	block_question_presentation	n/a	n/a	n/a	n/a
278.358	0.3	tomspunt	self-protection?	block_question_presentation	n/a	n/a	n/a	n/a
299.85	2.101	tomspunt	smiling?	block_question_presentation	n/a	n/a	n/a	n/a
299.85	0.3	tomspunt	smiling?	block_question_presentation	n/a	n/a	n/a	n/a
317.64	2.101	tomspunt	admiring?	block_question_presentation	n/a	n/a	n/a	n/a
317.64	0.3	tomspunt	admiring?	block_question_presentation	n/a	n/a	n/a	n/a
335.53	2.101	tomspunt	competing?	block_question_presentation	n/a	n/a	n/a	n/a
335.53	0.3	tomspunt	competing?	block_question_presentation	n/a	n/a	n/a	n/a
357.004	2.101	tomspunt	reaching?	block_question_presentation	n/a	n/a	n/a	n/a
357.004	0.3	tomspunt	reaching?	block_question_presentation	n/a	n/a	n/a	n/a
374.844	2.101	tomspunt	open mouth?	block_question_presentation	n/a	n/a	n/a	n/a
374.844	0.3	tomspunt	open mouth?	block_question_presentation	n/a	n/a	n/a	n/a
393.518	2.101	tomspunt	argument?	block_question_presentation	n/a	n/a	n/a	n/a
393.518	0.3	tomspunt	argument?	block_question_presentation	n/a	n/a	n/a	n/a
411.741	2.101	tomspunt	helping?	block_question_presentation	n/a	n/a	n/a	n/a
411.741	0.3	tomspunt	helping?	block_question_presentation	n/a	n/a	n/a	n/a
429.815	2.101	tomspunt	both hands?	block_question_presentation	n/a	n/a	n/a	n/a
429.815	0.3	tomspunt	both hands?	block_question_presentation	n/a	n/a	n/a	n/a
447.321	2.101	tomspunt	healthy?	block_question_presentation	n/a	n/a	n/a	n/a
447.321	0.3	tomspunt	healthy?	block_question_presentation	n/a	n/a	n/a	n/a
466.378	2.101	tomspunt	pressing button?	block_question_presentation	n/a	n/a	n/a	n/a
466.378	0.3	tomspunt	pressing button?	block_question_presentation	n/a	n/a	n/a	n/a
483.918	2.084	tomspunt	looking at camera?	block_question_presentation	n/a	n/a	n/a	n/a
483.918	0.3	tomspunt	looking at camera?	block_question_presentation	n/a	n/a	n/a	n/a
502.875	2.101	tomspunt	self-doubt?	block_question_presentation	n/a	n/a	n/a	n/a
502.875	0.3	tomspunt	self-doubt?	block_question_presentation	n/a	n/a	n/a	n/a
520.399	2.084	tomspunt	self-protection?	block_question_presentation	n/a	n/a	n/a	n/a
520.399	0.3	tomspunt	self-protection?	block_question_presentation	n/a	n/a	n/a	n/a
538.605	2.101	tomspunt	lifting?	block_question_presentation	n/a	n/a	n/a	n/a
538.605	0.3	tomspunt	lifting?	block_question_presentation	n/a	n/a	n/a	n/a
556.479	2.101	tomspunt	looking to side?	block_question_presentation	n/a	n/a	n/a	n/a
556.479	0.3	tomspunt	looking to side?	block_question_presentation	n/a	n/a	n/a	n/a
578.97	2.101	tomspunt	proud?	block_question_presentation	n/a	n/a	n/a	n/a
578.97	0.3	tomspunt	proud?	block_question_presentation	n/a	n/a	n/a	n/a
