onset	duration	subtask_type	event_type	response_accuracy	cue_location	target_location	button_press	trial_index
6.85850381851196	0.2	posner	invalid_cue	correct	right	n/a	n/a	1
7.07525181770325	0.554673194885254	posner	target_response	correct	right	left	left	1
10.2931187152863	0.2	posner	invalid_cue	correct	left	n/a	n/a	2
10.4931933879852	0.495569705963135	posner	target_response	correct	left	right	right	2
13.6777131557465	0.2	posner	invalid_cue	correct	right	n/a	n/a	3
13.8777892589569	0.648780822753906	posner	target_response	correct	right	left	left	3
17.2623836994171	0.2	posner	valid_cue	correct	right	n/a	n/a	4
17.4624593257904	0.582778692245483	posner	target_response	correct	right	right	right	4
20.9304182529449	0.2	posner	valid_cue	correct	right	n/a	n/a	5
21.1304938793182	0.461860179901123	posner	target_response	correct	right	right	right	5
28.9167311191559	0.2	posner	valid_cue	correct	right	n/a	n/a	6
29.1168050765991	0.536679029464722	posner	target_response	correct	right	right	right	6
36.7863318920135	0.2	posner	valid_cue	correct	right	n/a	n/a	7
36.9864060878754	0.472259998321533	posner	target_response	correct	right	right	right	7
42.054963350296	0.2	posner	valid_cue	correct	left	n/a	n/a	8
42.2550375461578	0.518516540527344	posner	target_response	correct	left	left	left	8
48.6240792274475	0.2	posner	valid_cue	correct	left	n/a	n/a	9
48.8241550922394	0.428391933441162	posner	target_response	correct	left	left	left	9
56.0935318470001	0.2	posner	invalid_cue	correct	right	n/a	n/a	10
56.2936060428619	0.573917865753174	posner	target_response	correct	right	left	left	10
63.4629471302032	0.2	posner	valid_cue	correct	right	n/a	n/a	11
63.6630215644836	0.433928489685059	posner	target_response	correct	right	right	right	11
66.9309067726135	0.2	posner	invalid_cue	correct	left	n/a	n/a	12
67.1309809684753	0.527184009552002	posner	target_response	correct	left	right	right	12
70.3988671302795	0.2	posner	invalid_cue	correct	left	n/a	n/a	13
70.5989410877228	0.504278898239136	posner	target_response	correct	left	right	right	13
73.4666767120361	0.2	posner	valid_cue	correct	right	n/a	n/a	14
73.6667523384094	0.606396675109863	posner	target_response	correct	right	right	right	14
80.9361302852631	0.2	posner	valid_cue	correct	left	n/a	n/a	15
81.1362047195435	0.474907159805298	posner	target_response	correct	left	left	left	15
84.3040518760681	0.2	posner	valid_cue	correct	left	n/a	n/a	16
84.5041272640228	0.482849836349487	posner	target_response	correct	left	left	left	16
88.472273349762	0.2	posner	invalid_cue	correct	right	n/a	n/a	17
88.6723482608795	0.518244743347168	posner	target_response	correct	right	left	left	17
91.5400836467743	0.2	posner	valid_cue	correct	right	n/a	n/a	18
91.7401585578918	0.598390340805054	posner	target_response	correct	right	right	right	18
94.5078575611115	0.2	posner	invalid_cue	correct	left	n/a	n/a	19
94.7079322338104	0.522262811660767	posner	target_response	correct	left	right	right	19
99.4763765335083	0.2	posner	invalid_cue	correct	right	n/a	n/a	20
99.6764516830444	0.595684289932251	posner	target_response	correct	right	left	left	20
102.844299793243	0.2	posner	invalid_cue	correct	left	n/a	n/a	21
103.044373512268	0.616328477859497	posner	target_response	correct	left	right	right	21
106.212221860886	0.2	posner	invalid_cue	correct	right	n/a	n/a	22
106.412296772003	0.473564147949219	posner	target_response	correct	right	left	left	22
109.780219554901	0.2	posner	valid_cue	correct	left	n/a	n/a	23
109.980293750763	0.53428316116333	posner	target_response	correct	left	left	left	23
117.249671936035	0.2	posner	valid_cue	correct	right	n/a	n/a	24
117.449747085571	0.586368799209595	posner	target_response	correct	right	right	right	24
120.617594003677	0.2	posner	valid_cue	correct	right	n/a	n/a	25
120.817669391632	0.48084568977356	posner	target_response	correct	right	right	right	25
128.087046861649	0.2	posner	invalid_cue	correct	right	n/a	n/a	26
128.28712105751	0.494249820709229	posner	target_response	correct	right	left	left	26
132.255267620087	0.2	posner	valid_cue	correct	left	n/a	n/a	27
132.455342054367	0.560458898544312	posner	target_response	correct	left	left	left	27
135.923301458359	0.2	posner	valid_cue	correct	right	n/a	n/a	28
136.123376607895	0.476601362228394	posner	target_response	correct	right	right	right	28
144.393126726151	0.2	posner	valid_cue	correct	left	n/a	n/a	29
144.593201875687	0.421539068222046	posner	target_response	correct	left	left	left	29
151.862580537796	0.2	posner	valid_cue	correct	right	n/a	n/a	30
152.062653779984	0.535674095153809	posner	target_response	correct	right	right	right	30
156.631024837494	0.2	posner	valid_cue	correct	right	n/a	n/a	31
156.831099271774	0.509793758392334	posner	target_response	correct	right	right	right	31
159.898909807205	0.2	posner	valid_cue	correct	right	n/a	n/a	32
160.098984718323	0.444655179977417	posner	target_response	correct	right	right	right	32
163.166794776917	0.2	posner	valid_cue	correct	right	n/a	n/a	33
163.366869449615	0.417776584625244	posner	target_response	correct	right	right	right	33
166.134568452835	0.2	posner	valid_cue	correct	left	n/a	n/a	34
166.334642648697	0.439159393310547	posner	target_response	correct	left	left	left	34
170.202753067017	0.2	posner	valid_cue	correct	right	n/a	n/a	35
170.402826547623	0.419860363006592	posner	target_response	correct	right	right	right	35
174.270935535431	0.2	posner	valid_cue	correct	left	n/a	n/a	36
174.471010684967	0.452567338943481	posner	target_response	correct	left	left	left	36
178.839306354523	0.2	posner	valid_cue	correct	left	n/a	n/a	37
179.039380550385	0.596441507339478	posner	target_response	correct	left	left	left	37
186.308759212494	0.2	posner	invalid_cue	correct	left	n/a	n/a	38
186.5088326931	0.584338188171387	posner	target_response	correct	left	right	right	38
193.378061056137	0.2	posner	valid_cue	correct	left	n/a	n/a	39
193.578137397766	0.525487661361694	posner	target_response	correct	left	left	left	39
197.346207618713	0.2	posner	valid_cue	correct	left	n/a	n/a	40
197.546283006668	0.522027015686035	posner	target_response	correct	left	left	left	40
200.313981533051	0.2	posner	valid_cue	correct	left	n/a	n/a	41
200.514055728912	0.525504350662231	posner	target_response	correct	left	left	left	41
205.782687902451	0.2	posner	valid_cue	correct	left	n/a	n/a	42
205.982762098312	0.494951963424683	posner	target_response	correct	left	left	left	42
213.252139568329	0.2	posner	valid_cue	correct	left	n/a	n/a	43
213.452214241028	0.417460680007935	posner	target_response	correct	left	left	left	43
216.520024776459	0.2	posner	invalid_cue	correct	right	n/a	n/a	44
216.720099687576	0.541449308395386	posner	target_response	correct	right	left	left	44
224.489664316177	0.2	posner	invalid_cue	correct	left	n/a	n/a	45
224.689738512039	0.593367576599121	posner	target_response	correct	left	right	right	45
231.959115743637	0.2	posner	valid_cue	correct	left	n/a	n/a	46
232.159189224243	0.457439661026001	posner	target_response	correct	left	left	left	46
235.026926279068	0.2	posner	valid_cue	correct	left	n/a	n/a	47
235.227000713348	0.50488018989563	posner	target_response	correct	left	left	left	47
238.194774627686	0.2	posner	invalid_cue	correct	right	n/a	n/a	48
238.394849777222	0.537792205810547	posner	target_response	correct	right	left	left	48
241.762772321701	0.2	posner	invalid_cue	correct	right	n/a	n/a	49
241.962846517563	0.630784511566162	posner	target_response	correct	right	left	left	49
247.031403064728	0.2	posner	valid_cue	correct	right	n/a	n/a	50
247.231478214264	0.472510814666748	posner	target_response	correct	right	right	right	50
253.300407409668	0.2	posner	valid_cue	correct	right	n/a	n/a	51
253.500482797623	0.55739426612854	posner	target_response	correct	right	right	right	51
260.769860029221	0.2	posner	invalid_cue	correct	left	n/a	n/a	52
260.96993470192	0.658006191253662	posner	target_response	correct	left	right	right	52
265.338230609894	0.2	posner	invalid_cue	correct	left	n/a	n/a	53
265.538305044174	0.621737957000732	posner	target_response	correct	left	right	right	53
269.306376457214	0.2	posner	invalid_cue	correct	left	n/a	n/a	54
269.506451368332	0.649513721466064	posner	target_response	correct	left	right	right	54
276.775829076767	0.2	posner	valid_cue	correct	right	n/a	n/a	55
276.975903987885	0.59955096244812	posner	target_response	correct	right	right	right	55
281.344198703766	0.2	posner	invalid_cue	correct	right	n/a	n/a	56
281.544274330139	0.67756462097168	posner	target_response	correct	right	left	left	56
286.812905788422	0.2	posner	invalid_cue	correct	left	n/a	n/a	57
287.012979745865	0.703541278839111	posner	target_response	correct	left	right	right	57
292.781798124313	0.2	posner	invalid_cue	correct	right	n/a	n/a	58
292.981872797012	0.46268630027771	posner	target_response	correct	right	left	left	58
296.04968380928	0.2	posner	invalid_cue	correct	right	n/a	n/a	59
296.249757766724	0.607834339141846	posner	target_response	correct	right	left	left	59
301.218277692795	0.2	posner	valid_cue	correct	left	n/a	n/a	60
301.418351650238	0.452185392379761	posner	target_response	correct	left	left	left	60
305.88668513298	0.2	posner	valid_cue	correct	left	n/a	n/a	61
306.086759567261	0.4784095287323	posner	target_response	correct	left	left	left	61
311.355390787125	0.2	posner	valid_cue	correct	right	n/a	n/a	62
311.555465698242	0.524245262145996	posner	target_response	correct	right	right	right	62
314.423202037811	0.2	posner	valid_cue	correct	right	n/a	n/a	63
314.62327671051	0.551956176757812	posner	target_response	correct	right	right	right	63
320.492131471634	0.2	posner	valid_cue	correct	left	n/a	n/a	64
320.69220662117	0.680182456970215	posner	target_response	correct	left	left	left	64
326.861174345016	0.2	posner	invalid_cue	correct	right	n/a	n/a	65
327.061248064041	0.525210857391357	posner	target_response	correct	right	left	left	65
330.229095697403	0.2	posner	valid_cue	correct	right	n/a	n/a	66
330.429171562195	0.53903341293335	posner	target_response	correct	right	right	right	66
333.196869850159	0.2	posner	valid_cue	correct	right	n/a	n/a	67
333.396943807602	0.563079118728638	posner	target_response	correct	right	right	right	67
336.264681100845	0.2	posner	invalid_cue	correct	right	n/a	n/a	68
336.464754581451	0.525554418563843	posner	target_response	correct	right	left	left	68
341.433274507523	0.2	posner	valid_cue	correct	left	n/a	n/a	69
341.633349895477	0.542277097702026	posner	target_response	correct	left	left	left	69
344.401047945023	0.2	posner	valid_cue	correct	left	n/a	n/a	70
344.601123094559	0.522828817367554	posner	target_response	correct	left	left	left	70
351.870500564575	0.2	posner	invalid_cue	correct	left	n/a	n/a	71
352.070574760437	0.614018201828003	posner	target_response	correct	left	right	right	71
359.339952945709	0.2	posner	valid_cue	correct	left	n/a	n/a	72
359.540026903152	0.466997146606445	posner	target_response	correct	left	left	left	72
362.707875013351	0.2	posner	valid_cue	correct	right	n/a	n/a	73
362.907950162888	0.546608924865723	posner	target_response	correct	right	right	right	73
365.87572312355	0.2	posner	invalid_cue	correct	right	n/a	n/a	74
366.075797557831	0.510198354721069	posner	target_response	correct	right	left	left	74
370.344055891037	0.2	posner	valid_cue	correct	left	n/a	n/a	75
370.54413151741	0.514384508132935	posner	target_response	correct	left	left	left	75
377.813508033752	0.2	posner	valid_cue	correct	left	n/a	n/a	76
378.013582468033	0.506467580795288	posner	target_response	correct	left	left	left	76
381.881692171097	0.2	posner	invalid_cue	correct	left	n/a	n/a	77
382.081766366959	0.565047740936279	posner	target_response	correct	left	right	right	77
389.351144075394	0.2	posner	valid_cue	correct	right	n/a	n/a	78
389.551217794418	0.483687162399292	posner	target_response	correct	right	right	right	78
396.420447587967	0.2	posner	invalid_cue	correct	left	n/a	n/a	79
396.620522022247	0.517881870269775	posner	target_response	correct	left	right	right	79
403.889898300171	0.2	posner	valid_cue	correct	right	n/a	n/a	80
404.089973688126	0.494668245315552	posner	target_response	correct	right	right	right	80
407.85804605484	0.2	posner	valid_cue	correct	right	n/a	n/a	81
408.058120965958	0.585482120513916	posner	target_response	correct	right	right	right	81
415.3274974823	0.2	posner	invalid_cue	correct	right	n/a	n/a	82
415.527572870255	0.578191041946411	posner	target_response	correct	right	left	left	82
419.395682096481	0.2	posner	valid_cue	correct	right	n/a	n/a	83
419.595757007599	0.527004957199097	posner	target_response	correct	right	right	right	83
422.463492870331	0.2	posner	invalid_cue	correct	right	n/a	n/a	84
422.663567066193	0.519882917404175	posner	target_response	correct	right	left	left	84
426.43163895607	0.2	posner	valid_cue	correct	right	n/a	n/a	85
426.63171339035	0.404954671859741	posner	target_response	correct	right	right	right	85
430.899971961975	0.2	posner	invalid_cue	correct	left	n/a	n/a	86
431.100047111511	0.555011987686157	posner	target_response	correct	left	right	right	86
433.867746353149	0.2	posner	valid_cue	correct	left	n/a	n/a	87
434.067819595337	0.477887392044067	posner	target_response	correct	left	left	left	87
438.43611574173	0.2	posner	valid_cue	correct	left	n/a	n/a	88
438.636189937592	0.446669101715088	posner	target_response	correct	left	left	left	88
441.503927230835	0.2	posner	invalid_cue	correct	left	n/a	n/a	89
441.704000711441	0.669609308242798	posner	target_response	correct	left	right	right	89
450.573975563049	0.2	posner	invalid_cue	correct	left	n/a	n/a	90
450.7740483284	0.575215578079224	posner	target_response	correct	left	right	right	90
456.242757081985	0.2	posner	invalid_cue	correct	right	n/a	n/a	91
456.44283080101	0.498838186264038	posner	target_response	correct	right	left	left	91
460.511014461517	0.2	posner	invalid_cue	correct	left	n/a	n/a	92
460.711089372635	0.491923570632935	posner	target_response	correct	left	right	right	92
467.880429506302	0.2	posner	valid_cue	correct	right	n/a	n/a	93
468.080503702164	0.473124265670776	posner	target_response	correct	right	right	right	93
474.249471902847	0.2	posner	invalid_cue	correct	left	n/a	n/a	94
474.449545860291	0.588142156600952	posner	target_response	correct	left	right	right	94
478.217617988586	0.2	posner	invalid_cue	correct	right	n/a	n/a	95
478.417692899704	0.610870122909546	posner	target_response	correct	right	left	left	95
482.886025667191	0.2	posner	valid_cue	correct	right	n/a	n/a	96
483.086101055145	0.682487010955811	posner	target_response	correct	right	right	right	96
485.853798866272	0.2	posner	invalid_cue	correct	right	n/a	n/a	97
486.053874015808	0.593321084976196	posner	target_response	correct	right	left	left	97
488.821572303772	0.2	posner	invalid_cue	correct	right	n/a	n/a	98
489.021646976471	0.583549022674561	posner	target_response	correct	right	left	left	98
491.889382839203	0.2	posner	valid_cue	correct	left	n/a	n/a	99
492.08945775032	0.512094259262085	posner	target_response	correct	left	left	left	99
499.358835697174	0.2	posner	invalid_cue	correct	left	n/a	n/a	100
499.558910131454	0.547207832336426	posner	target_response	correct	left	right	right	100
502.626720666885	0.2	posner	invalid_cue	correct	left	n/a	n/a	101
502.826795816422	0.670012235641479	posner	target_response	correct	left	right	right	101
506.094680547714	0.2	posner	invalid_cue	correct	left	n/a	n/a	102
506.294754743576	0.477014303207397	posner	target_response	correct	left	right	right	102
509.362565755844	0.2	posner	valid_cue	correct	right	n/a	n/a	103
509.56264090538	0.637454032897949	posner	target_response	correct	right	right	right	103
512.630452156067	0.2	posner	invalid_cue	correct	right	n/a	n/a	104
512.830526351929	0.62078070640564	posner	target_response	correct	right	left	left	104
516.798671483994	0.2	posner	invalid_cue	correct	left	n/a	n/a	105
516.998747110367	0.505054950714111	posner	target_response	correct	left	right	right	105
521.267004489899	0.2	posner	invalid_cue	correct	right	n/a	n/a	106
521.467080116272	0.445105791091919	posner	target_response	correct	right	left	left	106
526.735710859299	0.2	posner	valid_cue	correct	left	n/a	n/a	107
526.935785770416	0.392322301864624	posner	target_response	correct	left	left	left	107
534.205163955688	0.2	posner	invalid_cue	correct	left	n/a	n/a	108
534.405237913132	0.578620195388794	posner	target_response	correct	left	right	right	108
541.674615621567	0.2	posner	invalid_cue	correct	right	n/a	n/a	109
541.874690055847	0.508172988891602	posner	target_response	correct	right	left	left	109
545.842836856842	0.2	posner	invalid_cue	correct	right	n/a	n/a	110
546.04291176796	0.522706270217896	posner	target_response	correct	right	left	left	110
551.611654996872	0.2	posner	valid_cue	correct	left	n/a	n/a	111
551.811728239059	0.49885368347168	posner	target_response	correct	left	left	left	111
556.580174922943	0.2	posner	valid_cue	correct	left	n/a	n/a	112
556.780248880386	0.380409002304077	posner	target_response	correct	left	left	left	112
559.948097229004	0.2	posner	invalid_cue	correct	right	n/a	n/a	113
560.148172616959	0.61761736869812	posner	target_response	correct	right	left	left	113
564.116317749023	0.2	posner	valid_cue	correct	right	n/a	n/a	114
564.316392421722	0.51030445098877	posner	target_response	correct	right	right	right	114
571.585769891739	0.2	posner	invalid_cue	correct	left	n/a	n/a	115
571.785845041275	0.552353858947754	posner	target_response	correct	left	right	right	115
576.854400157928	0.2	posner	valid_cue	correct	left	n/a	n/a	116
577.054475784302	0.523588180541992	posner	target_response	correct	left	left	left	116
580.322361946106	0.2	posner	invalid_cue	correct	left	n/a	n/a	117
580.522436141968	0.517302751541138	posner	target_response	correct	left	right	right	117
585.991142749786	0.2	posner	valid_cue	correct	right	n/a	n/a	118
586.191216468811	0.464372634887695	posner	target_response	correct	right	right	right	118
593.460595369339	0.2	posner	invalid_cue	correct	left	n/a	n/a	119
593.660668849945	0.670553207397461	posner	target_response	correct	left	right	right	119
599.229412555695	0.2	posner	valid_cue	correct	left	n/a	n/a	120
599.429486513138	0.441191434860229	posner	target_response	correct	left	left	left	120
