onset	duration	run_type	trial_type	trial_index	cue	stimulusintensity	rating_value	rating_glmslabel	rating_value_fillna	rating_glmslabel_fillna	rating_mouseonset	rating_mousedur	stim_file	pain_onset_ttl1	pain_onset_ttl2	pain_onset_ttl3	pain_onset_ttl4	pain_stimulus_delivery_success	cognitive_correct_response	cognitive_participant_response	cognitive_response_accuracy
9.8	0.98	cognitive	cue	1	high_cue	n/a	n/a	n/a	n/a	n/a	n/a	n/a	task-social/cue/runtype-cognitive/sch/h051.png	n/a	n/a	n/a	n/a	n/a	n/a	n/a	n/a
12.5	1.33	cognitive	expectrating	1	high_cue	n/a	7.15	Weak	7.15	Weak	0.28	1.05	task-social/cue/runtype-cognitive/sch/h051.png	n/a	n/a	n/a	n/a	n/a	n/a	n/a	n/a
24.21	5.0	cognitive	stimulus	1	high_cue	med_stim	n/a	n/a	n/a	n/a	n/a	n/a	task-social/stim/runtype-cognitive/14_100.jpg	n/a	n/a	n/a	n/a	n/a	same	same	True
32.99	1.93	cognitive	outcomerating	1	high_cue	med_stim	56.18	Strong	56.18	Strong	0.28	1.05	task-social/outcomerating/task-cognitive_scale.png	n/a	n/a	n/a	n/a	n/a	n/a	n/a	n/a
41.5	0.99	cognitive	cue	2	high_cue	n/a	n/a	n/a	n/a	n/a	n/a	n/a	task-social/cue/runtype-cognitive/sch/h023.png	n/a	n/a	n/a	n/a	n/a	n/a	n/a	n/a
43.0	1.89	cognitive	expectrating	2	high_cue	n/a	17.41	Moderate	17.41	Moderate	0.33	1.56	task-social/cue/runtype-cognitive/sch/h023.png	n/a	n/a	n/a	n/a	n/a	n/a	n/a	n/a
51.1	5.0	cognitive	stimulus	2	high_cue	high_stim	n/a	n/a	n/a	n/a	n/a	n/a	task-social/stim/runtype-cognitive/28_150.jpg	n/a	n/a	n/a	n/a	n/a	same	same	True
59.5	3.18	cognitive	outcomerating	2	high_cue	high_stim	21.5	Moderate	21.5	Moderate	0.33	1.56	task-social/outcomerating/task-cognitive_scale.png	n/a	n/a	n/a	n/a	n/a	n/a	n/a	n/a
67.39	0.99	cognitive	cue	3	low_cue	n/a	n/a	n/a	n/a	n/a	n/a	n/a	task-social/cue/runtype-cognitive/scl/l013.png	n/a	n/a	n/a	n/a	n/a	n/a	n/a	n/a
69.49	2.02	cognitive	expectrating	3	low_cue	n/a	0.0	n/a	0.0	n/a	0.05	1.97	task-social/cue/runtype-cognitive/scl/l013.png	n/a	n/a	n/a	n/a	n/a	n/a	n/a	n/a
77.69	5.0	cognitive	stimulus	3	low_cue	high_stim	n/a	n/a	n/a	n/a	n/a	n/a	task-social/stim/runtype-cognitive/28_150_R.jpg	n/a	n/a	n/a	n/a	n/a	diff	diff	True
87.5	2.24	cognitive	outcomerating	3	low_cue	high_stim	27.08	Moderate	27.08	Moderate	0.05	1.97	task-social/outcomerating/task-cognitive_scale.png	n/a	n/a	n/a	n/a	n/a	n/a	n/a	n/a
96.8	0.98	cognitive	cue	4	high_cue	n/a	n/a	n/a	n/a	n/a	n/a	n/a	task-social/cue/runtype-cognitive/sch/h006.png	n/a	n/a	n/a	n/a	n/a	n/a	n/a	n/a
100.7	2.4	cognitive	expectrating	4	high_cue	n/a	31.81	Strong	31.81	Strong	0.92	1.48	task-social/cue/runtype-cognitive/sch/h006.png	n/a	n/a	n/a	n/a	n/a	n/a	n/a	n/a
110.91	5.0	cognitive	stimulus	4	high_cue	low_stim	n/a	n/a	n/a	n/a	n/a	n/a	task-social/stim/runtype-cognitive/44_50_R.jpg	n/a	n/a	n/a	n/a	n/a	diff	diff	True
119.31	n/a	cognitive	outcomerating	4	high_cue	low_stim	n/a	n/a	33.69	Strong	0.92	1.48	task-social/outcomerating/task-cognitive_scale.png	n/a	n/a	n/a	n/a	n/a	n/a	n/a	n/a
128.4	0.99	cognitive	cue	5	high_cue	n/a	n/a	n/a	n/a	n/a	n/a	n/a	task-social/cue/runtype-cognitive/sch/h003.png	n/a	n/a	n/a	n/a	n/a	n/a	n/a	n/a
132.3	1.27	cognitive	expectrating	5	high_cue	n/a	18.51	Moderate	18.51	Moderate	0.05	1.22	task-social/cue/runtype-cognitive/sch/h003.png	n/a	n/a	n/a	n/a	n/a	n/a	n/a	n/a
147.0	5.0	cognitive	stimulus	5	high_cue	med_stim	n/a	n/a	n/a	n/a	n/a	n/a	task-social/stim/runtype-cognitive/27_100.jpg	n/a	n/a	n/a	n/a	n/a	same	same	True
156.81	3.08	cognitive	outcomerating	5	high_cue	med_stim	22.23	Moderate	22.23	Moderate	0.05	1.22	task-social/outcomerating/task-cognitive_scale.png	n/a	n/a	n/a	n/a	n/a	n/a	n/a	n/a
171.0	0.99	cognitive	cue	6	low_cue	n/a	n/a	n/a	n/a	n/a	n/a	n/a	task-social/cue/runtype-cognitive/scl/l012.png	n/a	n/a	n/a	n/a	n/a	n/a	n/a	n/a
174.9	2.51	cognitive	expectrating	6	low_cue	n/a	15.88	Moderate	15.88	Moderate	0.72	1.79	task-social/cue/runtype-cognitive/scl/l012.png	n/a	n/a	n/a	n/a	n/a	n/a	n/a	n/a
181.8	5.0	cognitive	stimulus	6	low_cue	low_stim	n/a	n/a	n/a	n/a	n/a	n/a	task-social/stim/runtype-cognitive/22_50_R.jpg	n/a	n/a	n/a	n/a	n/a	diff	diff	True
191.7	1.68	cognitive	outcomerating	6	low_cue	low_stim	30.69	Strong	30.69	Strong	0.72	1.79	task-social/outcomerating/task-cognitive_scale.png	n/a	n/a	n/a	n/a	n/a	n/a	n/a	n/a
198.29	0.99	cognitive	cue	7	low_cue	n/a	n/a	n/a	n/a	n/a	n/a	n/a	task-social/cue/runtype-cognitive/scl/l055.png	n/a	n/a	n/a	n/a	n/a	n/a	n/a	n/a
199.81	2.37	cognitive	expectrating	7	low_cue	n/a	2.99	Barely-detectable	2.99	Barely-detectable	0.15	2.22	task-social/cue/runtype-cognitive/scl/l055.png	n/a	n/a	n/a	n/a	n/a	n/a	n/a	n/a
210.09	5.0	cognitive	stimulus	7	low_cue	med_stim	n/a	n/a	n/a	n/a	n/a	n/a	task-social/stim/runtype-cognitive/27_100_R.jpg	n/a	n/a	n/a	n/a	n/a	diff	diff	True
228.9	2.74	cognitive	outcomerating	7	low_cue	med_stim	11.08	Moderate	11.08	Moderate	0.15	2.22	task-social/outcomerating/task-cognitive_scale.png	n/a	n/a	n/a	n/a	n/a	n/a	n/a	n/a
234.9	0.98	cognitive	cue	8	low_cue	n/a	n/a	n/a	n/a	n/a	n/a	n/a	task-social/cue/runtype-cognitive/scl/l005.png	n/a	n/a	n/a	n/a	n/a	n/a	n/a	n/a
237.0	1.27	cognitive	expectrating	8	low_cue	n/a	0.0	n/a	0.0	n/a	0.35	0.92	task-social/cue/runtype-cognitive/scl/l005.png	n/a	n/a	n/a	n/a	n/a	n/a	n/a	n/a
246.29	5.0	cognitive	stimulus	8	low_cue	med_stim	n/a	n/a	n/a	n/a	n/a	n/a	task-social/stim/runtype-cognitive/28_100_R.jpg	n/a	n/a	n/a	n/a	n/a	diff	diff	True
256.19	2.62	cognitive	outcomerating	8	low_cue	med_stim	2.07	Barely-detectable	2.07	Barely-detectable	0.35	0.92	task-social/outcomerating/task-cognitive_scale.png	n/a	n/a	n/a	n/a	n/a	n/a	n/a	n/a
262.2	0.99	cognitive	cue	9	high_cue	n/a	n/a	n/a	n/a	n/a	n/a	n/a	task-social/cue/runtype-cognitive/sch/h040.png	n/a	n/a	n/a	n/a	n/a	n/a	n/a	n/a
264.9	1.66	cognitive	expectrating	9	high_cue	n/a	14.48	Moderate	14.48	Moderate	0.4	1.26	task-social/cue/runtype-cognitive/sch/h040.png	n/a	n/a	n/a	n/a	n/a	n/a	n/a	n/a
274.2	5.0	cognitive	stimulus	9	high_cue	high_stim	n/a	n/a	n/a	n/a	n/a	n/a	task-social/stim/runtype-cognitive/26_150.jpg	n/a	n/a	n/a	n/a	n/a	same	same	True
285.8	2.12	cognitive	outcomerating	9	high_cue	high_stim	29.1	Strong	29.1	Strong	0.4	1.26	task-social/outcomerating/task-cognitive_scale.png	n/a	n/a	n/a	n/a	n/a	n/a	n/a	n/a
291.09	0.99	cognitive	cue	10	low_cue	n/a	n/a	n/a	n/a	n/a	n/a	n/a	task-social/cue/runtype-cognitive/scl/l019.png	n/a	n/a	n/a	n/a	n/a	n/a	n/a	n/a
293.29	1.27	cognitive	expectrating	10	low_cue	n/a	2.09	Barely-detectable	2.09	Barely-detectable	0.05	1.22	task-social/cue/runtype-cognitive/scl/l019.png	n/a	n/a	n/a	n/a	n/a	n/a	n/a	n/a
308.0	5.0	cognitive	stimulus	10	low_cue	low_stim	n/a	n/a	n/a	n/a	n/a	n/a	task-social/stim/runtype-cognitive/27_50_R.jpg	n/a	n/a	n/a	n/a	n/a	diff	diff	True
323.0	3.68	cognitive	outcomerating	10	low_cue	low_stim	14.87	Moderate	14.87	Moderate	0.05	1.22	task-social/outcomerating/task-cognitive_scale.png	n/a	n/a	n/a	n/a	n/a	n/a	n/a	n/a
336.59	0.99	cognitive	cue	11	high_cue	n/a	n/a	n/a	n/a	n/a	n/a	n/a	task-social/cue/runtype-cognitive/sch/h022.png	n/a	n/a	n/a	n/a	n/a	n/a	n/a	n/a
338.29	2.33	cognitive	expectrating	11	high_cue	n/a	22.14	Moderate	22.14	Moderate	0.1	2.23	task-social/cue/runtype-cognitive/sch/h022.png	n/a	n/a	n/a	n/a	n/a	n/a	n/a	n/a
354.0	5.0	cognitive	stimulus	11	high_cue	low_stim	n/a	n/a	n/a	n/a	n/a	n/a	task-social/stim/runtype-cognitive/7_50_R.jpg	n/a	n/a	n/a	n/a	n/a	diff	diff	True
367.1	1.63	cognitive	outcomerating	11	high_cue	low_stim	19.39	Moderate	19.39	Moderate	0.1	2.23	task-social/outcomerating/task-cognitive_scale.png	n/a	n/a	n/a	n/a	n/a	n/a	n/a	n/a
371.59	1.0	cognitive	cue	12	low_cue	n/a	n/a	n/a	n/a	n/a	n/a	n/a	task-social/cue/runtype-cognitive/scl/l035.png	n/a	n/a	n/a	n/a	n/a	n/a	n/a	n/a
373.4	1.73	cognitive	expectrating	12	low_cue	n/a	6.95	Weak	6.95	Weak	0.33	1.4	task-social/cue/runtype-cognitive/scl/l035.png	n/a	n/a	n/a	n/a	n/a	n/a	n/a	n/a
380.29	5.0	cognitive	stimulus	12	low_cue	high_stim	n/a	n/a	n/a	n/a	n/a	n/a	task-social/stim/runtype-cognitive/19_150.jpg	n/a	n/a	n/a	n/a	n/a	same	same	True
394.8	2.57	cognitive	outcomerating	12	low_cue	high_stim	18.43	Moderate	18.43	Moderate	0.33	1.4	task-social/outcomerating/task-cognitive_scale.png	n/a	n/a	n/a	n/a	n/a	n/a	n/a	n/a
