onset	duration	run_type	trial_type	trial_index	cue	stimulusintensity	rating_value	rating_glmslabel	rating_value_fillna	rating_glmslabel_fillna	rating_mouseonset	rating_mousedur	stim_file	pain_onset_ttl1	pain_onset_ttl2	pain_onset_ttl3	pain_onset_ttl4	pain_stimulus_delivery_success	cognitive_correct_response	cognitive_participant_response	cognitive_response_accuracy
14.19	1.0	pain	cue	1	low_cue	n/a	n/a	n/a	n/a	n/a	n/a	n/a	task-social/cue/runtype-pain/scl/l034.png	n/a	n/a	n/a	n/a	n/a	n/a	n/a	n/a
16.01	2.03	pain	expectrating	1	low_cue	n/a	12.75	Moderate	12.75	Moderate	0.55	1.48	task-social/cue/runtype-pain/scl/l034.png	n/a	n/a	n/a	n/a	n/a	n/a	n/a	n/a
20.67	11.899999999999999	pain	stimulus	1	low_cue	low_stim	n/a	n/a	n/a	n/a	n/a	n/a	n/a	20.67	24.17	29.17	32.57	success	n/a	n/a	n/a
35.3	2.33	pain	outcomerating	1	low_cue	low_stim	8.52	Weak	8.52	Weak	0.55	1.78	task-social/outcomerating/task-pain_scale.png	n/a	n/a	n/a	n/a	success	n/a	n/a	n/a
40.6	1.0	pain	cue	2	low_cue	n/a	n/a	n/a	n/a	n/a	n/a	n/a	task-social/cue/runtype-pain/scl/l003.png	n/a	n/a	n/a	n/a	n/a	n/a	n/a	n/a
43.6	1.59	pain	expectrating	2	low_cue	n/a	30.17	Strong	30.17	Strong	0.18	1.41	task-social/cue/runtype-pain/scl/l003.png	n/a	n/a	n/a	n/a	n/a	n/a	n/a	n/a
48.22	12.370000000000005	pain	stimulus	2	low_cue	med_stim	n/a	n/a	n/a	n/a	n/a	n/a	n/a	48.22	51.98	56.98	60.59	success	n/a	n/a	n/a
63.69	3.63	pain	outcomerating	2	low_cue	med_stim	22.74	Moderate	22.74	Moderate	0.73	2.9	task-social/outcomerating/task-pain_scale.png	n/a	n/a	n/a	n/a	success	n/a	n/a	n/a
72.2	1.0	pain	cue	3	high_cue	n/a	n/a	n/a	n/a	n/a	n/a	n/a	task-social/cue/runtype-pain/sch/h040.png	n/a	n/a	n/a	n/a	n/a	n/a	n/a	n/a
75.2	1.85	pain	expectrating	3	high_cue	n/a	27.18	Moderate	27.18	Moderate	0.27	1.58	task-social/cue/runtype-pain/sch/h040.png	n/a	n/a	n/a	n/a	n/a	n/a	n/a	n/a
84.13	12.36	pain	stimulus	3	high_cue	med_stim	n/a	n/a	n/a	n/a	n/a	n/a	n/a	84.13	87.89	92.89	96.5	success	n/a	n/a	n/a
95.9	3.37	pain	outcomerating	3	high_cue	med_stim	22.14	Moderate	22.14	Moderate	0.75	2.62	task-social/outcomerating/task-pain_scale.png	n/a	n/a	n/a	n/a	success	n/a	n/a	n/a
108.99	1.0	pain	cue	4	low_cue	n/a	n/a	n/a	n/a	n/a	n/a	n/a	task-social/cue/runtype-pain/scl/l049.png	n/a	n/a	n/a	n/a	n/a	n/a	n/a	n/a
110.89	2.8	pain	expectrating	4	low_cue	n/a	23.47	Moderate	23.47	Moderate	0.57	2.23	task-social/cue/runtype-pain/scl/l049.png	n/a	n/a	n/a	n/a	n/a	n/a	n/a	n/a
118.33	12.820000000000007	pain	stimulus	4	low_cue	high_stim	n/a	n/a	n/a	n/a	n/a	n/a	n/a	118.33	122.34	127.34	131.15	success	n/a	n/a	n/a
130.5	3.57	pain	outcomerating	4	low_cue	high_stim	30.88	Strong	30.88	Strong	0.78	2.79	task-social/outcomerating/task-pain_scale.png	n/a	n/a	n/a	n/a	success	n/a	n/a	n/a
145.11	0.98	pain	cue	5	high_cue	n/a	n/a	n/a	n/a	n/a	n/a	n/a	task-social/cue/runtype-pain/sch/h047.png	n/a	n/a	n/a	n/a	n/a	n/a	n/a	n/a
146.81	2.88	pain	expectrating	5	high_cue	n/a	33.88	Strong	33.88	Strong	0.6	2.28	task-social/cue/runtype-pain/sch/h047.png	n/a	n/a	n/a	n/a	n/a	n/a	n/a	n/a
153.34	12.359999999999985	pain	stimulus	5	high_cue	med_stim	n/a	n/a	n/a	n/a	n/a	n/a	n/a	153.34	157.1	162.1	165.71	success	n/a	n/a	n/a
166.5	2.7	pain	outcomerating	5	high_cue	med_stim	11.36	Moderate	11.36	Moderate	0.47	2.23	task-social/outcomerating/task-pain_scale.png	n/a	n/a	n/a	n/a	success	n/a	n/a	n/a
171.4	1.0	pain	cue	6	low_cue	n/a	n/a	n/a	n/a	n/a	n/a	n/a	task-social/cue/runtype-pain/scl/l004.png	n/a	n/a	n/a	n/a	n/a	n/a	n/a	n/a
174.5	2.92	pain	expectrating	6	low_cue	n/a	20.39	Moderate	20.39	Moderate	0.52	2.41	task-social/cue/runtype-pain/scl/l004.png	n/a	n/a	n/a	n/a	n/a	n/a	n/a	n/a
180.73	12.820000000000022	pain	stimulus	6	low_cue	high_stim	n/a	n/a	n/a	n/a	n/a	n/a	n/a	180.73	184.74	189.74	193.55	success	n/a	n/a	n/a
194.51	2.63	pain	outcomerating	6	low_cue	high_stim	17.19	Moderate	17.19	Moderate	0.67	1.97	task-social/outcomerating/task-pain_scale.png	n/a	n/a	n/a	n/a	success	n/a	n/a	n/a
199.79	1.0	pain	cue	7	low_cue	n/a	n/a	n/a	n/a	n/a	n/a	n/a	task-social/cue/runtype-pain/scl/l038.png	n/a	n/a	n/a	n/a	n/a	n/a	n/a	n/a
202.79	2.08	pain	expectrating	7	low_cue	n/a	13.2	Moderate	13.2	Moderate	0.33	1.75	task-social/cue/runtype-pain/scl/l038.png	n/a	n/a	n/a	n/a	n/a	n/a	n/a	n/a
216.22	11.909999999999997	pain	stimulus	7	low_cue	low_stim	n/a	n/a	n/a	n/a	n/a	n/a	n/a	216.22	219.72	224.72	228.12	success	n/a	n/a	n/a
231.1	3.55	pain	outcomerating	7	low_cue	low_stim	16.98	Moderate	16.98	Moderate	0.43	3.12	task-social/outcomerating/task-pain_scale.png	n/a	n/a	n/a	n/a	success	n/a	n/a	n/a
236.79	1.0	pain	cue	8	high_cue	n/a	n/a	n/a	n/a	n/a	n/a	n/a	task-social/cue/runtype-pain/sch/h015.png	n/a	n/a	n/a	n/a	n/a	n/a	n/a	n/a
238.51	3.32	pain	expectrating	8	high_cue	n/a	24.61	Moderate	24.61	Moderate	0.62	2.7	task-social/cue/runtype-pain/sch/h015.png	n/a	n/a	n/a	n/a	n/a	n/a	n/a	n/a
243.32	12.819999999999993	pain	stimulus	8	high_cue	high_stim	n/a	n/a	n/a	n/a	n/a	n/a	n/a	243.32	247.33	252.33	256.14	success	n/a	n/a	n/a
255.5	3.0	pain	outcomerating	8	high_cue	high_stim	29.55	Strong	29.55	Strong	0.63	2.37	task-social/outcomerating/task-pain_scale.png	n/a	n/a	n/a	n/a	success	n/a	n/a	n/a
264.2	1.0	pain	cue	9	high_cue	n/a	n/a	n/a	n/a	n/a	n/a	n/a	task-social/cue/runtype-pain/sch/h039.png	n/a	n/a	n/a	n/a	n/a	n/a	n/a	n/a
267.2	2.09	pain	expectrating	9	high_cue	n/a	36.5	Strong	36.5	Strong	0.13	1.96	task-social/cue/runtype-pain/sch/h039.png	n/a	n/a	n/a	n/a	n/a	n/a	n/a	n/a
277.53	12.82000000000005	pain	stimulus	9	high_cue	high_stim	n/a	n/a	n/a	n/a	n/a	n/a	n/a	277.53	281.54	286.54	290.35	success	n/a	n/a	n/a
290.49	2.92	pain	outcomerating	9	high_cue	high_stim	36.64	Strong	36.64	Strong	0.75	2.17	task-social/outcomerating/task-pain_scale.png	n/a	n/a	n/a	n/a	success	n/a	n/a	n/a
298.4	1.0	pain	cue	10	high_cue	n/a	n/a	n/a	n/a	n/a	n/a	n/a	task-social/cue/runtype-pain/sch/h028.png	n/a	n/a	n/a	n/a	n/a	n/a	n/a	n/a
301.2	2.92	pain	expectrating	10	high_cue	n/a	37.65	Strong	37.65	Strong	0.27	2.65	task-social/cue/runtype-pain/sch/h028.png	n/a	n/a	n/a	n/a	n/a	n/a	n/a	n/a
319.94	11.899999999999977	pain	stimulus	10	high_cue	low_stim	n/a	n/a	n/a	n/a	n/a	n/a	n/a	319.94	323.44	328.44	331.84	success	n/a	n/a	n/a
331.09	3.28	pain	outcomerating	10	high_cue	low_stim	6.67	Weak	6.67	Weak	0.45	2.83	task-social/outcomerating/task-pain_scale.png	n/a	n/a	n/a	n/a	success	n/a	n/a	n/a
335.99	1.0	pain	cue	11	high_cue	n/a	n/a	n/a	n/a	n/a	n/a	n/a	task-social/cue/runtype-pain/sch/h009.png	n/a	n/a	n/a	n/a	n/a	n/a	n/a	n/a
338.89	2.58	pain	expectrating	11	high_cue	n/a	37.47	Strong	37.47	Strong	0.17	2.42	task-social/cue/runtype-pain/sch/h009.png	n/a	n/a	n/a	n/a	n/a	n/a	n/a	n/a
343.73	11.909999999999968	pain	stimulus	11	high_cue	low_stim	n/a	n/a	n/a	n/a	n/a	n/a	n/a	343.73	347.23	352.23	355.63	success	n/a	n/a	n/a
359.4	2.97	pain	outcomerating	11	high_cue	low_stim	9.04	Weak	9.04	Weak	0.57	2.41	task-social/outcomerating/task-pain_scale.png	n/a	n/a	n/a	n/a	success	n/a	n/a	n/a
366.99	1.0	pain	cue	12	low_cue	n/a	n/a	n/a	n/a	n/a	n/a	n/a	task-social/cue/runtype-pain/scl/l007.png	n/a	n/a	n/a	n/a	n/a	n/a	n/a	n/a
368.91	2.54	pain	expectrating	12	low_cue	n/a	19.16	Moderate	19.16	Moderate	0.45	2.09	task-social/cue/runtype-pain/scl/l007.png	n/a	n/a	n/a	n/a	n/a	n/a	n/a	n/a
380.54	12.359999999999957	pain	stimulus	12	low_cue	med_stim	n/a	n/a	n/a	n/a	n/a	n/a	n/a	380.54	384.3	389.3	392.91	success	n/a	n/a	n/a
394.5	2.87	pain	outcomerating	12	low_cue	med_stim	29.35	Strong	29.35	Strong	0.5	2.37	task-social/outcomerating/task-pain_scale.png	n/a	n/a	n/a	n/a	success	n/a	n/a	n/a
