onset	duration	run_type	trial_type	trial_index	cue	stimulusintensity	rating_value	rating_glmslabel	rating_value_fillna	rating_glmslabel_fillna	rating_mouseonset	rating_mousedur	stim_file	pain_onset_ttl1	pain_onset_ttl2	pain_onset_ttl3	pain_onset_ttl4	pain_stimulus_delivery_success	cognitive_correct_response	cognitive_participant_response	cognitive_response_accuracy
3.41	0.99	cognitive	cue	1	low_cue	n/a	n/a	n/a	n/a	n/a	n/a	n/a	n/a	n/a	n/a	n/a	n/a	n/a	n/a	n/a	n/a
6.12	1.52	cognitive	expectrating	1	low_cue	n/a	28.94	Moderate	28.94	Moderate	0.48	1.04	task-social/cue/runtype-cognitive/scl/l038.png	n/a	n/a	n/a	n/a	n/a	n/a	n/a	n/a
18.51	5.0	cognitive	stimulus	1	low_cue	high_stim	n/a	n/a	n/a	n/a	n/a	n/a	task-social/stim/runtype-cognitive/48_150_R.jpg	n/a	n/a	n/a	n/a	n/a	diff	diff	True
32.62	1.83	cognitive	outcomerating	1	low_cue	high_stim	30.17	Strong	30.17	Strong	0.53	1.3	task-social/outcomerating/task-cognitive_scale.png	n/a	n/a	n/a	n/a	n/a	n/a	n/a	n/a
46.0	0.99	cognitive	cue	2	high_cue	n/a	n/a	n/a	n/a	n/a	n/a	n/a	n/a	n/a	n/a	n/a	n/a	n/a	n/a	n/a	n/a
49.11	2.09	cognitive	expectrating	2	high_cue	n/a	21.12	Moderate	21.12	Moderate	0.53	1.55	task-social/cue/runtype-cognitive/sch/h019.png	n/a	n/a	n/a	n/a	n/a	n/a	n/a	n/a
59.61	5.0	cognitive	stimulus	2	high_cue	med_stim	n/a	n/a	n/a	n/a	n/a	n/a	task-social/stim/runtype-cognitive/23_100.jpg	n/a	n/a	n/a	n/a	n/a	same	same	True
76.02	2.23	cognitive	outcomerating	2	high_cue	med_stim	13.25	Moderate	13.25	Moderate	0.77	1.47	task-social/outcomerating/task-cognitive_scale.png	n/a	n/a	n/a	n/a	n/a	n/a	n/a	n/a
80.7	0.99	cognitive	cue	3	low_cue	n/a	n/a	n/a	n/a	n/a	n/a	n/a	n/a	n/a	n/a	n/a	n/a	n/a	n/a	n/a	n/a
83.8	1.48	cognitive	expectrating	3	low_cue	n/a	17.12	Moderate	17.12	Moderate	0.38	1.1	task-social/cue/runtype-cognitive/scl/l033.png	n/a	n/a	n/a	n/a	n/a	n/a	n/a	n/a
90.3	5.0	cognitive	stimulus	3	low_cue	low_stim	n/a	n/a	n/a	n/a	n/a	n/a	task-social/stim/runtype-cognitive/45_50_R.jpg	n/a	n/a	n/a	n/a	n/a	diff	diff	True
97.81	3.37	cognitive	outcomerating	3	low_cue	low_stim	18.07	Moderate	18.07	Moderate	1.12	2.25	task-social/outcomerating/task-cognitive_scale.png	n/a	n/a	n/a	n/a	n/a	n/a	n/a	n/a
110.31	0.98	cognitive	cue	4	low_cue	n/a	n/a	n/a	n/a	n/a	n/a	n/a	n/a	n/a	n/a	n/a	n/a	n/a	n/a	n/a	n/a
111.81	1.73	cognitive	expectrating	4	low_cue	n/a	3.45	Weak	3.45	Weak	0.62	1.12	task-social/cue/runtype-cognitive/scl/l027.png	n/a	n/a	n/a	n/a	n/a	n/a	n/a	n/a
118.6	5.0	cognitive	stimulus	4	low_cue	low_stim	n/a	n/a	n/a	n/a	n/a	n/a	task-social/stim/runtype-cognitive/33_50.jpg	n/a	n/a	n/a	n/a	n/a	same	same	True
134.72	2.34	cognitive	outcomerating	4	low_cue	low_stim	8.52	Weak	8.52	Weak	0.52	1.82	task-social/outcomerating/task-cognitive_scale.png	n/a	n/a	n/a	n/a	n/a	n/a	n/a	n/a
143.81	0.98	cognitive	cue	5	high_cue	n/a	n/a	n/a	n/a	n/a	n/a	n/a	n/a	n/a	n/a	n/a	n/a	n/a	n/a	n/a	n/a
146.91	1.7	cognitive	expectrating	5	high_cue	n/a	13.7	Moderate	13.7	Moderate	0.45	1.25	task-social/cue/runtype-cognitive/sch/h023.png	n/a	n/a	n/a	n/a	n/a	n/a	n/a	n/a
156.61	5.0	cognitive	stimulus	5	high_cue	low_stim	n/a	n/a	n/a	n/a	n/a	n/a	task-social/stim/runtype-cognitive/22_50_R.jpg	n/a	n/a	n/a	n/a	n/a	diff	diff	True
166.6	2.29	cognitive	outcomerating	5	high_cue	low_stim	11.58	Moderate	11.58	Moderate	0.78	1.51	task-social/outcomerating/task-cognitive_scale.png	n/a	n/a	n/a	n/a	n/a	n/a	n/a	n/a
171.3	0.99	cognitive	cue	6	high_cue	n/a	n/a	n/a	n/a	n/a	n/a	n/a	n/a	n/a	n/a	n/a	n/a	n/a	n/a	n/a	n/a
173.3	2.66	cognitive	expectrating	6	high_cue	n/a	22.87	Moderate	22.87	Moderate	0.73	1.92	task-social/cue/runtype-cognitive/sch/h018.png	n/a	n/a	n/a	n/a	n/a	n/a	n/a	n/a
179.8	5.0	cognitive	stimulus	6	high_cue	med_stim	n/a	n/a	n/a	n/a	n/a	n/a	task-social/stim/runtype-cognitive/43_100.jpg	n/a	n/a	n/a	n/a	n/a	same	diff	False
189.61	1.92	cognitive	outcomerating	6	high_cue	med_stim	35.75	Strong	35.75	Strong	0.58	1.34	task-social/outcomerating/task-cognitive_scale.png	n/a	n/a	n/a	n/a	n/a	n/a	n/a	n/a
201.1	1.0	cognitive	cue	7	high_cue	n/a	n/a	n/a	n/a	n/a	n/a	n/a	n/a	n/a	n/a	n/a	n/a	n/a	n/a	n/a	n/a
203.11	2.25	cognitive	expectrating	7	high_cue	n/a	11.08	Moderate	11.08	Moderate	0.57	1.68	task-social/cue/runtype-cognitive/sch/h031.png	n/a	n/a	n/a	n/a	n/a	n/a	n/a	n/a
216.1	5.0	cognitive	stimulus	7	high_cue	low_stim	n/a	n/a	n/a	n/a	n/a	n/a	task-social/stim/runtype-cognitive/45_50.jpg	n/a	n/a	n/a	n/a	n/a	same	same	True
226.71	2.7	cognitive	outcomerating	7	high_cue	low_stim	7.87	Weak	7.87	Weak	0.67	2.04	task-social/outcomerating/task-cognitive_scale.png	n/a	n/a	n/a	n/a	n/a	n/a	n/a	n/a
234.81	0.98	cognitive	cue	8	low_cue	n/a	n/a	n/a	n/a	n/a	n/a	n/a	n/a	n/a	n/a	n/a	n/a	n/a	n/a	n/a	n/a
237.31	1.88	cognitive	expectrating	8	low_cue	n/a	10.52	Moderate	10.52	Moderate	0.53	1.35	task-social/cue/runtype-cognitive/scl/l020.png	n/a	n/a	n/a	n/a	n/a	n/a	n/a	n/a
251.31	5.0	cognitive	stimulus	8	low_cue	high_stim	n/a	n/a	n/a	n/a	n/a	n/a	task-social/stim/runtype-cognitive/44_150.jpg	n/a	n/a	n/a	n/a	n/a	same	same	True
260.4	2.32	cognitive	outcomerating	8	low_cue	high_stim	9.24	Weak	9.24	Weak	0.7	1.62	task-social/outcomerating/task-cognitive_scale.png	n/a	n/a	n/a	n/a	n/a	n/a	n/a	n/a
265.1	0.99	cognitive	cue	9	low_cue	n/a	n/a	n/a	n/a	n/a	n/a	n/a	n/a	n/a	n/a	n/a	n/a	n/a	n/a	n/a	n/a
268.2	2.06	cognitive	expectrating	9	low_cue	n/a	11.82	Moderate	11.82	Moderate	0.78	1.27	task-social/cue/runtype-cognitive/scl/l040.png	n/a	n/a	n/a	n/a	n/a	n/a	n/a	n/a
279.91	5.0	cognitive	stimulus	9	low_cue	med_stim	n/a	n/a	n/a	n/a	n/a	n/a	task-social/stim/runtype-cognitive/33_100.jpg	n/a	n/a	n/a	n/a	n/a	same	same	True
290.01	3.25	cognitive	outcomerating	9	low_cue	med_stim	20.91	Moderate	20.91	Moderate	0.53	2.72	task-social/outcomerating/task-cognitive_scale.png	n/a	n/a	n/a	n/a	n/a	n/a	n/a	n/a
295.5	0.99	cognitive	cue	10	low_cue	n/a	n/a	n/a	n/a	n/a	n/a	n/a	n/a	n/a	n/a	n/a	n/a	n/a	n/a	n/a	n/a
297.42	2.02	cognitive	expectrating	10	low_cue	n/a	7.13	Weak	7.13	Weak	1.0	1.02	task-social/cue/runtype-cognitive/scl/l052.png	n/a	n/a	n/a	n/a	n/a	n/a	n/a	n/a
311.1	5.0	cognitive	stimulus	10	low_cue	med_stim	n/a	n/a	n/a	n/a	n/a	n/a	task-social/stim/runtype-cognitive/24_100_R.jpg	n/a	n/a	n/a	n/a	n/a	diff	diff	True
321.71	1.8	cognitive	outcomerating	10	low_cue	med_stim	14.65	Moderate	14.65	Moderate	0.77	1.04	task-social/outcomerating/task-cognitive_scale.png	n/a	n/a	n/a	n/a	n/a	n/a	n/a	n/a
337.9	1.0	cognitive	cue	11	high_cue	n/a	n/a	n/a	n/a	n/a	n/a	n/a	n/a	n/a	n/a	n/a	n/a	n/a	n/a	n/a	n/a
340.61	2.37	cognitive	expectrating	11	high_cue	n/a	14.37	Moderate	14.37	Moderate	0.48	1.88	task-social/cue/runtype-cognitive/sch/h016.png	n/a	n/a	n/a	n/a	n/a	n/a	n/a	n/a
348.0	5.0	cognitive	stimulus	11	high_cue	high_stim	n/a	n/a	n/a	n/a	n/a	n/a	task-social/stim/runtype-cognitive/22_150_R.jpg	n/a	n/a	n/a	n/a	n/a	diff	diff	True
355.5	2.17	cognitive	outcomerating	11	high_cue	high_stim	6.93	Weak	6.93	Weak	0.53	1.64	task-social/outcomerating/task-cognitive_scale.png	n/a	n/a	n/a	n/a	n/a	n/a	n/a	n/a
362.61	0.99	cognitive	cue	12	high_cue	n/a	n/a	n/a	n/a	n/a	n/a	n/a	n/a	n/a	n/a	n/a	n/a	n/a	n/a	n/a	n/a
364.81	1.69	cognitive	expectrating	12	high_cue	n/a	14.43	Moderate	14.43	Moderate	0.5	1.19	task-social/cue/runtype-cognitive/sch/h020.png	n/a	n/a	n/a	n/a	n/a	n/a	n/a	n/a
378.51	5.0	cognitive	stimulus	12	high_cue	high_stim	n/a	n/a	n/a	n/a	n/a	n/a	task-social/stim/runtype-cognitive/9_150_R.jpg	n/a	n/a	n/a	n/a	n/a	diff	diff	True
394.6	2.06	cognitive	outcomerating	12	high_cue	high_stim	10.45	Moderate	10.45	Moderate	0.45	1.61	task-social/outcomerating/task-cognitive_scale.png	n/a	n/a	n/a	n/a	n/a	n/a	n/a	n/a
