onset	duration	run_type	trial_type	trial_index	cue	stimulusintensity	rating_value	rating_glmslabel	rating_value_fillna	rating_glmslabel_fillna	rating_mouseonset	rating_mousedur	stim_file	pain_onset_ttl1	pain_onset_ttl2	pain_onset_ttl3	pain_onset_ttl4	pain_stimulus_delivery_success	cognitive_correct_response	cognitive_participant_response	cognitive_response_accuracy
14.18	1.0	pain	cue	1	low_cue	n/a	n/a	n/a	n/a	n/a	n/a	n/a	task-social/cue/runtype-pain/scl/l011.png	n/a	n/a	n/a	n/a	n/a	n/a	n/a	n/a
16.02	n/a	pain	expectrating	1	low_cue	n/a	n/a	n/a	45.0	Strong	0.6	2.88	task-social/cue/runtype-pain/scl/l011.png	n/a	n/a	n/a	n/a	n/a	n/a	n/a	n/a
24.76	11.899999999999995	pain	stimulus	1	low_cue	low_stim	n/a	n/a	n/a	n/a	n/a	n/a	n/a	24.76	28.26	33.26	36.66	success	n/a	n/a	n/a
37.69	2.19	pain	outcomerating	1	low_cue	low_stim	68.37	Very Strong	68.37	Very Strong	0.6	2.88	task-social/outcomerating/task-pain_scale.png	n/a	n/a	n/a	n/a	success	n/a	n/a	n/a
43.8	1.0	pain	cue	2	low_cue	n/a	n/a	n/a	n/a	n/a	n/a	n/a	task-social/cue/runtype-pain/scl/l052.png	n/a	n/a	n/a	n/a	n/a	n/a	n/a	n/a
46.8	2.23	pain	expectrating	2	low_cue	n/a	7.84	Weak	7.84	Weak	0.55	1.68	task-social/cue/runtype-pain/scl/l052.png	n/a	n/a	n/a	n/a	n/a	n/a	n/a	n/a
55.52	12.359999999999992	pain	stimulus	2	low_cue	med_stim	n/a	n/a	n/a	n/a	n/a	n/a	n/a	55.52	59.28	64.28	67.89	success	n/a	n/a	n/a
69.29	2.43	pain	outcomerating	2	low_cue	med_stim	81.31	Very Strong	81.31	Very Strong	0.55	1.68	task-social/outcomerating/task-pain_scale.png	n/a	n/a	n/a	n/a	success	n/a	n/a	n/a
77.79	1.0	pain	cue	3	high_cue	n/a	n/a	n/a	n/a	n/a	n/a	n/a	task-social/cue/runtype-pain/sch/h049.png	n/a	n/a	n/a	n/a	n/a	n/a	n/a	n/a
80.81	2.29	pain	expectrating	3	high_cue	n/a	106.32	Strongest sensation of any kind	106.32	Strongest sensation of any kind	0.35	1.94	task-social/cue/runtype-pain/sch/h049.png	n/a	n/a	n/a	n/a	n/a	n/a	n/a	n/a
85.63	12.370000000000005	pain	stimulus	3	high_cue	med_stim	n/a	n/a	n/a	n/a	n/a	n/a	n/a	85.63	89.39	94.39	98.0	success	n/a	n/a	n/a
97.4	2.37	pain	outcomerating	3	high_cue	med_stim	119.57	Strongest sensation of any kind	119.57	Strongest sensation of any kind	0.35	1.94	task-social/outcomerating/task-pain_scale.png	n/a	n/a	n/a	n/a	success	n/a	n/a	n/a
110.49	1.0	pain	cue	4	low_cue	n/a	n/a	n/a	n/a	n/a	n/a	n/a	task-social/cue/runtype-pain/scl/l030.png	n/a	n/a	n/a	n/a	n/a	n/a	n/a	n/a
112.39	1.9	pain	expectrating	4	low_cue	n/a	62.57	Strong	62.57	Strong	0.42	1.48	task-social/cue/runtype-pain/scl/l030.png	n/a	n/a	n/a	n/a	n/a	n/a	n/a	n/a
123.93	12.819999999999993	pain	stimulus	4	low_cue	high_stim	n/a	n/a	n/a	n/a	n/a	n/a	n/a	123.93	127.94	132.94	136.75	success	n/a	n/a	n/a
136.1	3.02	pain	outcomerating	4	low_cue	high_stim	122.51	Strongest sensation of any kind	122.51	Strongest sensation of any kind	0.42	1.48	task-social/outcomerating/task-pain_scale.png	n/a	n/a	n/a	n/a	success	n/a	n/a	n/a
150.69	1.0	pain	cue	5	high_cue	n/a	n/a	n/a	n/a	n/a	n/a	n/a	task-social/cue/runtype-pain/sch/h030.png	n/a	n/a	n/a	n/a	n/a	n/a	n/a	n/a
152.4	2.62	pain	expectrating	5	high_cue	n/a	83.76	Very Strong	83.76	Very Strong	0.07	2.55	task-social/cue/runtype-pain/sch/h030.png	n/a	n/a	n/a	n/a	n/a	n/a	n/a	n/a
158.95	12.360000000000014	pain	stimulus	5	high_cue	med_stim	n/a	n/a	n/a	n/a	n/a	n/a	n/a	158.95	162.71	167.71	171.32	success	n/a	n/a	n/a
173.79	1.94	pain	outcomerating	5	high_cue	med_stim	115.64	Strongest sensation of any kind	115.64	Strongest sensation of any kind	0.07	2.55	task-social/outcomerating/task-pain_scale.png	n/a	n/a	n/a	n/a	success	n/a	n/a	n/a
178.7	1.0	pain	cue	6	low_cue	n/a	n/a	n/a	n/a	n/a	n/a	n/a	task-social/cue/runtype-pain/scl/l038.png	n/a	n/a	n/a	n/a	n/a	n/a	n/a	n/a
181.8	3.15	pain	expectrating	6	low_cue	n/a	85.76	Very Strong	85.76	Very Strong	0.73	2.42	task-social/cue/runtype-pain/scl/l038.png	n/a	n/a	n/a	n/a	n/a	n/a	n/a	n/a
188.02	12.819999999999993	pain	stimulus	6	low_cue	high_stim	n/a	n/a	n/a	n/a	n/a	n/a	n/a	188.02	192.03	197.03	200.84	success	n/a	n/a	n/a
200.09	1.63	pain	outcomerating	6	low_cue	high_stim	122.64	Strongest sensation of any kind	122.64	Strongest sensation of any kind	0.73	2.42	task-social/outcomerating/task-pain_scale.png	n/a	n/a	n/a	n/a	success	n/a	n/a	n/a
205.39	1.0	pain	cue	7	low_cue	n/a	n/a	n/a	n/a	n/a	n/a	n/a	task-social/cue/runtype-pain/scl/l042.png	n/a	n/a	n/a	n/a	n/a	n/a	n/a	n/a
208.39	1.57	pain	expectrating	7	low_cue	n/a	71.64	Very Strong	71.64	Very Strong	0.35	1.22	task-social/cue/runtype-pain/scl/l042.png	n/a	n/a	n/a	n/a	n/a	n/a	n/a	n/a
217.74	11.899999999999977	pain	stimulus	7	low_cue	low_stim	n/a	n/a	n/a	n/a	n/a	n/a	n/a	217.74	221.24	226.24	229.64	success	n/a	n/a	n/a
232.6	2.63	pain	outcomerating	7	low_cue	low_stim	74.12	Very Strong	74.12	Very Strong	0.35	1.22	task-social/outcomerating/task-pain_scale.png	n/a	n/a	n/a	n/a	success	n/a	n/a	n/a
237.48	1.0	pain	cue	8	high_cue	n/a	n/a	n/a	n/a	n/a	n/a	n/a	task-social/cue/runtype-pain/sch/h017.png	n/a	n/a	n/a	n/a	n/a	n/a	n/a	n/a
239.19	1.88	pain	expectrating	8	high_cue	n/a	126.97	Strongest sensation of any kind	126.97	Strongest sensation of any kind	0.35	1.53	task-social/cue/runtype-pain/sch/h017.png	n/a	n/a	n/a	n/a	n/a	n/a	n/a	n/a
244.02	12.830000000000013	pain	stimulus	8	high_cue	high_stim	n/a	n/a	n/a	n/a	n/a	n/a	n/a	244.02	248.03	253.03	256.84	success	n/a	n/a	n/a
257.89	2.21	pain	outcomerating	8	high_cue	high_stim	114.29	Strongest sensation of any kind	114.29	Strongest sensation of any kind	0.35	1.53	task-social/outcomerating/task-pain_scale.png	n/a	n/a	n/a	n/a	success	n/a	n/a	n/a
265.8	1.0	pain	cue	9	high_cue	n/a	n/a	n/a	n/a	n/a	n/a	n/a	task-social/cue/runtype-pain/sch/h023.png	n/a	n/a	n/a	n/a	n/a	n/a	n/a	n/a
268.8	3.1	pain	expectrating	9	high_cue	n/a	95.83	Very Strong	95.83	Very Strong	0.28	2.82	task-social/cue/runtype-pain/sch/h023.png	n/a	n/a	n/a	n/a	n/a	n/a	n/a	n/a
275.02	12.830000000000041	pain	stimulus	9	high_cue	high_stim	n/a	n/a	n/a	n/a	n/a	n/a	n/a	275.02	279.03	284.03	287.84	success	n/a	n/a	n/a
287.99	2.48	pain	outcomerating	9	high_cue	high_stim	107.27	Strongest sensation of any kind	107.27	Strongest sensation of any kind	0.28	2.82	task-social/outcomerating/task-pain_scale.png	n/a	n/a	n/a	n/a	success	n/a	n/a	n/a
296.69	1.0	pain	cue	10	high_cue	n/a	n/a	n/a	n/a	n/a	n/a	n/a	task-social/cue/runtype-pain/sch/h035.png	n/a	n/a	n/a	n/a	n/a	n/a	n/a	n/a
299.49	2.67	pain	expectrating	10	high_cue	n/a	109.24	Strongest sensation of any kind	109.24	Strongest sensation of any kind	0.43	2.24	task-social/cue/runtype-pain/sch/h035.png	n/a	n/a	n/a	n/a	n/a	n/a	n/a	n/a
314.11	11.909999999999968	pain	stimulus	10	high_cue	low_stim	n/a	n/a	n/a	n/a	n/a	n/a	n/a	314.11	317.61	322.61	326.01	success	n/a	n/a	n/a
326.98	2.75	pain	outcomerating	10	high_cue	low_stim	94.59	Very Strong	94.59	Very Strong	0.43	2.24	task-social/outcomerating/task-pain_scale.png	n/a	n/a	n/a	n/a	success	n/a	n/a	n/a
332.69	1.0	pain	cue	11	high_cue	n/a	n/a	n/a	n/a	n/a	n/a	n/a	task-social/cue/runtype-pain/sch/h039.png	n/a	n/a	n/a	n/a	n/a	n/a	n/a	n/a
335.59	3.05	pain	expectrating	11	high_cue	n/a	101.91	Strongest sensation of any kind	101.91	Strongest sensation of any kind	0.27	2.78	task-social/cue/runtype-pain/sch/h039.png	n/a	n/a	n/a	n/a	n/a	n/a	n/a	n/a
344.53	11.900000000000034	pain	stimulus	11	high_cue	low_stim	n/a	n/a	n/a	n/a	n/a	n/a	n/a	344.53	348.03	353.03	356.43	success	n/a	n/a	n/a
358.5	3.48	pain	outcomerating	11	high_cue	low_stim	110.85	Strongest sensation of any kind	110.85	Strongest sensation of any kind	0.27	2.78	task-social/outcomerating/task-pain_scale.png	n/a	n/a	n/a	n/a	success	n/a	n/a	n/a
365.28	1.0	pain	cue	12	low_cue	n/a	n/a	n/a	n/a	n/a	n/a	n/a	task-social/cue/runtype-pain/scl/l041.png	n/a	n/a	n/a	n/a	n/a	n/a	n/a	n/a
367.2	1.87	pain	expectrating	12	low_cue	n/a	77.02	Very Strong	77.02	Very Strong	0.48	1.38	task-social/cue/runtype-pain/scl/l041.png	n/a	n/a	n/a	n/a	n/a	n/a	n/a	n/a
378.83	12.370000000000005	pain	stimulus	12	low_cue	med_stim	n/a	n/a	n/a	n/a	n/a	n/a	n/a	378.83	382.59	387.59	391.2	success	n/a	n/a	n/a
394.49	2.37	pain	outcomerating	12	low_cue	med_stim	116.77	Strongest sensation of any kind	116.77	Strongest sensation of any kind	0.48	1.38	task-social/outcomerating/task-pain_scale.png	n/a	n/a	n/a	n/a	success	n/a	n/a	n/a
