onset	duration	trial_type	response_x	response_y	situation	context	modality	stim_file
7.833	12.638	narrative_presentation	n/a	n/a	Enmity-of-kin	prison	Audio	task-narratives/Narrative5Situation1.mp3
20.471	3.983	rating_feeling	655	563	Enmity-of-kin	prison	Audio	n/a
21.238	3.217	feeling_mouse_trajectory	655	563	Enmity-of-kin	prison	Audio	n/a
24.497	2.467	rating_expectation	695	522	Enmity-of-kin	prison	Audio	n/a
24.53	2.433	expectation_mouse_trajectory	695	522	Enmity-of-kin	prison	Audio	n/a
31.551	28.102	narrative_presentation	n/a	n/a	All-sacrificed-for-passion	prison	Audio	task-narratives/Narrative5Situation2.mp3
59.653	3.967	rating_feeling	1158	586	All-sacrificed-for-passion	prison	Audio	n/a
60.453	3.167	feeling_mouse_trajectory	1158	586	All-sacrificed-for-passion	prison	Audio	n/a
63.678	2.283	rating_expectation	808	558	All-sacrificed-for-passion	prison	Audio	n/a
63.811	2.15	expectation_mouse_trajectory	808	558	All-sacrificed-for-passion	prison	Audio	n/a
70.733	13.312	narrative_presentation	n/a	n/a	Discovery-of-dishonour-of-loved-one	prison	Audio	task-narratives/Narrative5Situation3.mp3
84.044	1.9	rating_feeling	710	602	Discovery-of-dishonour-of-loved-one	prison	Audio	n/a
84.161	1.783	feeling_mouse_trajectory	710	602	Discovery-of-dishonour-of-loved-one	prison	Audio	n/a
88.069	2.833	rating_expectation	715	534	Discovery-of-dishonour-of-loved-one	prison	Audio	n/a
88.719	2.183	expectation_mouse_trajectory	715	534	Discovery-of-dishonour-of-loved-one	prison	Audio	n/a
93.157	20.148	narrative_presentation	n/a	n/a	Crimes-of-love	park	Audio	task-narratives/Narrative5Situation4.mp3
113.305	3.7	rating_feeling	706	554	Crimes-of-love	park	Audio	n/a
113.822	3.183	feeling_mouse_trajectory	706	554	Crimes-of-love	park	Audio	n/a
117.331	3.7	rating_expectation	748	579	Crimes-of-love	park	Audio	n/a
119.331	1.7	expectation_mouse_trajectory	748	579	Crimes-of-love	park	Audio	n/a
126.387	14.117	narrative_presentation	n/a	n/a	Necessity-of-sacrificing-loved-ones	park	Audio	task-narratives/Narrative5Situation5.mp3
140.503	2.95	rating_feeling	663	502	Necessity-of-sacrificing-loved-ones	park	Audio	n/a
141.737	1.717	feeling_mouse_trajectory	663	502	Necessity-of-sacrificing-loved-ones	park	Audio	n/a
144.527	3.983	rating_expectation	724	536	Necessity-of-sacrificing-loved-ones	park	Audio	n/a
145.661	2.85	expectation_mouse_trajectory	724	536	Necessity-of-sacrificing-loved-ones	park	Audio	n/a
151.58	5.476	narrative_presentation	n/a	n/a	Adultery	park	Audio	task-narratives/Narrative5Situation6.mp3
157.056	2.467	rating_feeling	1149	560	Adultery	park	Audio	n/a
157.456	2.067	feeling_mouse_trajectory	1149	560	Adultery	park	Audio	n/a
161.08	3.75	rating_expectation	1138	555	Adultery	park	Audio	n/a
161.497	3.333	expectation_mouse_trajectory	1138	555	Adultery	park	Audio	n/a
169.136	20.822	narrative_presentation	n/a	n/a	Revolt	beach	Audio	task-narratives/Narrative5Situation7.mp3
189.958	2.7	rating_feeling	673	559	Revolt	beach	Audio	n/a
190.491	2.167	feeling_mouse_trajectory	673	559	Revolt	beach	Audio	n/a
193.994	2.833	rating_expectation	763	578	Revolt	beach	Audio	n/a
194.661	2.167	expectation_mouse_trajectory	763	578	Revolt	beach	Audio	n/a
201.048	7.275	narrative_presentation	n/a	n/a	An-enemy-loved	beach	Audio	task-narratives/Narrative5Situation8.mp3
208.323	3.567	rating_feeling	752	589	An-enemy-loved	beach	Audio	n/a
209.423	2.467	feeling_mouse_trajectory	752	589	An-enemy-loved	beach	Audio	n/a
212.35	1.517	rating_expectation	747	620	An-enemy-loved	beach	Audio	n/a
212.433	1.433	expectation_mouse_trajectory	747	620	An-enemy-loved	beach	Audio	n/a
219.404	37.951	narrative_presentation	n/a	n/a	Mistaken-jealousy	beach	Audio	task-narratives/Narrative5Situation9.mp3
257.355	2.633	rating_feeling	727	553	Mistaken-jealousy	beach	Audio	n/a
258.255	1.733	feeling_mouse_trajectory	727	553	Mistaken-jealousy	beach	Audio	n/a
261.384	2.75	rating_expectation	787	539	Mistaken-jealousy	beach	Audio	n/a
261.951	2.183	expectation_mouse_trajectory	787	539	Mistaken-jealousy	beach	Audio	n/a
267.457	26.0	narrative_presentation	n/a	n/a	Recovery-of-a-lost-one	town	Audio	task-narratives/Narrative6Situation1.mp3
293.457	3.35	rating_feeling	699	535	Recovery-of-a-lost-one	town	Audio	n/a
293.823	2.983	feeling_mouse_trajectory	699	535	Recovery-of-a-lost-one	town	Audio	n/a
297.481	3.933	rating_expectation	847	610	Recovery-of-a-lost-one	town	Audio	n/a
300.814	0.6	expectation_mouse_trajectory	847	610	Recovery-of-a-lost-one	town	Audio	n/a
304.536	27.983	narrative_presentation	n/a	n/a	The-enigma	town	Audio	task-narratives/Narrative6Situation2.mp3
332.519	3.05	rating_feeling	801	611	The-enigma	town	Audio	n/a
333.203	2.367	feeling_mouse_trajectory	801	611	The-enigma	town	Audio	n/a
336.545	2.5	rating_expectation	716	589	The-enigma	town	Audio	n/a
337.612	1.433	expectation_mouse_trajectory	716	589	The-enigma	town	Audio	n/a
345.618	11.985	narrative_presentation	n/a	n/a	Revolt	town	Audio	task-narratives/Narrative6Situation3.mp3
357.603	3.867	rating_feeling	778	625	Revolt	town	Audio	n/a
358.303	3.167	feeling_mouse_trajectory	778	625	Revolt	town	Audio	n/a
361.627	3.017	rating_expectation	814	569	Revolt	town	Audio	n/a
363.161	1.483	expectation_mouse_trajectory	814	569	Revolt	town	Audio	n/a
367.71	11.977	narrative_presentation	n/a	n/a	Loss-of-loved-one	swamp	Audio	task-narratives/Narrative6Situation4.mp3
379.686	1.717	rating_feeling	696	560	Loss-of-loved-one	swamp	Audio	n/a
380.153	1.25	feeling_mouse_trajectory	696	560	Loss-of-loved-one	swamp	Audio	n/a
383.713	2.017	rating_expectation	672	550	Loss-of-loved-one	swamp	Audio	n/a
384.28	1.45	expectation_mouse_trajectory	672	550	Loss-of-loved-one	swamp	Audio	n/a
389.767	7.327	narrative_presentation	n/a	n/a	An-enemy-loved	swamp	Audio	task-narratives/Narrative6Situation5.mp3
397.094	2.883	rating_feeling	809	566	An-enemy-loved	swamp	Audio	n/a
397.611	2.367	feeling_mouse_trajectory	809	566	An-enemy-loved	swamp	Audio	n/a
401.128	2.367	rating_expectation	778	600	An-enemy-loved	swamp	Audio	n/a
401.994	1.5	expectation_mouse_trajectory	778	600	An-enemy-loved	swamp	Audio	n/a
407.208	10.815	narrative_presentation	n/a	n/a	Daring-Enterprise	swamp	Audio	task-narratives/Narrative6Situation6.mp3
418.023	1.867	rating_feeling	662	506	Daring-Enterprise	swamp	Audio	n/a
418.19	1.7	feeling_mouse_trajectory	662	506	Daring-Enterprise	swamp	Audio	n/a
422.044	3.85	rating_expectation	682	510	Daring-Enterprise	swamp	Audio	n/a
423.861	2.033	expectation_mouse_trajectory	682	510	Daring-Enterprise	swamp	Audio	n/a
431.1	23.288	narrative_presentation	n/a	n/a	Self-sacrifice-for-kin	city	Audio	task-narratives/Narrative6Situation7.mp3
454.388	3.6	rating_feeling	796	578	Self-sacrifice-for-kin	city	Audio	n/a
455.038	2.95	feeling_mouse_trajectory	796	578	Self-sacrifice-for-kin	city	Audio	n/a
458.411	2.583	rating_expectation	1110	598	Self-sacrifice-for-kin	city	Audio	n/a
459.144	1.85	expectation_mouse_trajectory	1110	598	Self-sacrifice-for-kin	city	Audio	n/a
467.464	5.294	narrative_presentation	n/a	n/a	Falling-prey-to-misfortune	city	Audio	task-narratives/Narrative6Situation8.mp3
472.759	2.633	rating_feeling	703	516	Falling-prey-to-misfortune	city	Audio	n/a
473.392	2.0	feeling_mouse_trajectory	703	516	Falling-prey-to-misfortune	city	Audio	n/a
476.781	2.917	rating_expectation	776	564	Falling-prey-to-misfortune	city	Audio	n/a
478.048	1.65	expectation_mouse_trajectory	776	564	Falling-prey-to-misfortune	city	Audio	n/a
484.836	9.321	narrative_presentation	n/a	n/a	Madness	city	Audio	task-narratives/Narrative6Situation9.mp3
494.157	1.833	rating_feeling	711	519	Madness	city	Audio	n/a
494.224	1.767	feeling_mouse_trajectory	711	519	Madness	city	Audio	n/a
498.194	2.717	rating_expectation	1087	600	Madness	city	Audio	n/a
499.444	1.467	expectation_mouse_trajectory	1087	600	Madness	city	Audio	n/a
