onset	duration	trial_type	response_x	response_y	situation	context	modality	stim_file
4.84	22.446	narrative_presentation	n/a	n/a	Slaying of kin unrecognized	town	Text	task-narratives/Narrative4Situation1.txt
27.286	3.985	rating_feeling	1154	559	Slaying of kin unrecognized	town	Text	task-narratives/Narrative4Situation1.txt
28.302	2.968	feeling_mouse_trajectory	1154	559	Slaying of kin unrecognized	town	Text	task-narratives/Narrative4Situation1.txt
31.335	2.185	rating_expectation	798	575	Slaying of kin unrecognized	town	Text	task-narratives/Narrative4Situation1.txt
32.702	0.818	expectation_mouse_trajectory	798	575	Slaying of kin unrecognized	town	Text	task-narratives/Narrative4Situation1.txt
40.403	24.797	narrative_presentation	n/a	n/a	Adultery	swamp	Text	task-narratives/Narrative4Situation2.txt
65.2	1.651	rating_feeling	1154	559	Adultery	swamp	Text	task-narratives/Narrative4Situation2.txt
66.1	0.751	feeling_mouse_trajectory	1154	559	Adultery	swamp	Text	task-narratives/Narrative4Situation2.txt
69.217	1.618	rating_expectation	798	575	Adultery	swamp	Text	task-narratives/Narrative4Situation2.txt
69.6	1.234	expectation_mouse_trajectory	798	575	Adultery	swamp	Text	task-narratives/Narrative4Situation2.txt
75.283	21.115	narrative_presentation	n/a	n/a	Revolt	town	Text	task-narratives/Narrative4Situation3.txt
96.398	1.97	rating_feeling	1154	559	Revolt	town	Text	task-narratives/Narrative4Situation3.txt
96.981	1.387	feeling_mouse_trajectory	1154	559	Revolt	town	Text	task-narratives/Narrative4Situation3.txt
100.429	1.435	rating_expectation	798	575	Revolt	town	Text	task-narratives/Narrative4Situation3.txt
100.462	1.402	expectation_mouse_trajectory	798	575	Revolt	town	Text	task-narratives/Narrative4Situation3.txt
105.494	21.112	narrative_presentation	n/a	n/a	Fatal imprudence	hospital	Text	task-narratives/Narrative4Situation4.txt
126.606	2.275	rating_feeling	1154	559	Fatal imprudence	hospital	Text	task-narratives/Narrative4Situation4.txt
127.556	1.325	feeling_mouse_trajectory	1154	559	Fatal imprudence	hospital	Text	task-narratives/Narrative4Situation4.txt
130.622	1.457	rating_expectation	798	575	Fatal imprudence	hospital	Text	task-narratives/Narrative4Situation4.txt
131.272	0.807	expectation_mouse_trajectory	798	575	Fatal imprudence	hospital	Text	task-narratives/Narrative4Situation4.txt
135.722	25.8	narrative_presentation	n/a	n/a	Deliverance	city	Text	task-narratives/Narrative4Situation5.txt
161.522	1.651	rating_feeling	1154	559	Deliverance	city	Text	task-narratives/Narrative4Situation5.txt
162.322	0.851	feeling_mouse_trajectory	1154	559	Deliverance	city	Text	task-narratives/Narrative4Situation5.txt
165.552	1.561	rating_expectation	798	575	Deliverance	city	Text	task-narratives/Narrative4Situation5.txt
166.036	1.077	expectation_mouse_trajectory	798	575	Deliverance	city	Text	task-narratives/Narrative4Situation5.txt
170.618	23.446	narrative_presentation	n/a	n/a	Necessity of sacrificing loved ones	hospital	Text	task-narratives/Narrative4Situation6.txt
194.064	1.201	rating_feeling	1154	559	Necessity of sacrificing loved ones	hospital	Text	task-narratives/Narrative4Situation6.txt
194.431	0.834	feeling_mouse_trajectory	1154	559	Necessity of sacrificing loved ones	hospital	Text	task-narratives/Narrative4Situation6.txt
198.081	1.251	rating_expectation	798	575	Necessity of sacrificing loved ones	hospital	Text	task-narratives/Narrative4Situation6.txt
198.431	0.901	expectation_mouse_trajectory	798	575	Necessity of sacrificing loved ones	hospital	Text	task-narratives/Narrative4Situation6.txt
203.147	19.093	narrative_presentation	n/a	n/a	Loss of loved one	forest	Text	task-narratives/Narrative4Situation7.txt
222.241	1.989	rating_feeling	1154	559	Loss of loved one	forest	Text	task-narratives/Narrative4Situation7.txt
222.974	1.256	feeling_mouse_trajectory	1154	559	Loss of loved one	forest	Text	task-narratives/Narrative4Situation7.txt
226.262	2.438	rating_expectation	798	575	Loss of loved one	forest	Text	task-narratives/Narrative4Situation7.txt
227.646	1.055	expectation_mouse_trajectory	798	575	Loss of loved one	forest	Text	task-narratives/Narrative4Situation7.txt
231.324	38.534	narrative_presentation	n/a	n/a	Crimes of love	prison	Text	task-narratives/Narrative4Situation8.txt
269.858	1.522	rating_feeling	1154	559	Crimes of love	prison	Text	task-narratives/Narrative4Situation8.txt
270.575	0.805	feeling_mouse_trajectory	1154	559	Crimes of love	prison	Text	task-narratives/Narrative4Situation8.txt
273.879	1.187	rating_expectation	798	575	Crimes of love	prison	Text	task-narratives/Narrative4Situation8.txt
274.212	0.854	expectation_mouse_trajectory	798	575	Crimes of love	prison	Text	task-narratives/Narrative4Situation8.txt
282.944	12.391	narrative_presentation	n/a	n/a	Discovery of dishonour of loved one	forest	Text	task-narratives/Narrative4Situation9.txt
295.335	1.718	rating_feeling	1154	559	Discovery of dishonour of loved one	forest	Text	task-narratives/Narrative4Situation9.txt
296.001	1.051	feeling_mouse_trajectory	1154	559	Discovery of dishonour of loved one	forest	Text	task-narratives/Narrative4Situation9.txt
299.352	1.201	rating_expectation	798	575	Discovery of dishonour of loved one	forest	Text	task-narratives/Narrative4Situation9.txt
299.752	0.801	expectation_mouse_trajectory	798	575	Discovery of dishonour of loved one	forest	Text	task-narratives/Narrative4Situation9.txt
309.42	32.165	narrative_presentation	n/a	n/a	Slaying of kin unrecognized	town	Text	task-narratives/Narrative3Situation1.txt
341.585	2.001	rating_feeling	1154	559	Slaying of kin unrecognized	town	Text	task-narratives/Narrative3Situation1.txt
342.385	1.201	feeling_mouse_trajectory	1154	559	Slaying of kin unrecognized	town	Text	task-narratives/Narrative3Situation1.txt
345.602	1.144	rating_expectation	798	575	Slaying of kin unrecognized	town	Text	task-narratives/Narrative3Situation1.txt
345.969	0.777	expectation_mouse_trajectory	798	575	Slaying of kin unrecognized	town	Text	task-narratives/Narrative3Situation1.txt
353.67	17.095	narrative_presentation	n/a	n/a	Adultery	swamp	Text	task-narratives/Narrative3Situation2.txt
370.765	2.384	rating_feeling	1154	559	Adultery	swamp	Text	task-narratives/Narrative3Situation2.txt
371.531	1.618	feeling_mouse_trajectory	1154	559	Adultery	swamp	Text	task-narratives/Narrative3Situation2.txt
374.78	1.417	rating_expectation	798	575	Adultery	swamp	Text	task-narratives/Narrative3Situation2.txt
375.213	0.984	expectation_mouse_trajectory	798	575	Adultery	swamp	Text	task-narratives/Narrative3Situation2.txt
380.847	10.391	narrative_presentation	n/a	n/a	Revolt	town	Text	task-narratives/Narrative3Situation3.txt
391.238	1.693	rating_feeling	1154	559	Revolt	town	Text	task-narratives/Narrative3Situation3.txt
392.371	0.56	feeling_mouse_trajectory	1154	559	Revolt	town	Text	task-narratives/Narrative3Situation3.txt
395.254	1.292	rating_expectation	798	575	Revolt	town	Text	task-narratives/Narrative3Situation3.txt
395.62	0.925	expectation_mouse_trajectory	798	575	Revolt	town	Text	task-narratives/Narrative3Situation3.txt
400.321	28.147	narrative_presentation	n/a	n/a	Fatal imprudence	hospital	Text	task-narratives/Narrative3Situation4.txt
428.468	1.801	rating_feeling	1154	559	Fatal imprudence	hospital	Text	task-narratives/Narrative3Situation4.txt
429.401	0.868	feeling_mouse_trajectory	1154	559	Fatal imprudence	hospital	Text	task-narratives/Narrative3Situation4.txt
432.485	1.234	rating_expectation	798	575	Fatal imprudence	hospital	Text	task-narratives/Narrative3Situation4.txt
432.802	0.917	expectation_mouse_trajectory	798	575	Fatal imprudence	hospital	Text	task-narratives/Narrative3Situation4.txt
439.552	15.078	narrative_presentation	n/a	n/a	Deliverance	city	Text	task-narratives/Narrative3Situation5.txt
454.63	1.686	rating_feeling	1154	559	Deliverance	city	Text	task-narratives/Narrative3Situation5.txt
455.48	0.836	feeling_mouse_trajectory	1154	559	Deliverance	city	Text	task-narratives/Narrative3Situation5.txt
458.646	1.651	rating_expectation	798	575	Deliverance	city	Text	task-narratives/Narrative3Situation5.txt
458.946	1.351	expectation_mouse_trajectory	798	575	Deliverance	city	Text	task-narratives/Narrative3Situation5.txt
465.712	15.075	narrative_presentation	n/a	n/a	Necessity of sacrificing loved ones	hospital	Text	task-narratives/Narrative3Situation6.txt
480.787	1.976	rating_feeling	1154	559	Necessity of sacrificing loved ones	hospital	Text	task-narratives/Narrative3Situation6.txt
481.804	0.96	feeling_mouse_trajectory	1154	559	Necessity of sacrificing loved ones	hospital	Text	task-narratives/Narrative3Situation6.txt
484.804	2.458	rating_expectation	798	575	Necessity of sacrificing loved ones	hospital	Text	task-narratives/Narrative3Situation6.txt
485.337	1.925	expectation_mouse_trajectory	798	575	Necessity of sacrificing loved ones	hospital	Text	task-narratives/Narrative3Situation6.txt
492.872	36.85	narrative_presentation	n/a	n/a	Loss of loved one	forest	Text	task-narratives/Narrative3Situation7.txt
529.722	2.542	rating_feeling	1154	559	Loss of loved one	forest	Text	task-narratives/Narrative3Situation7.txt
531.239	1.025	feeling_mouse_trajectory	1154	559	Loss of loved one	forest	Text	task-narratives/Narrative3Situation7.txt
533.739	1.307	rating_expectation	798	575	Loss of loved one	forest	Text	task-narratives/Narrative3Situation7.txt
534.156	0.89	expectation_mouse_trajectory	798	575	Loss of loved one	forest	Text	task-narratives/Narrative3Situation7.txt
539.823	9.708	narrative_presentation	n/a	n/a	Crimes of love	prison	Text	task-narratives/Narrative3Situation8.txt
549.531	1.751	rating_feeling	1154	559	Crimes of love	prison	Text	task-narratives/Narrative3Situation8.txt
550.047	1.234	feeling_mouse_trajectory	1154	559	Crimes of love	prison	Text	task-narratives/Narrative3Situation8.txt
553.547	1.401	rating_expectation	798	575	Crimes of love	prison	Text	task-narratives/Narrative3Situation8.txt
553.947	1.001	expectation_mouse_trajectory	798	575	Crimes of love	prison	Text	task-narratives/Narrative3Situation8.txt
558.613	27.485	narrative_presentation	n/a	n/a	Discovery of dishonour of loved one	forest	Text	task-narratives/Narrative3Situation9.txt
586.098	2.137	rating_feeling	1154	559	Discovery of dishonour of loved one	forest	Text	task-narratives/Narrative3Situation9.txt
586.714	1.521	feeling_mouse_trajectory	1154	559	Discovery of dishonour of loved one	forest	Text	task-narratives/Narrative3Situation9.txt
590.129	2.452	rating_expectation	798	575	Discovery of dishonour of loved one	forest	Text	task-narratives/Narrative3Situation9.txt
590.996	1.586	expectation_mouse_trajectory	798	575	Discovery of dishonour of loved one	forest	Text	task-narratives/Narrative3Situation9.txt
