onset	duration	trial_type	response_value	rating_type	expression	sex	race	age	stim_file
3.846	1.327	face	n/a	sex	happy	male	WC	old	task-faces/1Happy_Model3_2Male_1WC_2Old.mp4
5.173	1.438	rating	0.019	sex	happy	male	WC	old	n/a
5.99	0.621	rating_mouse_trajectory	0.019	sex	happy	male	WC	old	n/a
7.2	2.041	face	n/a	sex	pleasure	female	EA	young	task-faces/8Pleasure_Model1_1Female_2EA_1Young.mp4
9.242	0.969	rating	0.8584	sex	pleasure	female	EA	young	n/a
9.525	0.685	rating_mouse_trajectory	0.8584	sex	pleasure	female	EA	young	n/a
11.181	1.328	face	n/a	sex	disgust	male	African	old	task-faces/4Disgust_Model5_2Male_3African_2Old.mp4
12.509	0.752	rating	0.0	sex	disgust	male	African	old	n/a
12.743	0.519	rating_mouse_trajectory	0.0	sex	disgust	male	African	old	n/a
15.432	2.046	face	n/a	sex	pain	male	WC	old	task-faces/7Pain_Model2_2Male_1WC_2Old.mp4
17.478	0.835	rating	0.0	sex	pain	male	WC	old	n/a
17.761	0.552	rating_mouse_trajectory	0.0	sex	pain	male	WC	old	n/a
19.401	1.328	face	n/a	sex	anger	male	African	old	task-faces/5Anger_Model3_2Male_3African_2Old.mp4
20.729	0.968	rating	0.0	sex	anger	male	African	old	n/a
21.262	0.435	rating_mouse_trajectory	0.0	sex	anger	male	African	old	n/a
26.669	1.313	face	n/a	sex	happy	male	African	young	task-faces/1Happy_Model1_2Male_3African_1Young.mp4
27.982	0.861	rating	0.0	sex	happy	male	African	young	n/a
28.382	0.461	rating_mouse_trajectory	0.0	sex	happy	male	African	young	n/a
29.899	1.317	face	n/a	sex	disgust	male	African	young	task-faces/4Disgust_Model1_2Male_3African_1Young.mp4
31.216	1.685	rating	0.0	sex	disgust	male	African	young	n/a
31.466	1.435	rating_mouse_trajectory	0.0	sex	disgust	male	African	young	n/a
33.13	1.321	face	n/a	sex	fear	male	African	old	task-faces/3Fear_Model1_2Male_3African_2Old.mp4
34.451	0.708	rating	0.0	sex	fear	male	African	old	n/a
34.768	0.392	rating_mouse_trajectory	0.0	sex	fear	male	African	old	n/a
36.38	1.322	face	n/a	sex	fear	female	African	young	task-faces/3Fear_Model2_1Female_3African_1Young.mp4
37.702	0.651	rating	0.0	sex	fear	female	African	young	n/a
37.935	0.418	rating_mouse_trajectory	0.0	sex	fear	female	African	young	n/a
39.63	1.307	face	n/a	sex	happy	male	EA	young	task-faces/1Happy_Model1_2Male_2EA_1Young.mp4
40.937	0.939	rating	0.7249	sex	happy	male	EA	young	n/a
41.287	0.589	rating_mouse_trajectory	0.7249	sex	happy	male	EA	young	n/a
44.86	1.329	face	n/a	sex	fear	male	WC	old	task-faces/3Fear_Model3_2Male_1WC_2Old.mp4
46.189	0.737	rating	0.0	sex	fear	male	WC	old	n/a
46.439	0.487	rating_mouse_trajectory	0.0	sex	fear	male	WC	old	n/a
49.114	2.06	face	n/a	sex	pain	female	African	young	task-faces/7Pain_Model4_1Female_3African_1Young.mp4
51.174	1.152	rating	0.9434	sex	pain	female	African	young	n/a
51.257	1.069	rating_mouse_trajectory	0.9434	sex	pain	female	African	young	n/a
55.08	2.046	face	n/a	sex	pain	male	African	young	task-faces/7Pain_Model3_2Male_3African_1Young.mp4
57.126	0.651	rating	0.0	sex	pain	male	African	young	n/a
57.209	0.568	rating_mouse_trajectory	0.0	sex	pain	male	African	young	n/a
60.032	1.328	face	n/a	sex	disgust	female	WC	young	task-faces/4Disgust_Model2_1Female_1WC_1Young.mp4
61.361	0.785	rating	1.0	sex	disgust	female	WC	young	n/a
61.678	0.468	rating_mouse_trajectory	1.0	sex	disgust	female	WC	young	n/a
64.281	2.049	face	n/a	sex	pain	male	WC	young	task-faces/7Pain_Model4_2Male_1WC_1Young.mp4
66.329	0.685	rating	0.0	sex	pain	male	WC	young	n/a
66.579	0.435	rating_mouse_trajectory	0.0	sex	pain	male	WC	young	n/a
69.247	2.051	face	n/a	sex	pain	male	African	old	task-faces/7Pain_Model1_2Male_3African_2Old.mp4
71.298	0.718	rating	0.0	sex	pain	male	African	old	n/a
71.598	0.418	rating_mouse_trajectory	0.0	sex	pain	male	African	old	n/a
74.205	1.328	face	n/a	sex	surprise	male	EA	young	task-faces/2Surprise_Model4_2Male_2EA_1Young.mp4
75.533	0.743	rating	0.3042	sex	surprise	male	EA	young	n/a
75.883	0.393	rating_mouse_trajectory	0.3042	sex	surprise	male	EA	young	n/a
78.44	1.311	face	n/a	sex	fear	female	WC	young	task-faces/3Fear_Model5_1Female_1WC_1Young.mp4
79.751	0.685	rating	0.7249	sex	fear	female	WC	young	n/a
79.934	0.502	rating_mouse_trajectory	0.7249	sex	fear	female	WC	young	n/a
84.675	1.311	face	n/a	sex	surprise	female	EA	old	task-faces/2Surprise_Model3_1Female_2EA_2Old.mp4
85.987	0.955	rating	0.3811	sex	surprise	female	EA	old	n/a
86.537	0.405	rating_mouse_trajectory	0.3811	sex	surprise	female	EA	old	n/a
87.91	1.312	face	n/a	sex	anger	female	EA	young	task-faces/5Anger_Model5_1Female_2EA_1Young.mp4
89.221	1.088	rating	0.7957	sex	anger	female	EA	young	n/a
89.521	0.788	rating_mouse_trajectory	0.7957	sex	anger	female	EA	young	n/a
92.13	1.31	face	n/a	sex	happy	male	WC	young	task-faces/1Happy_Model5_2Male_1WC_1Young.mp4
93.44	0.67	rating	0.0	sex	happy	male	WC	young	n/a
93.723	0.386	rating_mouse_trajectory	0.0	sex	happy	male	WC	young	n/a
95.345	2.047	face	n/a	sex	pain	female	African	old	task-faces/7Pain_Model5_1Female_3African_2Old.mp4
97.391	0.751	rating	0.0	sex	pain	female	African	old	n/a
97.758	0.385	rating_mouse_trajectory	0.0	sex	pain	female	African	old	n/a
100.297	1.312	face	n/a	sex	anger	male	EA	old	task-faces/5Anger_Model2_2Male_2EA_2Old.mp4
101.609	0.735	rating	0.0	sex	anger	male	EA	old	n/a
101.959	0.385	rating_mouse_trajectory	0.0	sex	anger	male	EA	old	n/a
104.533	1.311	face	n/a	sex	disgust	male	WC	young	task-faces/4Disgust_Model3_2Male_1WC_1Young.mp4
105.844	0.785	rating	0.0	sex	disgust	male	WC	young	n/a
106.194	0.435	rating_mouse_trajectory	0.0	sex	disgust	male	WC	young	n/a
108.764	2.048	face	n/a	sex	pleasure	male	EA	old	task-faces/8Pleasure_Model5_2Male_2EA_2Old.mp4
110.813	0.718	rating	0.0	sex	pleasure	male	EA	old	n/a
111.129	0.401	rating_mouse_trajectory	0.0	sex	pleasure	male	EA	old	n/a
112.719	1.312	face	n/a	sex	sad	female	EA	young	task-faces/6Sad_Model2_1Female_2EA_1Young.mp4
114.031	1.135	rating	0.8159	sex	sad	female	EA	young	n/a
114.381	0.785	rating_mouse_trajectory	0.8159	sex	sad	female	EA	young	n/a
115.936	2.046	face	n/a	sex	pain	female	WC	old	task-faces/7Pain_Model4_1Female_1WC_2Old.mp4
117.982	0.685	rating	0.0	sex	pain	female	WC	old	n/a
118.282	0.385	rating_mouse_trajectory	0.0	sex	pain	female	WC	old	n/a
119.888	1.312	face	n/a	sex	sad	male	EA	young	task-faces/6Sad_Model3_2Male_2EA_1Young.mp4
121.2	0.809	rating	0.0	sex	sad	male	EA	young	n/a
121.6	0.409	rating_mouse_trajectory	0.0	sex	sad	male	EA	young	n/a
124.124	1.311	face	n/a	sex	disgust	female	WC	old	task-faces/4Disgust_Model1_1Female_1WC_2Old.mp4
125.435	0.991	rating	0.6784	sex	disgust	female	WC	old	n/a
125.785	0.641	rating_mouse_trajectory	0.6784	sex	disgust	female	WC	old	n/a
128.359	2.045	face	n/a	sex	pleasure	female	African	young	task-faces/8Pleasure_Model1_1Female_3African_1Young.mp4
130.403	0.972	rating	0.2031	sex	pleasure	female	African	young	n/a
130.67	0.706	rating_mouse_trajectory	0.2031	sex	pleasure	female	African	young	n/a
133.326	2.046	face	n/a	sex	pain	female	EA	old	task-faces/7Pain_Model2_1Female_2EA_2Old.mp4
135.372	0.837	rating	0.6339	sex	pain	female	EA	old	n/a
135.672	0.537	rating_mouse_trajectory	0.6339	sex	pain	female	EA	old	n/a
137.294	1.312	face	n/a	sex	anger	female	African	young	task-faces/5Anger_Model1_1Female_3African_1Young.mp4
138.606	0.853	rating	0.82	sex	anger	female	African	young	n/a
139.04	0.419	rating_mouse_trajectory	0.82	sex	anger	female	African	young	n/a
140.511	2.047	face	n/a	sex	pleasure	male	WC	old	task-faces/8Pleasure_Model3_2Male_1WC_2Old.mp4
142.558	0.718	rating	0.0	sex	pleasure	male	WC	old	n/a
142.891	0.385	rating_mouse_trajectory	0.0	sex	pleasure	male	WC	old	n/a
145.464	1.312	face	n/a	sex	fear	male	African	young	task-faces/3Fear_Model5_2Male_3African_1Young.mp4
146.776	0.818	rating	0.0	sex	fear	male	African	young	n/a
147.243	0.352	rating_mouse_trajectory	0.0	sex	fear	male	African	young	n/a
148.697	2.047	face	n/a	sex	pleasure	male	WC	young	task-faces/8Pleasure_Model4_2Male_1WC_1Young.mp4
150.744	0.685	rating	0.0	sex	pleasure	male	WC	young	n/a
151.044	0.385	rating_mouse_trajectory	0.0	sex	pleasure	male	WC	young	n/a
152.664	2.048	face	n/a	sex	pain	female	WC	young	task-faces/7Pain_Model1_1Female_1WC_1Young.mp4
154.712	1.068	rating	0.822	sex	pain	female	WC	young	n/a
155.062	0.718	rating_mouse_trajectory	0.822	sex	pain	female	WC	young	n/a
158.631	1.333	face	n/a	sex	sad	female	WC	young	task-faces/6Sad_Model4_1Female_1WC_1Young.mp4
159.964	0.918	rating	0.7512	sex	sad	female	WC	young	n/a
160.364	0.518	rating_mouse_trajectory	0.7512	sex	sad	female	WC	young	n/a
163.871	1.328	face	n/a	sex	happy	male	African	old	task-faces/1Happy_Model5_2Male_3African_2Old.mp4
165.2	0.702	rating	0.0	sex	happy	male	African	old	n/a
165.516	0.385	rating_mouse_trajectory	0.0	sex	happy	male	African	old	n/a
170.107	1.328	face	n/a	sex	surprise	male	WC	old	task-faces/2Surprise_Model2_2Male_1WC_2Old.mp4
171.435	0.707	rating	0.0	sex	surprise	male	WC	old	n/a
171.752	0.391	rating_mouse_trajectory	0.0	sex	surprise	male	WC	old	n/a
174.359	1.311	face	n/a	sex	disgust	female	African	young	task-faces/4Disgust_Model5_1Female_3African_1Young.mp4
175.67	1.223	rating	0.6804	sex	disgust	female	African	young	n/a
176.054	0.839	rating_mouse_trajectory	0.6804	sex	disgust	female	African	young	n/a
178.594	1.311	face	n/a	sex	happy	female	WC	young	task-faces/1Happy_Model5_1Female_1WC_1Young.mp4
179.905	0.804	rating	0.8948	sex	happy	female	WC	young	n/a
180.272	0.438	rating_mouse_trajectory	0.8948	sex	happy	female	WC	young	n/a
181.828	2.045	face	n/a	sex	pleasure	female	WC	old	task-faces/8Pleasure_Model3_1Female_1WC_2Old.mp4
183.873	0.669	rating	0.0	sex	pleasure	female	WC	old	n/a
184.173	0.369	rating_mouse_trajectory	0.0	sex	pleasure	female	WC	old	n/a
186.779	1.312	face	n/a	sex	fear	male	WC	young	task-faces/3Fear_Model4_2Male_1WC_1Young.mp4
188.092	0.718	rating	0.0	sex	fear	male	WC	young	n/a
188.442	0.368	rating_mouse_trajectory	0.0	sex	fear	male	WC	young	n/a
190.014	1.312	face	n/a	sex	happy	female	African	old	task-faces/1Happy_Model3_1Female_3African_2Old.mp4
191.326	0.718	rating	0.0	sex	happy	female	African	old	n/a
191.643	0.401	rating_mouse_trajectory	0.0	sex	happy	female	African	old	n/a
195.232	1.312	face	n/a	sex	surprise	male	WC	young	task-faces/2Surprise_Model5_2Male_1WC_1Young.mp4
196.545	0.685	rating	0.0	sex	surprise	male	WC	young	n/a
196.845	0.385	rating_mouse_trajectory	0.0	sex	surprise	male	WC	young	n/a
200.464	1.332	face	n/a	sex	anger	female	WC	young	task-faces/5Anger_Model4_1Female_1WC_1Young.mp4
201.797	1.068	rating	0.7977	sex	anger	female	WC	young	n/a
202.08	0.785	rating_mouse_trajectory	0.7977	sex	anger	female	WC	young	n/a
204.714	1.318	face	n/a	sex	surprise	female	African	young	task-faces/2Surprise_Model5_1Female_3African_1Young.mp4
206.032	1.668	rating	0.8402	sex	surprise	female	African	young	n/a
206.348	1.352	rating_mouse_trajectory	0.8402	sex	surprise	female	African	young	n/a
208.948	1.302	face	n/a	sex	surprise	female	WC	old	task-faces/2Surprise_Model2_1Female_1WC_2Old.mp4
210.25	1.043	rating	0.5752	sex	surprise	female	WC	old	n/a
210.616	0.676	rating_mouse_trajectory	0.5752	sex	surprise	female	WC	old	n/a
213.168	1.3	face	n/a	sex	sad	male	WC	young	task-faces/6Sad_Model2_2Male_1WC_1Young.mp4
214.468	0.675	rating	0.0	sex	sad	male	WC	young	n/a
214.785	0.358	rating_mouse_trajectory	0.0	sex	sad	male	WC	young	n/a
217.398	1.305	face	n/a	sex	surprise	female	African	old	task-faces/2Surprise_Model4_1Female_3African_2Old.mp4
218.703	0.707	rating	0.0	sex	surprise	female	African	old	n/a
219.02	0.39	rating_mouse_trajectory	0.0	sex	surprise	female	African	old	n/a
221.63	1.308	face	n/a	sex	anger	male	WC	old	task-faces/5Anger_Model4_2Male_1WC_2Old.mp4
222.938	0.705	rating	0.0	sex	anger	male	WC	old	n/a
223.238	0.405	rating_mouse_trajectory	0.0	sex	anger	male	WC	old	n/a
225.847	1.309	face	n/a	sex	happy	female	EA	young	task-faces/1Happy_Model5_1Female_2EA_1Young.mp4
227.156	0.77	rating	1.0	sex	happy	female	EA	young	n/a
227.523	0.403	rating_mouse_trajectory	1.0	sex	happy	female	EA	young	n/a
230.084	1.307	face	n/a	sex	disgust	female	EA	young	task-faces/4Disgust_Model4_1Female_2EA_1Young.mp4
231.391	0.685	rating	1.0	sex	disgust	female	EA	young	n/a
231.691	0.385	rating_mouse_trajectory	1.0	sex	disgust	female	EA	young	n/a
233.295	1.314	face	n/a	sex	surprise	female	WC	young	task-faces/2Surprise_Model3_1Female_1WC_1Young.mp4
234.609	0.801	rating	0.3002	sex	surprise	female	WC	young	n/a
234.959	0.451	rating_mouse_trajectory	0.3002	sex	surprise	female	WC	young	n/a
236.513	2.047	face	n/a	sex	pain	female	EA	young	task-faces/7Pain_Model2_1Female_2EA_1Young.mp4
238.56	0.751	rating	0.8261	sex	pain	female	EA	young	n/a
238.86	0.451	rating_mouse_trajectory	0.8261	sex	pain	female	EA	young	n/a
242.482	1.314	face	n/a	sex	sad	female	African	old	task-faces/6Sad_Model1_1Female_3African_2Old.mp4
243.796	1.168	rating	0.197	sex	sad	female	African	old	n/a
244.479	0.485	rating_mouse_trajectory	0.197	sex	sad	female	African	old	n/a
245.718	1.312	face	n/a	sex	surprise	male	EA	old	task-faces/2Surprise_Model4_2Male_2EA_2Old.mp4
247.03	0.668	rating	0.0	sex	surprise	male	EA	old	n/a
247.364	0.335	rating_mouse_trajectory	0.0	sex	surprise	male	EA	old	n/a
252.937	1.312	face	n/a	sex	surprise	male	African	old	task-faces/2Surprise_Model2_2Male_3African_2Old.mp4
254.25	0.743	rating	0.0	sex	surprise	male	African	old	n/a
254.616	0.377	rating_mouse_trajectory	0.0	sex	surprise	male	African	old	n/a
256.155	1.312	face	n/a	sex	anger	female	EA	old	task-faces/5Anger_Model5_1Female_2EA_2Old.mp4
257.467	0.825	rating	0.1121	sex	anger	female	EA	old	n/a
257.801	0.492	rating_mouse_trajectory	0.1121	sex	anger	female	EA	old	n/a
260.398	1.305	face	n/a	sex	sad	female	African	young	task-faces/6Sad_Model3_1Female_3African_1Young.mp4
261.702	1.14	rating	0.0	sex	sad	female	African	young	n/a
262.036	0.807	rating_mouse_trajectory	0.0	sex	sad	female	African	young	n/a
264.626	1.311	face	n/a	sex	sad	female	WC	old	task-faces/6Sad_Model2_1Female_1WC_2Old.mp4
265.937	1.222	rating	0.1687	sex	sad	female	WC	old	n/a
266.571	0.589	rating_mouse_trajectory	0.1687	sex	sad	female	WC	old	n/a
268.861	2.045	face	n/a	sex	pleasure	male	EA	young	task-faces/8Pleasure_Model2_2Male_2EA_1Young.mp4
270.906	0.687	rating	0.0	sex	pleasure	male	EA	young	n/a
271.172	0.42	rating_mouse_trajectory	0.0	sex	pleasure	male	EA	young	n/a
272.813	2.044	face	n/a	sex	pleasure	female	EA	old	task-faces/8Pleasure_Model1_1Female_2EA_2Old.mp4
274.857	1.185	rating	0.5409	sex	pleasure	female	EA	old	n/a
275.424	0.619	rating_mouse_trajectory	0.5409	sex	pleasure	female	EA	old	n/a
277.763	1.312	face	n/a	sex	surprise	female	EA	young	task-faces/2Surprise_Model5_1Female_2EA_1Young.mp4
279.075	0.885	rating	0.6663	sex	surprise	female	EA	young	n/a
279.459	0.501	rating_mouse_trajectory	0.6663	sex	surprise	female	EA	young	n/a
280.979	1.314	face	n/a	sex	happy	female	African	young	task-faces/1Happy_Model3_1Female_3African_1Young.mp4
282.293	0.785	rating	0.0	sex	happy	female	African	young	n/a
282.71	0.368	rating_mouse_trajectory	0.0	sex	happy	female	African	young	n/a
285.217	2.045	face	n/a	sex	pleasure	male	African	old	task-faces/8Pleasure_Model3_2Male_3African_2Old.mp4
287.262	0.685	rating	0.0	sex	pleasure	male	African	old	n/a
287.529	0.418	rating_mouse_trajectory	0.0	sex	pleasure	male	African	old	n/a
290.181	1.315	face	n/a	sex	surprise	male	African	young	task-faces/2Surprise_Model5_2Male_3African_1Young.mp4
291.497	0.702	rating	0.0	sex	surprise	male	African	young	n/a
291.813	0.385	rating_mouse_trajectory	0.0	sex	surprise	male	African	young	n/a
293.402	1.313	face	n/a	sex	disgust	male	WC	old	task-faces/4Disgust_Model2_2Male_1WC_2Old.mp4
294.715	0.651	rating	0.0	sex	disgust	male	WC	old	n/a
295.048	0.318	rating_mouse_trajectory	0.0	sex	disgust	male	WC	old	n/a
298.621	1.312	face	n/a	sex	anger	male	EA	young	task-faces/5Anger_Model2_2Male_2EA_1Young.mp4
299.933	0.735	rating	0.0534	sex	anger	male	EA	young	n/a
300.25	0.418	rating_mouse_trajectory	0.0534	sex	anger	male	EA	young	n/a
302.84	1.311	face	n/a	sex	anger	male	WC	young	task-faces/5Anger_Model1_2Male_1WC_1Young.mp4
304.151	0.924	rating	0.646	sex	anger	male	WC	young	n/a
304.618	0.458	rating_mouse_trajectory	0.646	sex	anger	male	WC	young	n/a
307.076	1.311	face	n/a	sex	happy	male	EA	old	task-faces/1Happy_Model3_2Male_2EA_2Old.mp4
308.386	0.773	rating	0.0	sex	happy	male	EA	old	n/a
308.753	0.406	rating_mouse_trajectory	0.0	sex	happy	male	EA	old	n/a
310.309	2.046	face	n/a	sex	pleasure	female	WC	young	task-faces/8Pleasure_Model5_1Female_1WC_1Young.mp4
312.355	0.905	rating	0.0	sex	pleasure	female	WC	young	n/a
312.688	0.572	rating_mouse_trajectory	0.0	sex	pleasure	female	WC	young	n/a
314.263	1.31	face	n/a	sex	fear	female	African	old	task-faces/3Fear_Model3_1Female_3African_2Old.mp4
315.572	0.754	rating	0.0	sex	fear	female	African	old	n/a
315.906	0.42	rating_mouse_trajectory	0.0	sex	fear	female	African	old	n/a
318.498	1.309	face	n/a	sex	fear	female	EA	old	task-faces/3Fear_Model4_1Female_2EA_2Old.mp4
319.807	1.119	rating	0.7128	sex	fear	female	EA	old	n/a
320.174	0.752	rating_mouse_trajectory	0.7128	sex	fear	female	EA	old	n/a
322.714	1.312	face	n/a	sex	sad	female	EA	old	task-faces/6Sad_Model3_1Female_2EA_2Old.mp4
324.026	1.102	rating	0.7714	sex	sad	female	EA	old	n/a
324.426	0.702	rating_mouse_trajectory	0.7714	sex	sad	female	EA	old	n/a
326.932	1.312	face	n/a	sex	disgust	female	EA	old	task-faces/4Disgust_Model5_1Female_2EA_2Old.mp4
328.244	1.435	rating	0.8908	sex	disgust	female	EA	old	n/a
328.527	1.152	rating_mouse_trajectory	0.8908	sex	disgust	female	EA	old	n/a
330.164	1.314	face	n/a	sex	sad	male	EA	old	task-faces/6Sad_Model1_2Male_2EA_2Old.mp4
331.478	0.751	rating	0.0	sex	sad	male	EA	old	n/a
331.795	0.435	rating_mouse_trajectory	0.0	sex	sad	male	EA	old	n/a
335.402	2.045	face	n/a	sex	pain	male	EA	old	task-faces/7Pain_Model3_2Male_2EA_2Old.mp4
337.447	1.552	rating	0.0	sex	pain	male	EA	old	n/a
337.831	1.169	rating_mouse_trajectory	0.0	sex	pain	male	EA	old	n/a
340.364	1.318	face	n/a	sex	sad	male	WC	old	task-faces/6Sad_Model2_2Male_1WC_2Old.mp4
341.682	0.718	rating	0.0	sex	sad	male	WC	old	n/a
341.982	0.418	rating_mouse_trajectory	0.0	sex	sad	male	WC	old	n/a
345.588	1.313	face	n/a	sex	fear	male	EA	young	task-faces/3Fear_Model4_2Male_2EA_1Young.mp4
346.901	0.668	rating	0.0	sex	fear	male	EA	young	n/a
347.151	0.418	rating_mouse_trajectory	0.0	sex	fear	male	EA	young	n/a
349.825	2.045	face	n/a	sex	pleasure	male	African	young	task-faces/8Pleasure_Model3_2Male_3African_1Young.mp4
351.869	0.84	rating	0.0	sex	pleasure	male	African	young	n/a
352.269	0.44	rating_mouse_trajectory	0.0	sex	pleasure	male	African	young	n/a
354.793	1.311	face	n/a	sex	sad	male	African	young	task-faces/6Sad_Model4_2Male_3African_1Young.mp4
356.104	0.789	rating	0.0	sex	sad	male	African	young	n/a
356.404	0.489	rating_mouse_trajectory	0.0	sex	sad	male	African	young	n/a
360.028	2.045	face	n/a	sex	pain	male	EA	young	task-faces/7Pain_Model1_2Male_2EA_1Young.mp4
362.073	0.686	rating	0.0	sex	pain	male	EA	young	n/a
362.323	0.436	rating_mouse_trajectory	0.0	sex	pain	male	EA	young	n/a
363.997	1.311	face	n/a	sex	disgust	male	EA	young	task-faces/4Disgust_Model4_2Male_2EA_1Young.mp4
365.308	0.702	rating	0.0	sex	disgust	male	EA	young	n/a
365.641	0.369	rating_mouse_trajectory	0.0	sex	disgust	male	EA	young	n/a
367.211	1.314	face	n/a	sex	happy	female	EA	old	task-faces/1Happy_Model3_1Female_2EA_2Old.mp4
368.526	0.701	rating	0.7128	sex	happy	female	EA	old	n/a
368.759	0.468	rating_mouse_trajectory	0.7128	sex	happy	female	EA	old	n/a
372.432	1.312	face	n/a	sex	fear	male	EA	old	task-faces/3Fear_Model4_2Male_2EA_2Old.mp4
373.744	0.668	rating	0.0	sex	fear	male	EA	old	n/a
374.044	0.368	rating_mouse_trajectory	0.0	sex	fear	male	EA	old	n/a
376.664	1.315	face	n/a	sex	sad	male	African	old	task-faces/6Sad_Model1_2Male_3African_2Old.mp4
377.979	0.685	rating	0.0	sex	sad	male	African	old	n/a
378.262	0.401	rating_mouse_trajectory	0.0	sex	sad	male	African	old	n/a
380.898	1.316	face	n/a	sex	anger	female	African	old	task-faces/5Anger_Model2_1Female_3African_2Old.mp4
382.214	0.635	rating	0.0	sex	anger	female	African	old	n/a
382.431	0.418	rating_mouse_trajectory	0.0	sex	anger	female	African	old	n/a
387.121	2.046	face	n/a	sex	pleasure	female	African	old	task-faces/8Pleasure_Model5_1Female_3African_2Old.mp4
389.167	0.668	rating	0.0	sex	pleasure	female	African	old	n/a
389.417	0.418	rating_mouse_trajectory	0.0	sex	pleasure	female	African	old	n/a
391.072	1.312	face	n/a	sex	disgust	male	EA	old	task-faces/4Disgust_Model2_2Male_2EA_2Old.mp4
392.384	0.908	rating	0.6663	sex	disgust	male	EA	old	n/a
392.868	0.425	rating_mouse_trajectory	0.6663	sex	disgust	male	EA	old	n/a
396.308	1.312	face	n/a	sex	disgust	female	African	old	task-faces/4Disgust_Model5_1Female_3African_2Old.mp4
397.62	0.773	rating	0.0	sex	disgust	female	African	old	n/a
397.886	0.506	rating_mouse_trajectory	0.0	sex	disgust	female	African	old	n/a
400.543	1.311	face	n/a	sex	fear	female	EA	young	task-faces/3Fear_Model1_1Female_2EA_1Young.mp4
401.855	0.905	rating	1.0	sex	fear	female	EA	young	n/a
402.205	0.555	rating_mouse_trajectory	1.0	sex	fear	female	EA	young	n/a
405.764	1.309	face	n/a	sex	fear	female	WC	old	task-faces/3Fear_Model5_1Female_1WC_2Old.mp4
407.073	0.903	rating	0.6744	sex	fear	female	WC	old	n/a
407.357	0.619	rating_mouse_trajectory	0.6744	sex	fear	female	WC	old	n/a
409.981	1.31	face	n/a	sex	anger	female	WC	old	task-faces/5Anger_Model4_1Female_1WC_2Old.mp4
411.291	1.435	rating	0.7431	sex	anger	female	WC	old	n/a
411.691	1.035	rating_mouse_trajectory	0.7431	sex	anger	female	WC	old	n/a
413.196	1.314	face	n/a	sex	anger	male	African	young	task-faces/5Anger_Model5_2Male_3African_1Young.mp4
414.509	0.685	rating	0.0	sex	anger	male	African	young	n/a
414.843	0.351	rating_mouse_trajectory	0.0	sex	anger	male	African	young	n/a
416.432	1.312	face	n/a	sex	happy	female	WC	old	task-faces/1Happy_Model2_1Female_1WC_2Old.mp4
417.744	0.968	rating	0.0	sex	happy	female	WC	old	n/a
418.077	0.635	rating_mouse_trajectory	0.0	sex	happy	female	WC	old	n/a
