onset	duration	run_type	trial_type	trial_index	cue	stimulusintensity	rating_value	rating_glmslabel	rating_value_fillna	rating_glmslabel_fillna	rating_mouseonset	rating_mousedur	stim_file	pain_onset_ttl1	pain_onset_ttl2	pain_onset_ttl3	pain_onset_ttl4	pain_stimulus_delivery_success	cognitive_correct_response	cognitive_participant_response	cognitive_response_accuracy
5.69	0.99	cognitive	cue	1	low_cue	n/a	n/a	n/a	n/a	n/a	n/a	n/a	n/a	n/a	n/a	n/a	n/a	n/a	n/a	n/a	n/a
7.71	3.58	cognitive	expectrating	1	low_cue	n/a	6.9	Weak	6.9	Weak	2.52	1.07	task-social/cue/runtype-cognitive/scl/l015.png	n/a	n/a	n/a	n/a	n/a	n/a	n/a	n/a
15.71	5.0	cognitive	stimulus	1	low_cue	med_stim	n/a	n/a	n/a	n/a	n/a	n/a	task-social/stim/runtype-cognitive/35_100_R.jpg	n/a	n/a	n/a	n/a	n/a	diff	diff	True
27.9	2.21	cognitive	outcomerating	1	low_cue	med_stim	8.73	Weak	8.73	Weak	0.28	1.92	task-social/outcomerating/task-cognitive_scale.png	n/a	n/a	n/a	n/a	n/a	n/a	n/a	n/a
33.4	0.98	cognitive	cue	2	low_cue	n/a	n/a	n/a	n/a	n/a	n/a	n/a	n/a	n/a	n/a	n/a	n/a	n/a	n/a	n/a	n/a
35.7	1.07	cognitive	expectrating	2	low_cue	n/a	6.55	Weak	6.55	Weak	0.32	0.76	task-social/cue/runtype-cognitive/scl/l017.png	n/a	n/a	n/a	n/a	n/a	n/a	n/a	n/a
46.5	5.0	cognitive	stimulus	2	low_cue	low_stim	n/a	n/a	n/a	n/a	n/a	n/a	task-social/stim/runtype-cognitive/27_50.jpg	n/a	n/a	n/a	n/a	n/a	same	n/a	False
55.41	2.72	cognitive	outcomerating	2	low_cue	low_stim	8.82	Weak	8.82	Weak	0.92	1.8	task-social/outcomerating/task-cognitive_scale.png	n/a	n/a	n/a	n/a	n/a	n/a	n/a	n/a
71.1	0.99	cognitive	cue	3	low_cue	n/a	n/a	n/a	n/a	n/a	n/a	n/a	n/a	n/a	n/a	n/a	n/a	n/a	n/a	n/a	n/a
73.4	1.32	cognitive	expectrating	3	low_cue	n/a	15.09	Moderate	15.09	Moderate	0.05	1.27	task-social/cue/runtype-cognitive/scl/l041.png	n/a	n/a	n/a	n/a	n/a	n/a	n/a	n/a
84.2	5.0	cognitive	stimulus	3	low_cue	high_stim	n/a	n/a	n/a	n/a	n/a	n/a	task-social/stim/runtype-cognitive/27_150.jpg	n/a	n/a	n/a	n/a	n/a	same	same	True
93.3	1.92	cognitive	outcomerating	3	low_cue	high_stim	9.73	Weak	9.73	Weak	1.05	0.87	task-social/outcomerating/task-cognitive_scale.png	n/a	n/a	n/a	n/a	n/a	n/a	n/a	n/a
100.69	0.99	cognitive	cue	4	high_cue	n/a	n/a	n/a	n/a	n/a	n/a	n/a	n/a	n/a	n/a	n/a	n/a	n/a	n/a	n/a	n/a
103.49	0.98	cognitive	expectrating	4	high_cue	n/a	57.78	Strong	57.78	Strong	0.05	0.93	task-social/cue/runtype-cognitive/sch/h051.png	n/a	n/a	n/a	n/a	n/a	n/a	n/a	n/a
114.8	5.0	cognitive	stimulus	4	high_cue	low_stim	n/a	n/a	n/a	n/a	n/a	n/a	task-social/stim/runtype-cognitive/18_50_R.jpg	n/a	n/a	n/a	n/a	n/a	diff	diff	True
124.7	2.69	cognitive	outcomerating	4	high_cue	low_stim	6.9	Weak	6.9	Weak	1.05	1.64	task-social/outcomerating/task-cognitive_scale.png	n/a	n/a	n/a	n/a	n/a	n/a	n/a	n/a
135.8	0.98	cognitive	cue	5	high_cue	n/a	n/a	n/a	n/a	n/a	n/a	n/a	n/a	n/a	n/a	n/a	n/a	n/a	n/a	n/a	n/a
137.5	1.33	cognitive	expectrating	5	high_cue	n/a	18.0	Moderate	18.0	Moderate	0.47	0.87	task-social/cue/runtype-cognitive/sch/h027.png	n/a	n/a	n/a	n/a	n/a	n/a	n/a	n/a
149.81	5.0	cognitive	stimulus	5	high_cue	med_stim	n/a	n/a	n/a	n/a	n/a	n/a	task-social/stim/runtype-cognitive/43_100_R.jpg	n/a	n/a	n/a	n/a	n/a	diff	diff	True
159.7	2.44	cognitive	outcomerating	5	high_cue	med_stim	5.55	Weak	5.55	Weak	0.6	1.84	task-social/outcomerating/task-cognitive_scale.png	n/a	n/a	n/a	n/a	n/a	n/a	n/a	n/a
170.6	0.98	cognitive	cue	6	high_cue	n/a	n/a	n/a	n/a	n/a	n/a	n/a	n/a	n/a	n/a	n/a	n/a	n/a	n/a	n/a	n/a
172.4	1.07	cognitive	expectrating	6	high_cue	n/a	35.35	Strong	35.35	Strong	0.3	0.77	task-social/cue/runtype-cognitive/sch/h052.png	n/a	n/a	n/a	n/a	n/a	n/a	n/a	n/a
181.0	5.0	cognitive	stimulus	6	high_cue	high_stim	n/a	n/a	n/a	n/a	n/a	n/a	task-social/stim/runtype-cognitive/44_150.jpg	n/a	n/a	n/a	n/a	n/a	same	same	True
190.89	2.42	cognitive	outcomerating	6	high_cue	high_stim	27.69	Moderate	27.69	Moderate	0.75	1.67	task-social/outcomerating/task-cognitive_scale.png	n/a	n/a	n/a	n/a	n/a	n/a	n/a	n/a
196.89	0.99	cognitive	cue	7	high_cue	n/a	n/a	n/a	n/a	n/a	n/a	n/a	n/a	n/a	n/a	n/a	n/a	n/a	n/a	n/a	n/a
199.89	1.47	cognitive	expectrating	7	high_cue	n/a	14.55	Moderate	14.55	Moderate	0.75	0.72	task-social/cue/runtype-cognitive/sch/h030.png	n/a	n/a	n/a	n/a	n/a	n/a	n/a	n/a
212.2	5.0	cognitive	stimulus	7	high_cue	low_stim	n/a	n/a	n/a	n/a	n/a	n/a	task-social/stim/runtype-cognitive/10_50_R.jpg	n/a	n/a	n/a	n/a	n/a	diff	diff	True
231.01	1.83	cognitive	outcomerating	7	high_cue	low_stim	9.27	Weak	9.27	Weak	1.05	0.78	task-social/outcomerating/task-cognitive_scale.png	n/a	n/a	n/a	n/a	n/a	n/a	n/a	n/a
236.99	0.99	cognitive	cue	8	low_cue	n/a	n/a	n/a	n/a	n/a	n/a	n/a	n/a	n/a	n/a	n/a	n/a	n/a	n/a	n/a	n/a
239.71	1.63	cognitive	expectrating	8	low_cue	n/a	13.42	Moderate	13.42	Moderate	0.28	1.35	task-social/cue/runtype-cognitive/scl/l026.png	n/a	n/a	n/a	n/a	n/a	n/a	n/a	n/a
251.3	5.0	cognitive	stimulus	8	low_cue	high_stim	n/a	n/a	n/a	n/a	n/a	n/a	task-social/stim/runtype-cognitive/38_150_R.jpg	n/a	n/a	n/a	n/a	n/a	diff	diff	True
259.3	3.64	cognitive	outcomerating	8	low_cue	high_stim	12.18	Moderate	12.18	Moderate	2.3	1.34	task-social/outcomerating/task-cognitive_scale.png	n/a	n/a	n/a	n/a	n/a	n/a	n/a	n/a
268.3	0.98	cognitive	cue	9	high_cue	n/a	n/a	n/a	n/a	n/a	n/a	n/a	n/a	n/a	n/a	n/a	n/a	n/a	n/a	n/a	n/a
271.3	1.23	cognitive	expectrating	9	high_cue	n/a	34.33	Strong	34.33	Strong	0.18	1.05	task-social/cue/runtype-cognitive/sch/h029.png	n/a	n/a	n/a	n/a	n/a	n/a	n/a	n/a
279.21	5.0	cognitive	stimulus	9	high_cue	high_stim	n/a	n/a	n/a	n/a	n/a	n/a	task-social/stim/runtype-cognitive/42_150.jpg	n/a	n/a	n/a	n/a	n/a	same	same	True
295.7	1.87	cognitive	outcomerating	9	high_cue	high_stim	19.16	Moderate	19.16	Moderate	0.82	1.06	task-social/outcomerating/task-cognitive_scale.png	n/a	n/a	n/a	n/a	n/a	n/a	n/a	n/a
301.9	0.98	cognitive	cue	10	low_cue	n/a	n/a	n/a	n/a	n/a	n/a	n/a	n/a	n/a	n/a	n/a	n/a	n/a	n/a	n/a	n/a
304.2	2.02	cognitive	expectrating	10	low_cue	n/a	8.73	Weak	8.73	Weak	0.47	1.55	task-social/cue/runtype-cognitive/scl/l024.png	n/a	n/a	n/a	n/a	n/a	n/a	n/a	n/a
316.5	5.0	cognitive	stimulus	10	low_cue	med_stim	n/a	n/a	n/a	n/a	n/a	n/a	task-social/stim/runtype-cognitive/47_100.jpg	n/a	n/a	n/a	n/a	n/a	same	same	True
327.69	n/a	cognitive	outcomerating	10	low_cue	med_stim	n/a	n/a	n/a	n/a	n/a	n/a	task-social/outcomerating/task-cognitive_scale.png	n/a	n/a	n/a	n/a	n/a	n/a	n/a	n/a
333.89	0.99	cognitive	cue	11	high_cue	n/a	n/a	n/a	n/a	n/a	n/a	n/a	n/a	n/a	n/a	n/a	n/a	n/a	n/a	n/a	n/a
336.91	1.7	cognitive	expectrating	11	high_cue	n/a	16.45	Moderate	16.45	Moderate	0.47	1.23	task-social/cue/runtype-cognitive/sch/h036.png	n/a	n/a	n/a	n/a	n/a	n/a	n/a	n/a
349.2	5.0	cognitive	stimulus	11	high_cue	med_stim	n/a	n/a	n/a	n/a	n/a	n/a	task-social/stim/runtype-cognitive/18_100_R.jpg	n/a	n/a	n/a	n/a	n/a	diff	diff	True
361.6	1.67	cognitive	outcomerating	11	high_cue	med_stim	27.29	Moderate	27.29	Moderate	0.6	1.07	task-social/outcomerating/task-cognitive_scale.png	n/a	n/a	n/a	n/a	n/a	n/a	n/a	n/a
372.49	0.99	cognitive	cue	12	low_cue	n/a	n/a	n/a	n/a	n/a	n/a	n/a	n/a	n/a	n/a	n/a	n/a	n/a	n/a	n/a	n/a
375.49	2.58	cognitive	expectrating	12	low_cue	n/a	29.84	Strong	29.84	Strong	0.05	2.53	task-social/cue/runtype-cognitive/scl/l010.png	n/a	n/a	n/a	n/a	n/a	n/a	n/a	n/a
383.4	5.0	cognitive	stimulus	12	low_cue	low_stim	n/a	n/a	n/a	n/a	n/a	n/a	task-social/stim/runtype-cognitive/35_50_R.jpg	n/a	n/a	n/a	n/a	n/a	diff	diff	True
394.7	3.4	cognitive	outcomerating	12	low_cue	low_stim	12.35	Moderate	12.35	Moderate	0.18	3.22	task-social/outcomerating/task-cognitive_scale.png	n/a	n/a	n/a	n/a	n/a	n/a	n/a	n/a
