onset	duration	run_type	trial_type	trial_index	cue	stimulusintensity	rating_value	rating_glmslabel	rating_value_fillna	rating_glmslabel_fillna	rating_mouseonset	rating_mousedur	stim_file	pain_onset_ttl1	pain_onset_ttl2	pain_onset_ttl3	pain_onset_ttl4	pain_stimulus_delivery_success	cognitive_correct_response	cognitive_participant_response	cognitive_response_accuracy
5.69	1.0	pain	cue	1	low_cue	n/a	n/a	n/a	n/a	n/a	n/a	n/a	task-social/cue/runtype-pain/scl/l021.png	n/a	n/a	n/a	n/a	n/a	n/a	n/a	n/a
7.73	2.28	pain	expectrating	1	low_cue	n/a	0	n/a	0	n/a	0.07	2.21	task-social/cue/runtype-pain/scl/l021.png	n/a	n/a	n/a	n/a	n/a	n/a	n/a	n/a
13.77	12.36	pain	stimulus	1	low_cue	med_stim	n/a	n/a	n/a	n/a	n/a	n/a	n/a	13.77	17.53	22.53	26.14	fail	n/a	n/a	n/a
27.88	2.2	pain	outcomerating	1	low_cue	med_stim	0	n/a	0	n/a	0.03	2.17	task-social/outcomerating/task-pain_scale.png	n/a	n/a	n/a	n/a	fail	n/a	n/a	n/a
33.39	1.0	pain	cue	2	low_cue	n/a	n/a	n/a	n/a	n/a	n/a	n/a	task-social/cue/runtype-pain/scl/l014.png	n/a	n/a	n/a	n/a	n/a	n/a	n/a	n/a
35.69	2.28	pain	expectrating	2	low_cue	n/a	0	n/a	0	n/a	0.08	2.2	task-social/cue/runtype-pain/scl/l014.png	n/a	n/a	n/a	n/a	n/a	n/a	n/a	n/a
44.52	11.909999999999997	pain	stimulus	2	low_cue	low_stim	n/a	n/a	n/a	n/a	n/a	n/a	n/a	44.52	48.02	53.02	56.42	fail	n/a	n/a	n/a
55.39	3.15	pain	outcomerating	2	low_cue	low_stim	0	n/a	0	n/a	0.38	2.77	task-social/outcomerating/task-pain_scale.png	n/a	n/a	n/a	n/a	fail	n/a	n/a	n/a
71.08	1.0	pain	cue	3	low_cue	n/a	n/a	n/a	n/a	n/a	n/a	n/a	task-social/cue/runtype-pain/scl/l023.png	n/a	n/a	n/a	n/a	n/a	n/a	n/a	n/a
73.4	2.62	pain	expectrating	3	low_cue	n/a	0	n/a	0	n/a	0.48	2.13	task-social/cue/runtype-pain/scl/l023.png	n/a	n/a	n/a	n/a	n/a	n/a	n/a	n/a
82.23	12.819999999999993	pain	stimulus	3	low_cue	high_stim	n/a	n/a	n/a	n/a	n/a	n/a	n/a	82.23	86.24	91.24	95.05	fail	n/a	n/a	n/a
93.29	1.85	pain	outcomerating	3	low_cue	high_stim	0	n/a	0	n/a	0.33	1.52	task-social/outcomerating/task-pain_scale.png	n/a	n/a	n/a	n/a	fail	n/a	n/a	n/a
100.7	1.0	pain	cue	4	high_cue	n/a	n/a	n/a	n/a	n/a	n/a	n/a	task-social/cue/runtype-pain/sch/h043.png	n/a	n/a	n/a	n/a	n/a	n/a	n/a	n/a
103.5	3.41	pain	expectrating	4	high_cue	n/a	0	n/a	0	n/a	0.58	2.82	task-social/cue/runtype-pain/sch/h043.png	n/a	n/a	n/a	n/a	n/a	n/a	n/a	n/a
112.83	11.900000000000006	pain	stimulus	4	high_cue	low_stim	n/a	n/a	n/a	n/a	n/a	n/a	n/a	112.83	116.33	121.33	124.73	fail	n/a	n/a	n/a
124.69	1.93	pain	outcomerating	4	high_cue	low_stim	0	n/a	0	n/a	0.42	1.52	task-social/outcomerating/task-pain_scale.png	n/a	n/a	n/a	n/a	fail	n/a	n/a	n/a
135.79	1.0	pain	cue	5	high_cue	n/a	n/a	n/a	n/a	n/a	n/a	n/a	task-social/cue/runtype-pain/sch/h018.png	n/a	n/a	n/a	n/a	n/a	n/a	n/a	n/a
137.49	3.63	pain	expectrating	5	high_cue	n/a	0	n/a	0	n/a	1.07	2.57	task-social/cue/runtype-pain/sch/h018.png	n/a	n/a	n/a	n/a	n/a	n/a	n/a	n/a
147.81	12.359999999999985	pain	stimulus	5	high_cue	med_stim	n/a	n/a	n/a	n/a	n/a	n/a	n/a	147.81	151.57	156.57	160.18	fail	n/a	n/a	n/a
159.68	1.89	pain	outcomerating	5	high_cue	med_stim	0	n/a	0	n/a	0.45	1.44	task-social/outcomerating/task-pain_scale.png	n/a	n/a	n/a	n/a	fail	n/a	n/a	n/a
170.59	1.0	pain	cue	6	high_cue	n/a	n/a	n/a	n/a	n/a	n/a	n/a	task-social/cue/runtype-pain/sch/h014.png	n/a	n/a	n/a	n/a	n/a	n/a	n/a	n/a
172.39	n/a	pain	expectrating	6	high_cue	n/a	0	n/a	0	n/a	0.63	3.4	task-social/cue/runtype-pain/sch/h014.png	n/a	n/a	n/a	n/a	n/a	n/a	n/a	n/a
179.02	12.819999999999993	pain	stimulus	6	high_cue	high_stim	n/a	n/a	n/a	n/a	n/a	n/a	n/a	179.02	183.03	188.03	191.84	fail	n/a	n/a	n/a
190.9	2.86	pain	outcomerating	6	high_cue	high_stim	0	n/a	0	n/a	0.82	2.04	task-social/outcomerating/task-pain_scale.png	n/a	n/a	n/a	n/a	fail	n/a	n/a	n/a
196.88	1.0	pain	cue	7	high_cue	n/a	n/a	n/a	n/a	n/a	n/a	n/a	task-social/cue/runtype-pain/sch/h001.png	n/a	n/a	n/a	n/a	n/a	n/a	n/a	n/a
199.9	2.65	pain	expectrating	7	high_cue	n/a	0	n/a	0	n/a	0.83	1.82	task-social/cue/runtype-pain/sch/h001.png	n/a	n/a	n/a	n/a	n/a	n/a	n/a	n/a
210.2	11.910000000000025	pain	stimulus	7	high_cue	low_stim	n/a	n/a	n/a	n/a	n/a	n/a	n/a	210.2	213.7	218.7	222.1	fail	n/a	n/a	n/a
230.99	2.93	pain	outcomerating	7	high_cue	low_stim	0	n/a	0	n/a	0.6	2.33	task-social/outcomerating/task-pain_scale.png	n/a	n/a	n/a	n/a	fail	n/a	n/a	n/a
236.98	1.0	pain	cue	8	low_cue	n/a	n/a	n/a	n/a	n/a	n/a	n/a	task-social/cue/runtype-pain/scl/l012.png	n/a	n/a	n/a	n/a	n/a	n/a	n/a	n/a
239.7	2.71	pain	expectrating	8	low_cue	n/a	0	n/a	0	n/a	0.95	1.76	task-social/cue/runtype-pain/scl/l012.png	n/a	n/a	n/a	n/a	n/a	n/a	n/a	n/a
249.33	12.819999999999965	pain	stimulus	8	low_cue	high_stim	n/a	n/a	n/a	n/a	n/a	n/a	n/a	249.33	253.34	258.34	262.15	fail	n/a	n/a	n/a
259.29	n/a	pain	outcomerating	8	low_cue	high_stim	0	n/a	0	n/a	0.67	3.3	task-social/outcomerating/task-pain_scale.png	n/a	n/a	n/a	n/a	fail	n/a	n/a	n/a
268.29	1.0	pain	cue	9	high_cue	n/a	n/a	n/a	n/a	n/a	n/a	n/a	task-social/cue/runtype-pain/sch/h050.png	n/a	n/a	n/a	n/a	n/a	n/a	n/a	n/a
271.29	n/a	pain	expectrating	9	high_cue	n/a	0	n/a	0	n/a	0.92	3.33	task-social/cue/runtype-pain/sch/h050.png	n/a	n/a	n/a	n/a	n/a	n/a	n/a	n/a
277.24	12.819999999999993	pain	stimulus	9	high_cue	high_stim	n/a	n/a	n/a	n/a	n/a	n/a	n/a	277.24	281.25	286.25	290.06	fail	n/a	n/a	n/a
295.68	2.75	pain	outcomerating	9	high_cue	high_stim	0	n/a	0	n/a	0.4	2.35	task-social/outcomerating/task-pain_scale.png	n/a	n/a	n/a	n/a	fail	n/a	n/a	n/a
301.89	1.0	pain	cue	10	low_cue	n/a	n/a	n/a	n/a	n/a	n/a	n/a	task-social/cue/runtype-pain/scl/l017.png	n/a	n/a	n/a	n/a	n/a	n/a	n/a	n/a
304.19	2.38	pain	expectrating	10	low_cue	n/a	0	n/a	0	n/a	0.6	1.78	task-social/cue/runtype-pain/scl/l017.png	n/a	n/a	n/a	n/a	n/a	n/a	n/a	n/a
314.52	12.360000000000014	pain	stimulus	10	low_cue	med_stim	n/a	n/a	n/a	n/a	n/a	n/a	n/a	314.52	318.28	323.28	326.89	fail	n/a	n/a	n/a
327.7	2.97	pain	outcomerating	10	low_cue	med_stim	0	n/a	0	n/a	0.5	2.47	task-social/outcomerating/task-pain_scale.png	n/a	n/a	n/a	n/a	fail	n/a	n/a	n/a
333.88	1.0	pain	cue	11	high_cue	n/a	n/a	n/a	n/a	n/a	n/a	n/a	task-social/cue/runtype-pain/sch/h003.png	n/a	n/a	n/a	n/a	n/a	n/a	n/a	n/a
336.88	2.65	pain	expectrating	11	high_cue	n/a	0	n/a	0	n/a	0.57	2.09	task-social/cue/runtype-pain/sch/h003.png	n/a	n/a	n/a	n/a	n/a	n/a	n/a	n/a
347.25	12.360000000000014	pain	stimulus	11	high_cue	med_stim	n/a	n/a	n/a	n/a	n/a	n/a	n/a	347.25	351.01	356.01	359.62	fail	n/a	n/a	n/a
361.59	3.75	pain	outcomerating	11	high_cue	med_stim	0	n/a	0	n/a	0.45	3.3	task-social/outcomerating/task-pain_scale.png	n/a	n/a	n/a	n/a	fail	n/a	n/a	n/a
372.48	1.0	pain	cue	12	low_cue	n/a	n/a	n/a	n/a	n/a	n/a	n/a	task-social/cue/runtype-pain/scl/l039.png	n/a	n/a	n/a	n/a	n/a	n/a	n/a	n/a
375.5	2.37	pain	expectrating	12	low_cue	n/a	0	n/a	0	n/a	0.52	1.86	task-social/cue/runtype-pain/scl/l039.png	n/a	n/a	n/a	n/a	n/a	n/a	n/a	n/a
381.46	11.900000000000034	pain	stimulus	12	low_cue	low_stim	n/a	n/a	n/a	n/a	n/a	n/a	n/a	381.46	384.96	389.96	393.36	fail	n/a	n/a	n/a
394.69	2.57	pain	outcomerating	12	low_cue	low_stim	0	n/a	0	n/a	0.87	1.7	task-social/outcomerating/task-pain_scale.png	n/a	n/a	n/a	n/a	fail	n/a	n/a	n/a
