onset	duration	run_type	trial_type	trial_index	cue	stimulusintensity	rating_value	rating_glmslabel	rating_value_fillna	rating_glmslabel_fillna	rating_mouseonset	rating_mousedur	stim_file	pain_onset_ttl1	pain_onset_ttl2	pain_onset_ttl3	pain_onset_ttl4	pain_stimulus_delivery_success	cognitive_correct_response	cognitive_participant_response	cognitive_response_accuracy
10.6	1.0	pain	cue	1	low_cue	n/a	n/a	n/a	n/a	n/a	n/a	n/a	task-social/cue/runtype-pain/scl/l013.png	n/a	n/a	n/a	n/a	n/a	n/a	n/a	n/a
12.31	n/a	pain	expectrating	1	low_cue	n/a	n/a	n/a	18.43	Moderate	0.27	0.68	task-social/cue/runtype-pain/scl/l013.png	n/a	n/a	n/a	n/a	n/a	n/a	n/a	n/a
21.21	11.909999999999997	pain	stimulus	1	low_cue	low_stim	n/a	n/a	n/a	n/a	n/a	n/a	n/a	21.21	24.71	29.71	33.11	success	n/a	n/a	n/a
31.1	3.57	pain	outcomerating	1	low_cue	low_stim	57.09	Strong	57.09	Strong	1.17	2.4	task-social/outcomerating/task-pain_scale.png	n/a	n/a	n/a	n/a	success	n/a	n/a	n/a
35.69	1.0	pain	cue	2	low_cue	n/a	n/a	n/a	n/a	n/a	n/a	n/a	task-social/cue/runtype-pain/scl/l004.png	n/a	n/a	n/a	n/a	n/a	n/a	n/a	n/a
37.99	n/a	pain	expectrating	2	low_cue	n/a	n/a	n/a	16.55	Moderate	1.33	3.0	task-social/cue/runtype-pain/scl/l004.png	n/a	n/a	n/a	n/a	n/a	n/a	n/a	n/a
43.82	12.369999999999997	pain	stimulus	2	low_cue	med_stim	n/a	n/a	n/a	n/a	n/a	n/a	n/a	43.82	47.58	52.58	56.19	success	n/a	n/a	n/a
56.3	3.19	pain	outcomerating	2	low_cue	med_stim	49.42	Strong	49.42	Strong	0.83	2.35	task-social/outcomerating/task-pain_scale.png	n/a	n/a	n/a	n/a	success	n/a	n/a	n/a
61.3	1.0	pain	cue	3	low_cue	n/a	n/a	n/a	n/a	n/a	n/a	n/a	task-social/cue/runtype-pain/scl/l046.png	n/a	n/a	n/a	n/a	n/a	n/a	n/a	n/a
64.2	n/a	pain	expectrating	3	low_cue	n/a	n/a	n/a	66.4	Very Strong	1.33	3.87	task-social/cue/runtype-pain/scl/l046.png	n/a	n/a	n/a	n/a	n/a	n/a	n/a	n/a
72.25	11.909999999999997	pain	stimulus	3	low_cue	low_stim	n/a	n/a	n/a	n/a	n/a	n/a	n/a	72.25	75.75	80.75	84.15	success	n/a	n/a	n/a
86.31	n/a	pain	outcomerating	3	low_cue	low_stim	n/a	n/a	35.22	Strong	1.18	2.18	task-social/outcomerating/task-pain_scale.png	n/a	n/a	n/a	n/a	success	n/a	n/a	n/a
91.29	1.0	pain	cue	4	low_cue	n/a	n/a	n/a	n/a	n/a	n/a	n/a	task-social/cue/runtype-pain/scl/l036.png	n/a	n/a	n/a	n/a	n/a	n/a	n/a	n/a
93.69	n/a	pain	expectrating	4	low_cue	n/a	n/a	n/a	46.15	Strong	1.18	3.62	task-social/cue/runtype-pain/scl/l036.png	n/a	n/a	n/a	n/a	n/a	n/a	n/a	n/a
99.82	12.820000000000007	pain	stimulus	4	low_cue	high_stim	n/a	n/a	n/a	n/a	n/a	n/a	n/a	99.82	103.83	108.83	112.64	success	n/a	n/a	n/a
112.3	2.27	pain	outcomerating	4	low_cue	high_stim	56.12	Strong	56.12	Strong	0.88	1.38	task-social/outcomerating/task-pain_scale.png	n/a	n/a	n/a	n/a	success	n/a	n/a	n/a
120.0	0.98	pain	cue	5	high_cue	n/a	n/a	n/a	n/a	n/a	n/a	n/a	task-social/cue/runtype-pain/sch/h021.png	n/a	n/a	n/a	n/a	n/a	n/a	n/a	n/a
122.91	3.44	pain	expectrating	5	high_cue	n/a	54.84	Strong	54.84	Strong	1.57	1.87	task-social/cue/runtype-pain/sch/h021.png	n/a	n/a	n/a	n/a	n/a	n/a	n/a	n/a
131.83	12.369999999999976	pain	stimulus	5	high_cue	med_stim	n/a	n/a	n/a	n/a	n/a	n/a	n/a	131.83	135.59	140.59	144.2	success	n/a	n/a	n/a
142.8	n/a	pain	outcomerating	5	high_cue	med_stim	n/a	n/a	53.37	Strong	0.93	2.18	task-social/outcomerating/task-pain_scale.png	n/a	n/a	n/a	n/a	success	n/a	n/a	n/a
153.9	0.98	pain	cue	6	high_cue	n/a	n/a	n/a	n/a	n/a	n/a	n/a	task-social/cue/runtype-pain/sch/h031.png	n/a	n/a	n/a	n/a	n/a	n/a	n/a	n/a
155.8	2.8	pain	expectrating	6	high_cue	n/a	57.58	Strong	57.58	Strong	0.95	1.85	task-social/cue/runtype-pain/sch/h031.png	n/a	n/a	n/a	n/a	n/a	n/a	n/a	n/a
167.83	12.819999999999993	pain	stimulus	6	high_cue	high_stim	n/a	n/a	n/a	n/a	n/a	n/a	n/a	167.83	171.84	176.84	180.65	success	n/a	n/a	n/a
184.2	2.11	pain	outcomerating	6	high_cue	high_stim	59.48	Strong	59.48	Strong	0.72	1.39	task-social/outcomerating/task-pain_scale.png	n/a	n/a	n/a	n/a	success	n/a	n/a	n/a
194.2	1.0	pain	cue	7	high_cue	n/a	n/a	n/a	n/a	n/a	n/a	n/a	task-social/cue/runtype-pain/sch/h028.png	n/a	n/a	n/a	n/a	n/a	n/a	n/a	n/a
197.0	3.35	pain	expectrating	7	high_cue	n/a	59.12	Strong	59.12	Strong	1.77	1.59	task-social/cue/runtype-pain/sch/h028.png	n/a	n/a	n/a	n/a	n/a	n/a	n/a	n/a
204.24	12.370000000000005	pain	stimulus	7	high_cue	med_stim	n/a	n/a	n/a	n/a	n/a	n/a	n/a	204.24	208.0	213.0	216.61	success	n/a	n/a	n/a
214.19	2.25	pain	outcomerating	7	high_cue	med_stim	64.47	Very Strong	64.47	Very Strong	0.93	1.32	task-social/outcomerating/task-pain_scale.png	n/a	n/a	n/a	n/a	success	n/a	n/a	n/a
219.19	1.0	pain	cue	8	high_cue	n/a	n/a	n/a	n/a	n/a	n/a	n/a	task-social/cue/runtype-pain/sch/h001.png	n/a	n/a	n/a	n/a	n/a	n/a	n/a	n/a
222.09	2.57	pain	expectrating	8	high_cue	n/a	58.09	Strong	58.09	Strong	1.1	1.47	task-social/cue/runtype-pain/sch/h001.png	n/a	n/a	n/a	n/a	n/a	n/a	n/a	n/a
232.51	11.900000000000006	pain	stimulus	8	high_cue	low_stim	n/a	n/a	n/a	n/a	n/a	n/a	n/a	232.51	236.01	241.01	244.41	success	n/a	n/a	n/a
242.7	2.45	pain	outcomerating	8	high_cue	low_stim	36.87	Strong	36.87	Strong	0.67	1.79	task-social/outcomerating/task-pain_scale.png	n/a	n/a	n/a	n/a	success	n/a	n/a	n/a
251.39	1.0	pain	cue	9	high_cue	n/a	n/a	n/a	n/a	n/a	n/a	n/a	task-social/cue/runtype-pain/sch/h043.png	n/a	n/a	n/a	n/a	n/a	n/a	n/a	n/a
253.8	2.53	pain	expectrating	9	high_cue	n/a	55.93	Strong	55.93	Strong	1.0	1.53	task-social/cue/runtype-pain/sch/h043.png	n/a	n/a	n/a	n/a	n/a	n/a	n/a	n/a
264.72	11.899999999999977	pain	stimulus	9	high_cue	low_stim	n/a	n/a	n/a	n/a	n/a	n/a	n/a	264.72	268.22	273.22	276.62	success	n/a	n/a	n/a
280.8	1.42	pain	outcomerating	9	high_cue	low_stim	30.92	Strong	30.92	Strong	0.58	0.84	task-social/outcomerating/task-pain_scale.png	n/a	n/a	n/a	n/a	success	n/a	n/a	n/a
285.8	0.98	pain	cue	10	high_cue	n/a	n/a	n/a	n/a	n/a	n/a	n/a	task-social/cue/runtype-pain/sch/h007.png	n/a	n/a	n/a	n/a	n/a	n/a	n/a	n/a
289.0	3.05	pain	expectrating	10	high_cue	n/a	47.93	Strong	47.93	Strong	0.98	2.07	task-social/cue/runtype-pain/sch/h007.png	n/a	n/a	n/a	n/a	n/a	n/a	n/a	n/a
296.04	12.819999999999993	pain	stimulus	10	high_cue	high_stim	n/a	n/a	n/a	n/a	n/a	n/a	n/a	296.04	300.05	305.05	308.86	success	n/a	n/a	n/a
311.29	n/a	pain	outcomerating	10	high_cue	high_stim	n/a	n/a	50.37	Strong	1.3	2.58	task-social/outcomerating/task-pain_scale.png	n/a	n/a	n/a	n/a	success	n/a	n/a	n/a
326.2	1.0	pain	cue	11	low_cue	n/a	n/a	n/a	n/a	n/a	n/a	n/a	task-social/cue/runtype-pain/scl/l027.png	n/a	n/a	n/a	n/a	n/a	n/a	n/a	n/a
328.1	n/a	pain	expectrating	11	low_cue	n/a	n/a	n/a	38.8	Strong	1.0	3.95	task-social/cue/runtype-pain/scl/l027.png	n/a	n/a	n/a	n/a	n/a	n/a	n/a	n/a
340.44	12.370000000000005	pain	stimulus	11	low_cue	med_stim	n/a	n/a	n/a	n/a	n/a	n/a	n/a	340.44	344.2	349.2	352.81	success	n/a	n/a	n/a
353.29	1.92	pain	outcomerating	11	low_cue	med_stim	22.14	Moderate	22.14	Moderate	0.62	1.3	task-social/outcomerating/task-pain_scale.png	n/a	n/a	n/a	n/a	success	n/a	n/a	n/a
366.4	1.0	pain	cue	12	low_cue	n/a	n/a	n/a	n/a	n/a	n/a	n/a	task-social/cue/runtype-pain/scl/l029.png	n/a	n/a	n/a	n/a	n/a	n/a	n/a	n/a
369.2	2.49	pain	expectrating	12	low_cue	n/a	18.88	Moderate	18.88	Moderate	0.6	1.89	task-social/cue/runtype-pain/scl/l029.png	n/a	n/a	n/a	n/a	n/a	n/a	n/a	n/a
373.81	12.819999999999993	pain	stimulus	12	low_cue	high_stim	n/a	n/a	n/a	n/a	n/a	n/a	n/a	373.81	377.82	382.82	386.63	success	n/a	n/a	n/a
394.79	3.99	pain	outcomerating	12	low_cue	high_stim	39.27	Strong	39.27	Strong	0.87	3.12	task-social/outcomerating/task-pain_scale.png	n/a	n/a	n/a	n/a	success	n/a	n/a	n/a
