onset	duration	trial_type	response_value	stim_file
2.768	116.324	video	n/a	task-alignvideo/ses-02_run-03_order-01_content-unefille.mp4
123.627	n/a	rating_relevance	n/a	task-alignvideo/ses-02_run-03_order-01_content-unefille.mp4
128.663	n/a	rating_happy	n/a	task-alignvideo/ses-02_run-03_order-01_content-unefille.mp4
133.698	n/a	rating_sad	n/a	task-alignvideo/ses-02_run-03_order-01_content-unefille.mp4
138.733	n/a	rating_afraid	n/a	task-alignvideo/ses-02_run-03_order-01_content-unefille.mp4
143.768	n/a	rating_disgusted	n/a	task-alignvideo/ses-02_run-03_order-01_content-unefille.mp4
148.803	n/a	rating_warm	n/a	task-alignvideo/ses-02_run-03_order-01_content-unefille.mp4
153.839	n/a	rating_engaged	n/a	task-alignvideo/ses-02_run-03_order-01_content-unefille.mp4
154.361	179.246	video	n/a	task-alignvideo/ses-02_run-03_order-02_content-captureflag.mp4
338.158	n/a	rating_relevance	n/a	task-alignvideo/ses-02_run-03_order-02_content-captureflag.mp4
343.194	n/a	rating_happy	n/a	task-alignvideo/ses-02_run-03_order-02_content-captureflag.mp4
348.212	n/a	rating_sad	n/a	task-alignvideo/ses-02_run-03_order-02_content-captureflag.mp4
353.231	n/a	rating_afraid	n/a	task-alignvideo/ses-02_run-03_order-02_content-captureflag.mp4
358.266	n/a	rating_disgusted	n/a	task-alignvideo/ses-02_run-03_order-02_content-captureflag.mp4
363.301	n/a	rating_warm	n/a	task-alignvideo/ses-02_run-03_order-02_content-captureflag.mp4
368.336	n/a	rating_engaged	n/a	task-alignvideo/ses-02_run-03_order-02_content-captureflag.mp4
368.858	26.863	video	n/a	task-alignvideo/ses-02_run-03_order-03_content-tornado.mp4
400.265	n/a	rating_relevance	n/a	task-alignvideo/ses-02_run-03_order-03_content-tornado.mp4
405.284	n/a	rating_happy	n/a	task-alignvideo/ses-02_run-03_order-03_content-tornado.mp4
410.319	n/a	rating_sad	n/a	task-alignvideo/ses-02_run-03_order-03_content-tornado.mp4
415.354	n/a	rating_afraid	n/a	task-alignvideo/ses-02_run-03_order-03_content-tornado.mp4
420.373	n/a	rating_disgusted	n/a	task-alignvideo/ses-02_run-03_order-03_content-tornado.mp4
425.391	n/a	rating_warm	n/a	task-alignvideo/ses-02_run-03_order-03_content-tornado.mp4
430.41	n/a	rating_engaged	n/a	task-alignvideo/ses-02_run-03_order-03_content-tornado.mp4
430.931	62.823	video	n/a	task-alignvideo/ses-02_run-03_order-04_content-war.mp4
498.302	n/a	rating_relevance	n/a	task-alignvideo/ses-02_run-03_order-04_content-war.mp4
503.337	n/a	rating_happy	n/a	task-alignvideo/ses-02_run-03_order-04_content-war.mp4
508.356	n/a	rating_sad	n/a	task-alignvideo/ses-02_run-03_order-04_content-war.mp4
513.375	n/a	rating_afraid	n/a	task-alignvideo/ses-02_run-03_order-04_content-war.mp4
518.393	n/a	rating_disgusted	n/a	task-alignvideo/ses-02_run-03_order-04_content-war.mp4
523.412	n/a	rating_warm	n/a	task-alignvideo/ses-02_run-03_order-04_content-war.mp4
528.43	n/a	rating_engaged	n/a	task-alignvideo/ses-02_run-03_order-04_content-war.mp4
