onset	duration	trial_type	response_x	response_y	situation	context	modality	stim_file
8.809	32.166	narrative_presentation	n/a	n/a	Slaying of kin unrecognized	town	Text	task-narratives/Narrative3Situation1.txt
40.976	2.885	rating_feeling	844	511	Slaying of kin unrecognized	town	Text	task-narratives/Narrative3Situation1.txt
41.693	2.168	feeling_mouse_trajectory	844	511	Slaying of kin unrecognized	town	Text	task-narratives/Narrative3Situation1.txt
45.025	2.501	rating_expectation	1097	426	Slaying of kin unrecognized	town	Text	task-narratives/Narrative3Situation1.txt
45.458	2.068	expectation_mouse_trajectory	1097	426	Slaying of kin unrecognized	town	Text	task-narratives/Narrative3Situation1.txt
53.093	17.093	narrative_presentation	n/a	n/a	Adultery	swamp	Text	task-narratives/Narrative3Situation2.txt
70.186	3.95	rating_feeling	844	511	Adultery	swamp	Text	task-narratives/Narrative3Situation2.txt
70.986	3.15	feeling_mouse_trajectory	844	511	Adultery	swamp	Text	task-narratives/Narrative3Situation2.txt
74.208	0.167	rating_expectation	1097	426	Adultery	swamp	Text	task-narratives/Narrative3Situation2.txt
74.241	0.134	expectation_mouse_trajectory	1097	426	Adultery	swamp	Text	task-narratives/Narrative3Situation2.txt
80.303	10.39	narrative_presentation	n/a	n/a	Revolt	town	Text	task-narratives/Narrative3Situation3.txt
90.693	1.884	rating_feeling	844	511	Revolt	town	Text	task-narratives/Narrative3Situation3.txt
91.56	1.018	feeling_mouse_trajectory	844	511	Revolt	town	Text	task-narratives/Narrative3Situation3.txt
94.71	2.084	rating_expectation	1097	426	Revolt	town	Text	task-narratives/Narrative3Situation3.txt
95.343	1.451	expectation_mouse_trajectory	1097	426	Revolt	town	Text	task-narratives/Narrative3Situation3.txt
99.777	28.149	narrative_presentation	n/a	n/a	Fatal imprudence	hospital	Text	task-narratives/Narrative3Situation4.txt
127.926	2.519	rating_feeling	844	511	Fatal imprudence	hospital	Text	task-narratives/Narrative3Situation4.txt
128.709	1.736	feeling_mouse_trajectory	844	511	Fatal imprudence	hospital	Text	task-narratives/Narrative3Situation4.txt
131.941	1.734	rating_expectation	1097	426	Fatal imprudence	hospital	Text	task-narratives/Narrative3Situation4.txt
132.391	1.284	expectation_mouse_trajectory	1097	426	Fatal imprudence	hospital	Text	task-narratives/Narrative3Situation4.txt
139.025	15.095	narrative_presentation	n/a	n/a	Deliverance	city	Text	task-narratives/Narrative3Situation5.txt
154.12	2.392	rating_feeling	844	511	Deliverance	city	Text	task-narratives/Narrative3Situation5.txt
154.97	1.542	feeling_mouse_trajectory	844	511	Deliverance	city	Text	task-narratives/Narrative3Situation5.txt
158.134	2.058	rating_expectation	1097	426	Deliverance	city	Text	task-narratives/Narrative3Situation5.txt
158.467	1.724	expectation_mouse_trajectory	1097	426	Deliverance	city	Text	task-narratives/Narrative3Situation5.txt
165.201	15.074	narrative_presentation	n/a	n/a	Necessity of sacrificing loved ones	hospital	Text	task-narratives/Narrative3Situation6.txt
180.276	1.251	rating_feeling	844	511	Necessity of sacrificing loved ones	hospital	Text	task-narratives/Narrative3Situation6.txt
180.792	0.734	feeling_mouse_trajectory	844	511	Necessity of sacrificing loved ones	hospital	Text	task-narratives/Narrative3Situation6.txt
184.293	1.034	rating_expectation	1097	426	Necessity of sacrificing loved ones	hospital	Text	task-narratives/Narrative3Situation6.txt
184.66	0.667	expectation_mouse_trajectory	1097	426	Necessity of sacrificing loved ones	hospital	Text	task-narratives/Narrative3Situation6.txt
192.362	36.848	narrative_presentation	n/a	n/a	Loss of loved one	forest	Text	task-narratives/Narrative3Situation7.txt
229.21	1.317	rating_feeling	844	511	Loss of loved one	forest	Text	task-narratives/Narrative3Situation7.txt
229.643	0.884	feeling_mouse_trajectory	844	511	Loss of loved one	forest	Text	task-narratives/Narrative3Situation7.txt
233.228	1.234	rating_expectation	1097	426	Loss of loved one	forest	Text	task-narratives/Narrative3Situation7.txt
233.578	0.884	expectation_mouse_trajectory	1097	426	Loss of loved one	forest	Text	task-narratives/Narrative3Situation7.txt
239.296	9.705	narrative_presentation	n/a	n/a	Crimes of love	prison	Text	task-narratives/Narrative3Situation8.txt
249.001	2.44	rating_feeling	844	511	Crimes of love	prison	Text	task-narratives/Narrative3Situation8.txt
250.001	1.44	feeling_mouse_trajectory	844	511	Crimes of love	prison	Text	task-narratives/Narrative3Situation8.txt
253.019	2.772	rating_expectation	1097	426	Crimes of love	prison	Text	task-narratives/Narrative3Situation8.txt
253.453	2.339	expectation_mouse_trajectory	1097	426	Crimes of love	prison	Text	task-narratives/Narrative3Situation8.txt
258.086	27.479	narrative_presentation	n/a	n/a	Discovery of dishonour of loved one	forest	Text	task-narratives/Narrative3Situation9.txt
285.566	1.46	rating_feeling	844	511	Discovery of dishonour of loved one	forest	Text	task-narratives/Narrative3Situation9.txt
286.082	0.944	feeling_mouse_trajectory	844	511	Discovery of dishonour of loved one	forest	Text	task-narratives/Narrative3Situation9.txt
289.583	1.692	rating_expectation	1097	426	Discovery of dishonour of loved one	forest	Text	task-narratives/Narrative3Situation9.txt
290.016	1.259	expectation_mouse_trajectory	1097	426	Discovery of dishonour of loved one	forest	Text	task-narratives/Narrative3Situation9.txt
295.65	22.443	narrative_presentation	n/a	n/a	Slaying of kin unrecognized	town	Text	task-narratives/Narrative4Situation1.txt
318.094	2.184	rating_feeling	844	511	Slaying of kin unrecognized	town	Text	task-narratives/Narrative4Situation1.txt
318.944	1.334	feeling_mouse_trajectory	844	511	Slaying of kin unrecognized	town	Text	task-narratives/Narrative4Situation1.txt
322.112	2.551	rating_expectation	1097	426	Slaying of kin unrecognized	town	Text	task-narratives/Narrative4Situation1.txt
323.112	1.551	expectation_mouse_trajectory	1097	426	Slaying of kin unrecognized	town	Text	task-narratives/Narrative4Situation1.txt
331.18	24.796	narrative_presentation	n/a	n/a	Adultery	swamp	Text	task-narratives/Narrative4Situation2.txt
355.976	2.635	rating_feeling	844	511	Adultery	swamp	Text	task-narratives/Narrative4Situation2.txt
356.693	1.918	feeling_mouse_trajectory	844	511	Adultery	swamp	Text	task-narratives/Narrative4Situation2.txt
359.993	2.735	rating_expectation	1097	426	Adultery	swamp	Text	task-narratives/Narrative4Situation2.txt
360.343	2.385	expectation_mouse_trajectory	1097	426	Adultery	swamp	Text	task-narratives/Narrative4Situation2.txt
366.06	21.11	narrative_presentation	n/a	n/a	Revolt	town	Text	task-narratives/Narrative4Situation3.txt
387.17	1.589	rating_feeling	844	511	Revolt	town	Text	task-narratives/Narrative4Situation3.txt
387.637	1.122	feeling_mouse_trajectory	844	511	Revolt	town	Text	task-narratives/Narrative4Situation3.txt
391.192	1.121	rating_expectation	1097	426	Revolt	town	Text	task-narratives/Narrative4Situation3.txt
391.525	0.787	expectation_mouse_trajectory	1097	426	Revolt	town	Text	task-narratives/Narrative4Situation3.txt
396.255	21.11	narrative_presentation	n/a	n/a	Fatal imprudence	hospital	Text	task-narratives/Narrative4Situation4.txt
417.365	2.211	rating_feeling	844	511	Fatal imprudence	hospital	Text	task-narratives/Narrative4Situation4.txt
417.831	1.744	feeling_mouse_trajectory	844	511	Fatal imprudence	hospital	Text	task-narratives/Narrative4Situation4.txt
421.382	2.859	rating_expectation	1097	426	Fatal imprudence	hospital	Text	task-narratives/Narrative4Situation4.txt
421.866	2.376	expectation_mouse_trajectory	1097	426	Fatal imprudence	hospital	Text	task-narratives/Narrative4Situation4.txt
426.45	25.795	narrative_presentation	n/a	n/a	Deliverance	city	Text	task-narratives/Narrative4Situation5.txt
452.244	2.201	rating_feeling	844	511	Deliverance	city	Text	task-narratives/Narrative4Situation5.txt
452.894	1.551	feeling_mouse_trajectory	844	511	Deliverance	city	Text	task-narratives/Narrative4Situation5.txt
456.262	1.634	rating_expectation	1097	426	Deliverance	city	Text	task-narratives/Narrative4Situation5.txt
456.829	1.067	expectation_mouse_trajectory	1097	426	Deliverance	city	Text	task-narratives/Narrative4Situation5.txt
461.329	23.447	narrative_presentation	n/a	n/a	Necessity of sacrificing loved ones	hospital	Text	task-narratives/Narrative4Situation6.txt
484.776	1.769	rating_feeling	844	511	Necessity of sacrificing loved ones	hospital	Text	task-narratives/Narrative4Situation6.txt
485.16	1.386	feeling_mouse_trajectory	844	511	Necessity of sacrificing loved ones	hospital	Text	task-narratives/Narrative4Situation6.txt
488.792	1.001	rating_expectation	1097	426	Necessity of sacrificing loved ones	hospital	Text	task-narratives/Narrative4Situation6.txt
489.142	0.651	expectation_mouse_trajectory	1097	426	Necessity of sacrificing loved ones	hospital	Text	task-narratives/Narrative4Situation6.txt
493.858	19.092	narrative_presentation	n/a	n/a	Loss of loved one	forest	Text	task-narratives/Narrative4Situation7.txt
512.951	2.375	rating_feeling	844	511	Loss of loved one	forest	Text	task-narratives/Narrative4Situation7.txt
513.451	1.875	feeling_mouse_trajectory	844	511	Loss of loved one	forest	Text	task-narratives/Narrative4Situation7.txt
516.968	1.241	rating_expectation	1097	426	Loss of loved one	forest	Text	task-narratives/Narrative4Situation7.txt
517.435	0.774	expectation_mouse_trajectory	1097	426	Loss of loved one	forest	Text	task-narratives/Narrative4Situation7.txt
522.052	38.533	narrative_presentation	n/a	n/a	Crimes of love	prison	Text	task-narratives/Narrative4Situation8.txt
560.585	1.058	rating_feeling	844	511	Crimes of love	prison	Text	task-narratives/Narrative4Situation8.txt
561.218	0.425	feeling_mouse_trajectory	844	511	Crimes of love	prison	Text	task-narratives/Narrative4Situation8.txt
564.609	1.256	rating_expectation	1097	426	Crimes of love	prison	Text	task-narratives/Narrative4Situation8.txt
564.926	0.939	expectation_mouse_trajectory	1097	426	Crimes of love	prison	Text	task-narratives/Narrative4Situation8.txt
573.688	12.389	narrative_presentation	n/a	n/a	Discovery of dishonour of loved one	forest	Text	task-narratives/Narrative4Situation9.txt
586.077	1.717	rating_feeling	844	511	Discovery of dishonour of loved one	forest	Text	task-narratives/Narrative4Situation9.txt
586.727	1.067	feeling_mouse_trajectory	844	511	Discovery of dishonour of loved one	forest	Text	task-narratives/Narrative4Situation9.txt
590.096	1.384	rating_expectation	1097	426	Discovery of dishonour of loved one	forest	Text	task-narratives/Narrative4Situation9.txt
590.512	0.967	expectation_mouse_trajectory	1097	426	Discovery of dishonour of loved one	forest	Text	task-narratives/Narrative4Situation9.txt
