onset	duration	run_type	trial_type	trial_index	cue	stimulusintensity	rating_value	rating_glmslabel	rating_value_fillna	rating_glmslabel_fillna	rating_mouseonset	rating_mousedur	stim_file	pain_onset_ttl1	pain_onset_ttl2	pain_onset_ttl3	pain_onset_ttl4	pain_stimulus_delivery_success	cognitive_correct_response	cognitive_participant_response	cognitive_response_accuracy
8.0	0.98	cognitive	cue	1	low_cue	n/a	n/a	n/a	n/a	n/a	n/a	n/a	task-social/cue/runtype-cognitive/scl/l011.png	n/a	n/a	n/a	n/a	n/a	n/a	n/a	n/a
11.2	1.68	cognitive	expectrating	1	low_cue	n/a	8.78	Weak	8.78	Weak	0.38	1.3	task-social/cue/runtype-cognitive/scl/l011.png	n/a	n/a	n/a	n/a	n/a	n/a	n/a	n/a
21.31	5.0	cognitive	stimulus	1	low_cue	med_stim	n/a	n/a	n/a	n/a	n/a	n/a	task-social/stim/runtype-cognitive/34_100_R.jpg	n/a	n/a	n/a	n/a	n/a	diff	same	False
33.4	2.21	cognitive	outcomerating	1	low_cue	med_stim	11.67	Moderate	11.67	Moderate	0.38	1.3	task-social/outcomerating/task-cognitive_scale.png	n/a	n/a	n/a	n/a	n/a	n/a	n/a	n/a
40.7	0.99	cognitive	cue	2	high_cue	n/a	n/a	n/a	n/a	n/a	n/a	n/a	task-social/cue/runtype-cognitive/sch/h013.png	n/a	n/a	n/a	n/a	n/a	n/a	n/a	n/a
43.6	2.46	cognitive	expectrating	2	high_cue	n/a	55.1	Strong	55.1	Strong	0.13	2.32	task-social/cue/runtype-cognitive/sch/h013.png	n/a	n/a	n/a	n/a	n/a	n/a	n/a	n/a
53.7	5.0	cognitive	stimulus	2	high_cue	low_stim	n/a	n/a	n/a	n/a	n/a	n/a	task-social/stim/runtype-cognitive/6_50.jpg	n/a	n/a	n/a	n/a	n/a	same	same	True
61.61	2.35	cognitive	outcomerating	2	high_cue	low_stim	17.63	Moderate	17.63	Moderate	0.13	2.32	task-social/outcomerating/task-cognitive_scale.png	n/a	n/a	n/a	n/a	n/a	n/a	n/a	n/a
70.79	0.99	cognitive	cue	3	high_cue	n/a	n/a	n/a	n/a	n/a	n/a	n/a	task-social/cue/runtype-cognitive/sch/h034.png	n/a	n/a	n/a	n/a	n/a	n/a	n/a	n/a
73.69	1.49	cognitive	expectrating	3	high_cue	n/a	38.92	Strong	38.92	Strong	0.27	1.23	task-social/cue/runtype-cognitive/sch/h034.png	n/a	n/a	n/a	n/a	n/a	n/a	n/a	n/a
90.9	5.0	cognitive	stimulus	3	high_cue	high_stim	n/a	n/a	n/a	n/a	n/a	n/a	task-social/stim/runtype-cognitive/4_150_R.jpg	n/a	n/a	n/a	n/a	n/a	diff	diff	True
102.9	1.82	cognitive	outcomerating	3	high_cue	high_stim	13.42	Moderate	13.42	Moderate	0.27	1.23	task-social/outcomerating/task-cognitive_scale.png	n/a	n/a	n/a	n/a	n/a	n/a	n/a	n/a
108.79	0.99	cognitive	cue	4	low_cue	n/a	n/a	n/a	n/a	n/a	n/a	n/a	task-social/cue/runtype-cognitive/scl/l026.png	n/a	n/a	n/a	n/a	n/a	n/a	n/a	n/a
111.61	1.23	cognitive	expectrating	4	low_cue	n/a	8.29	Weak	8.29	Weak	0.42	0.82	task-social/cue/runtype-cognitive/scl/l026.png	n/a	n/a	n/a	n/a	n/a	n/a	n/a	n/a
119.29	5.0	cognitive	stimulus	4	low_cue	med_stim	n/a	n/a	n/a	n/a	n/a	n/a	task-social/stim/runtype-cognitive/31_100_R.jpg	n/a	n/a	n/a	n/a	n/a	diff	diff	True
126.8	1.54	cognitive	outcomerating	4	low_cue	med_stim	8.82	Weak	8.82	Weak	0.42	0.82	task-social/outcomerating/task-cognitive_scale.png	n/a	n/a	n/a	n/a	n/a	n/a	n/a	n/a
134.1	0.98	cognitive	cue	5	high_cue	n/a	n/a	n/a	n/a	n/a	n/a	n/a	task-social/cue/runtype-cognitive/sch/h041.png	n/a	n/a	n/a	n/a	n/a	n/a	n/a	n/a
135.7	1.29	cognitive	expectrating	5	high_cue	n/a	19.53	Moderate	19.53	Moderate	0.52	0.77	task-social/cue/runtype-cognitive/sch/h041.png	n/a	n/a	n/a	n/a	n/a	n/a	n/a	n/a
145.8	5.0	cognitive	stimulus	5	high_cue	low_stim	n/a	n/a	n/a	n/a	n/a	n/a	task-social/stim/runtype-cognitive/34_50.jpg	n/a	n/a	n/a	n/a	n/a	same	same	True
153.41	2.78	cognitive	outcomerating	5	high_cue	low_stim	11.81	Moderate	11.81	Moderate	0.52	0.77	task-social/outcomerating/task-cognitive_scale.png	n/a	n/a	n/a	n/a	n/a	n/a	n/a	n/a
164.59	0.99	cognitive	cue	6	low_cue	n/a	n/a	n/a	n/a	n/a	n/a	n/a	task-social/cue/runtype-cognitive/scl/l046.png	n/a	n/a	n/a	n/a	n/a	n/a	n/a	n/a
166.91	1.33	cognitive	expectrating	6	low_cue	n/a	7.9	Weak	7.9	Weak	0.23	1.1	task-social/cue/runtype-cognitive/scl/l046.png	n/a	n/a	n/a	n/a	n/a	n/a	n/a	n/a
173.9	5.0	cognitive	stimulus	6	low_cue	high_stim	n/a	n/a	n/a	n/a	n/a	n/a	task-social/stim/runtype-cognitive/6_150_R.jpg	n/a	n/a	n/a	n/a	n/a	diff	diff	True
189.7	1.8	cognitive	outcomerating	6	low_cue	high_stim	21.42	Moderate	21.42	Moderate	0.23	1.1	task-social/outcomerating/task-cognitive_scale.png	n/a	n/a	n/a	n/a	n/a	n/a	n/a	n/a
196.99	0.99	cognitive	cue	7	low_cue	n/a	n/a	n/a	n/a	n/a	n/a	n/a	task-social/cue/runtype-cognitive/scl/l016.png	n/a	n/a	n/a	n/a	n/a	n/a	n/a	n/a
199.01	1.37	cognitive	expectrating	7	low_cue	n/a	7.47	Weak	7.47	Weak	0.32	1.05	task-social/cue/runtype-cognitive/scl/l016.png	n/a	n/a	n/a	n/a	n/a	n/a	n/a	n/a
208.49	5.0	cognitive	stimulus	7	low_cue	low_stim	n/a	n/a	n/a	n/a	n/a	n/a	task-social/stim/runtype-cognitive/29_50_R.jpg	n/a	n/a	n/a	n/a	n/a	diff	diff	True
220.7	1.36	cognitive	outcomerating	7	low_cue	low_stim	2.55	Barely-detectable	2.55	Barely-detectable	0.32	1.05	task-social/outcomerating/task-cognitive_scale.png	n/a	n/a	n/a	n/a	n/a	n/a	n/a	n/a
225.5	0.98	cognitive	cue	8	high_cue	n/a	n/a	n/a	n/a	n/a	n/a	n/a	task-social/cue/runtype-cognitive/sch/h002.png	n/a	n/a	n/a	n/a	n/a	n/a	n/a	n/a
227.9	2.27	cognitive	expectrating	8	high_cue	n/a	35.37	Strong	35.37	Strong	0.72	1.55	task-social/cue/runtype-cognitive/sch/h002.png	n/a	n/a	n/a	n/a	n/a	n/a	n/a	n/a
237.4	5.0	cognitive	stimulus	8	high_cue	med_stim	n/a	n/a	n/a	n/a	n/a	n/a	task-social/stim/runtype-cognitive/8_100_R.jpg	n/a	n/a	n/a	n/a	n/a	diff	diff	True
247.49	2.62	cognitive	outcomerating	8	high_cue	med_stim	7.15	Weak	7.15	Weak	0.72	1.55	task-social/outcomerating/task-cognitive_scale.png	n/a	n/a	n/a	n/a	n/a	n/a	n/a	n/a
255.09	0.99	cognitive	cue	9	low_cue	n/a	n/a	n/a	n/a	n/a	n/a	n/a	task-social/cue/runtype-cognitive/scl/l017.png	n/a	n/a	n/a	n/a	n/a	n/a	n/a	n/a
257.1	1.43	cognitive	expectrating	9	low_cue	n/a	3.0	Barely-detectable	3.0	Barely-detectable	0.15	1.28	task-social/cue/runtype-cognitive/scl/l017.png	n/a	n/a	n/a	n/a	n/a	n/a	n/a	n/a
264.8	5.0	cognitive	stimulus	9	low_cue	high_stim	n/a	n/a	n/a	n/a	n/a	n/a	task-social/stim/runtype-cognitive/39_150.jpg	n/a	n/a	n/a	n/a	n/a	same	same	True
278.3	2.5	cognitive	outcomerating	9	low_cue	high_stim	32.74	Strong	32.74	Strong	0.15	1.28	task-social/outcomerating/task-cognitive_scale.png	n/a	n/a	n/a	n/a	n/a	n/a	n/a	n/a
288.59	0.99	cognitive	cue	10	high_cue	n/a	n/a	n/a	n/a	n/a	n/a	n/a	task-social/cue/runtype-cognitive/sch/h048.png	n/a	n/a	n/a	n/a	n/a	n/a	n/a	n/a
291.51	1.72	cognitive	expectrating	10	high_cue	n/a	31.08	Strong	31.08	Strong	0.38	1.33	task-social/cue/runtype-cognitive/sch/h048.png	n/a	n/a	n/a	n/a	n/a	n/a	n/a	n/a
301.7	5.0	cognitive	stimulus	10	high_cue	med_stim	n/a	n/a	n/a	n/a	n/a	n/a	task-social/stim/runtype-cognitive/34_100.jpg	n/a	n/a	n/a	n/a	n/a	same	same	True
311.9	2.56	cognitive	outcomerating	10	high_cue	med_stim	22.33	Moderate	22.33	Moderate	0.38	1.33	task-social/outcomerating/task-cognitive_scale.png	n/a	n/a	n/a	n/a	n/a	n/a	n/a	n/a
319.2	0.98	cognitive	cue	11	low_cue	n/a	n/a	n/a	n/a	n/a	n/a	n/a	task-social/cue/runtype-cognitive/scl/l022.png	n/a	n/a	n/a	n/a	n/a	n/a	n/a	n/a
322.0	1.2	cognitive	expectrating	11	low_cue	n/a	3.06	Weak	3.06	Weak	0.33	0.87	task-social/cue/runtype-cognitive/scl/l022.png	n/a	n/a	n/a	n/a	n/a	n/a	n/a	n/a
332.19	5.0	cognitive	stimulus	11	low_cue	low_stim	n/a	n/a	n/a	n/a	n/a	n/a	task-social/stim/runtype-cognitive/39_50.jpg	n/a	n/a	n/a	n/a	n/a	same	same	True
348.0	2.56	cognitive	outcomerating	11	low_cue	low_stim	7.13	Weak	7.13	Weak	0.33	0.87	task-social/outcomerating/task-cognitive_scale.png	n/a	n/a	n/a	n/a	n/a	n/a	n/a	n/a
362.5	0.98	cognitive	cue	12	high_cue	n/a	n/a	n/a	n/a	n/a	n/a	n/a	task-social/cue/runtype-cognitive/sch/h051.png	n/a	n/a	n/a	n/a	n/a	n/a	n/a	n/a
364.9	1.37	cognitive	expectrating	12	high_cue	n/a	7.18	Weak	7.18	Weak	0.4	0.97	task-social/cue/runtype-cognitive/sch/h051.png	n/a	n/a	n/a	n/a	n/a	n/a	n/a	n/a
381.59	5.0	cognitive	stimulus	12	high_cue	high_stim	n/a	n/a	n/a	n/a	n/a	n/a	task-social/stim/runtype-cognitive/39_150_R.jpg	n/a	n/a	n/a	n/a	n/a	diff	diff	True
394.8	2.14	cognitive	outcomerating	12	high_cue	high_stim	8.16	Weak	8.16	Weak	0.4	0.97	task-social/outcomerating/task-cognitive_scale.png	n/a	n/a	n/a	n/a	n/a	n/a	n/a	n/a
