onset	duration	run_type	trial_type	trial_index	cue	stimulusintensity	rating_value	rating_glmslabel	rating_value_fillna	rating_glmslabel_fillna	rating_mouseonset	rating_mousedur	stim_file_TODO	pain_onset_ttl1	pain_onset_ttl2	pain_onset_ttl3	pain_onset_ttl4	pain_stimulus_delivery_success	cognitive_correct_response	cognitive_participant_response	cognitive_response_accuracy
5.68	0.99	cognitive	cue	1	high_cue	n/a	n/a	n/a	n/a	n/a	n/a	n/a	task-social/cue/runtype-cognitive/sch/h004.png	n/a	n/a	n/a	n/a	n/a	n/a	n/a	n/a
8.3	n/a	cognitive	expectrating	1	high_cue	n/a	n/a	n/a	24.71	Moderate	1.02	1.27	task-social/cue/runtype-cognitive/sch/h004.png	n/a	n/a	n/a	n/a	n/a	n/a	n/a	n/a
14.9	5.0	cognitive	stimulus	1	high_cue	high_stim	n/a	n/a	n/a	n/a	n/a	n/a	task-social/stim/runtype-cognitive/44_150_R.jpg	n/a	n/a	n/a	n/a	n/a	diff	diff	True
23.89	n/a	cognitive	outcomerating	1	high_cue	high_stim	n/a	n/a	14.65	Moderate	1.02	1.27	task-social/outcomerating/task-cognitive_scale.png	n/a	n/a	n/a	n/a	n/a	n/a	n/a	n/a
28.99	0.98	cognitive	cue	2	low_cue	n/a	n/a	n/a	n/a	n/a	n/a	n/a	task-social/cue/runtype-cognitive/scl/l048.png	n/a	n/a	n/a	n/a	n/a	n/a	n/a	n/a
31.99	1.53	cognitive	expectrating	2	low_cue	n/a	5.69	Weak	5.69	Weak	0.05	1.48	task-social/cue/runtype-cognitive/scl/l048.png	n/a	n/a	n/a	n/a	n/a	n/a	n/a	n/a
43.9	5.0	cognitive	stimulus	2	low_cue	high_stim	n/a	n/a	n/a	n/a	n/a	n/a	task-social/stim/runtype-cognitive/10_150_R.jpg	n/a	n/a	n/a	n/a	n/a	diff	diff	True
55.19	1.69	cognitive	outcomerating	2	low_cue	high_stim	4.17	Weak	4.17	Weak	0.05	1.48	task-social/outcomerating/task-cognitive_scale.png	n/a	n/a	n/a	n/a	n/a	n/a	n/a	n/a
59.79	0.99	cognitive	cue	3	low_cue	n/a	n/a	n/a	n/a	n/a	n/a	n/a	task-social/cue/runtype-cognitive/scl/l019.png	n/a	n/a	n/a	n/a	n/a	n/a	n/a	n/a
62.19	1.39	cognitive	expectrating	3	low_cue	n/a	9.0	Weak	9.0	Weak	0.18	1.2	task-social/cue/runtype-cognitive/scl/l019.png	n/a	n/a	n/a	n/a	n/a	n/a	n/a	n/a
69.19	5.0	cognitive	stimulus	3	low_cue	high_stim	n/a	n/a	n/a	n/a	n/a	n/a	task-social/stim/runtype-cognitive/23_150_R.jpg	n/a	n/a	n/a	n/a	n/a	diff	n/a	False
81.7	2.93	cognitive	outcomerating	3	low_cue	high_stim	10.22	Moderate	10.22	Moderate	0.18	1.2	task-social/outcomerating/task-cognitive_scale.png	n/a	n/a	n/a	n/a	n/a	n/a	n/a	n/a
94.88	0.99	cognitive	cue	4	high_cue	n/a	n/a	n/a	n/a	n/a	n/a	n/a	task-social/cue/runtype-cognitive/sch/h049.png	n/a	n/a	n/a	n/a	n/a	n/a	n/a	n/a
97.28	1.09	cognitive	expectrating	4	high_cue	n/a	38.66	Strong	38.66	Strong	0.13	0.96	task-social/cue/runtype-cognitive/sch/h049.png	n/a	n/a	n/a	n/a	n/a	n/a	n/a	n/a
104.49	5.0	cognitive	stimulus	4	high_cue	high_stim	n/a	n/a	n/a	n/a	n/a	n/a	task-social/stim/runtype-cognitive/33_150_R.jpg	n/a	n/a	n/a	n/a	n/a	diff	n/a	False
115.39	3.62	cognitive	outcomerating	4	high_cue	high_stim	21.12	Moderate	21.12	Moderate	0.13	0.96	task-social/outcomerating/task-cognitive_scale.png	n/a	n/a	n/a	n/a	n/a	n/a	n/a	n/a
119.99	0.98	cognitive	cue	5	low_cue	n/a	n/a	n/a	n/a	n/a	n/a	n/a	task-social/cue/runtype-cognitive/scl/l010.png	n/a	n/a	n/a	n/a	n/a	n/a	n/a	n/a
122.99	1.62	cognitive	expectrating	5	low_cue	n/a	12.35	Moderate	12.35	Moderate	0.62	1.0	task-social/cue/runtype-cognitive/scl/l010.png	n/a	n/a	n/a	n/a	n/a	n/a	n/a	n/a
140.2	5.0	cognitive	stimulus	5	low_cue	low_stim	n/a	n/a	n/a	n/a	n/a	n/a	task-social/stim/runtype-cognitive/22_50.jpg	n/a	n/a	n/a	n/a	n/a	same	same	True
151.49	1.89	cognitive	outcomerating	5	low_cue	low_stim	3.97	Weak	3.97	Weak	0.62	1.0	task-social/outcomerating/task-cognitive_scale.png	n/a	n/a	n/a	n/a	n/a	n/a	n/a	n/a
162.39	0.98	cognitive	cue	6	high_cue	n/a	n/a	n/a	n/a	n/a	n/a	n/a	task-social/cue/runtype-cognitive/sch/h041.png	n/a	n/a	n/a	n/a	n/a	n/a	n/a	n/a
165.39	1.68	cognitive	expectrating	6	high_cue	n/a	34.39	Strong	34.39	Strong	1.07	0.62	task-social/cue/runtype-cognitive/sch/h041.png	n/a	n/a	n/a	n/a	n/a	n/a	n/a	n/a
191.09	5.0	cognitive	stimulus	6	high_cue	low_stim	n/a	n/a	n/a	n/a	n/a	n/a	task-social/stim/runtype-cognitive/10_50.jpg	n/a	n/a	n/a	n/a	n/a	same	same	True
207.79	n/a	cognitive	outcomerating	6	high_cue	low_stim	n/a	n/a	25.23	Moderate	1.07	0.62	task-social/outcomerating/task-cognitive_scale.png	n/a	n/a	n/a	n/a	n/a	n/a	n/a	n/a
215.4	0.98	cognitive	cue	7	low_cue	n/a	n/a	n/a	n/a	n/a	n/a	n/a	task-social/cue/runtype-cognitive/scl/l053.png	n/a	n/a	n/a	n/a	n/a	n/a	n/a	n/a
217.6	1.55	cognitive	expectrating	7	low_cue	n/a	15.43	Moderate	15.43	Moderate	0.57	0.98	task-social/cue/runtype-cognitive/scl/l053.png	n/a	n/a	n/a	n/a	n/a	n/a	n/a	n/a
226.98	5.0	cognitive	stimulus	7	low_cue	med_stim	n/a	n/a	n/a	n/a	n/a	n/a	task-social/stim/runtype-cognitive/9_100.jpg	n/a	n/a	n/a	n/a	n/a	same	same	True
240.59	n/a	cognitive	outcomerating	7	low_cue	med_stim	n/a	n/a	21.72	Moderate	0.57	0.98	task-social/outcomerating/task-cognitive_scale.png	n/a	n/a	n/a	n/a	n/a	n/a	n/a	n/a
251.69	0.98	cognitive	cue	8	high_cue	n/a	n/a	n/a	n/a	n/a	n/a	n/a	task-social/cue/runtype-cognitive/sch/h033.png	n/a	n/a	n/a	n/a	n/a	n/a	n/a	n/a
254.29	1.68	cognitive	expectrating	8	high_cue	n/a	19.45	Moderate	19.45	Moderate	0.42	1.27	task-social/cue/runtype-cognitive/sch/h033.png	n/a	n/a	n/a	n/a	n/a	n/a	n/a	n/a
260.9	5.0	cognitive	stimulus	8	high_cue	med_stim	n/a	n/a	n/a	n/a	n/a	n/a	task-social/stim/runtype-cognitive/33_100_R.jpg	n/a	n/a	n/a	n/a	n/a	diff	diff	True
270.1	n/a	cognitive	outcomerating	8	high_cue	med_stim	n/a	n/a	20.99	Moderate	0.42	1.27	task-social/outcomerating/task-cognitive_scale.png	n/a	n/a	n/a	n/a	n/a	n/a	n/a	n/a
279.99	0.99	cognitive	cue	9	high_cue	n/a	n/a	n/a	n/a	n/a	n/a	n/a	task-social/cue/runtype-cognitive/sch/h017.png	n/a	n/a	n/a	n/a	n/a	n/a	n/a	n/a
281.89	3.15	cognitive	expectrating	9	high_cue	n/a	19.24	Moderate	19.24	Moderate	0.63	2.52	task-social/cue/runtype-cognitive/sch/h017.png	n/a	n/a	n/a	n/a	n/a	n/a	n/a	n/a
289.89	5.0	cognitive	stimulus	9	high_cue	med_stim	n/a	n/a	n/a	n/a	n/a	n/a	task-social/stim/runtype-cognitive/10_100.jpg	n/a	n/a	n/a	n/a	n/a	same	same	True
299.29	3.8	cognitive	outcomerating	9	high_cue	med_stim	30.92	Strong	30.92	Strong	0.63	2.52	task-social/outcomerating/task-cognitive_scale.png	n/a	n/a	n/a	n/a	n/a	n/a	n/a	n/a
308.4	0.98	cognitive	cue	10	low_cue	n/a	n/a	n/a	n/a	n/a	n/a	n/a	task-social/cue/runtype-cognitive/scl/l028.png	n/a	n/a	n/a	n/a	n/a	n/a	n/a	n/a
311.4	2.52	cognitive	expectrating	10	low_cue	n/a	25.21	Moderate	25.21	Moderate	0.98	1.53	task-social/cue/runtype-cognitive/scl/l028.png	n/a	n/a	n/a	n/a	n/a	n/a	n/a	n/a
318.98	5.0	cognitive	stimulus	10	low_cue	med_stim	n/a	n/a	n/a	n/a	n/a	n/a	task-social/stim/runtype-cognitive/17_100.jpg	n/a	n/a	n/a	n/a	n/a	same	same	True
331.51	n/a	cognitive	outcomerating	10	low_cue	med_stim	n/a	n/a	29.89	Strong	0.98	1.53	task-social/outcomerating/task-cognitive_scale.png	n/a	n/a	n/a	n/a	n/a	n/a	n/a	n/a
341.09	0.98	cognitive	cue	11	high_cue	n/a	n/a	n/a	n/a	n/a	n/a	n/a	task-social/cue/runtype-cognitive/sch/h054.png	n/a	n/a	n/a	n/a	n/a	n/a	n/a	n/a
342.99	n/a	cognitive	expectrating	11	high_cue	n/a	n/a	n/a	27.85	Moderate	0.8	3.42	task-social/cue/runtype-cognitive/sch/h054.png	n/a	n/a	n/a	n/a	n/a	n/a	n/a	n/a
354.9	5.0	cognitive	stimulus	11	high_cue	low_stim	n/a	n/a	n/a	n/a	n/a	n/a	task-social/stim/runtype-cognitive/17_50_R.jpg	n/a	n/a	n/a	n/a	n/a	diff	n/a	False
364.68	2.14	cognitive	outcomerating	11	high_cue	low_stim	24.46	Moderate	24.46	Moderate	0.8	3.42	task-social/outcomerating/task-cognitive_scale.png	n/a	n/a	n/a	n/a	n/a	n/a	n/a	n/a
374.29	0.99	cognitive	cue	12	low_cue	n/a	n/a	n/a	n/a	n/a	n/a	n/a	task-social/cue/runtype-cognitive/scl/l011.png	n/a	n/a	n/a	n/a	n/a	n/a	n/a	n/a
376.19	n/a	cognitive	expectrating	12	low_cue	n/a	n/a	n/a	16.04	Moderate	0.7	2.68	task-social/cue/runtype-cognitive/scl/l011.png	n/a	n/a	n/a	n/a	n/a	n/a	n/a	n/a
382.99	5.0	cognitive	stimulus	12	low_cue	low_stim	n/a	n/a	n/a	n/a	n/a	n/a	task-social/stim/runtype-cognitive/10_50_R.jpg	n/a	n/a	n/a	n/a	n/a	diff	diff	True
395.0	1.93	cognitive	outcomerating	12	low_cue	low_stim	12.53	Moderate	12.53	Moderate	0.7	2.68	task-social/outcomerating/task-cognitive_scale.png	n/a	n/a	n/a	n/a	n/a	n/a	n/a	n/a
