onset	duration	subtask_type	event_type	response_accuracy	cue_location	target_location	button_press	trial_index
6.773	0.2	posner	invalid_cue	correct	left	n/a	n/a	1
6.973	0.503	posner	target_response	correct	left	right	right	1
10.375	0.2	posner	invalid_cue	correct	left	n/a	n/a	2
10.575	0.383	posner	target_response	correct	left	right	right	2
16.16	0.2	posner	valid_cue	correct	left	n/a	n/a	3
16.36	0.424	posner	target_response	correct	left	left	left	3
19.745	0.2	posner	invalid_cue	correct	right	n/a	n/a	4
19.945	0.446	posner	target_response	correct	right	left	left	4
22.913	0.2	posner	invalid_cue	correct	right	n/a	n/a	5
23.113	0.376	posner	target_response	correct	right	left	left	5
26.414	0.2	posner	valid_cue	correct	left	n/a	n/a	6
26.614	0.397	posner	target_response	correct	left	left	left	6
29.382	0.2	posner	valid_cue	correct	right	n/a	n/a	7
29.582	0.429	posner	target_response	correct	right	right	right	7
32.75	0.2	posner	valid_cue	correct	right	n/a	n/a	8
32.95	0.344	posner	target_response	correct	right	right	right	8
36.118	0.2	posner	invalid_cue	correct	right	n/a	n/a	9
36.318	0.374	posner	target_response	correct	right	left	left	9
42.587	0.2	posner	invalid_cue	correct	left	n/a	n/a	10
42.787	0.416	posner	target_response	correct	left	right	right	10
50.056	0.2	posner	invalid_cue	correct	right	n/a	n/a	11
50.256	0.402	posner	target_response	correct	right	left	left	11
53.324	0.2	posner	invalid_cue	correct	right	n/a	n/a	12
53.524	0.372	posner	target_response	correct	right	left	left	12
57.092	0.2	posner	valid_cue	correct	right	n/a	n/a	13
57.292	0.376	posner	target_response	correct	right	right	right	13
64.161	0.2	posner	valid_cue	correct	right	n/a	n/a	14
64.361	0.372	posner	target_response	correct	right	right	right	14
67.829	0.2	posner	valid_cue	correct	right	n/a	n/a	15
68.029	0.272	posner	target_response	correct	right	right	right	15
71.397	0.2	posner	valid_cue	correct	left	n/a	n/a	16
71.597	0.229	posner	target_response	correct	left	left	left	16
74.465	0.2	posner	invalid_cue	correct	right	n/a	n/a	17
74.665	0.419	posner	target_response	correct	right	left	left	17
78.133	0.2	posner	invalid_cue	incorrect	left	n/a	n/a	18
78.333	0.23	posner	target_response	incorrect	left	right	left	18
81.601	0.2	posner	invalid_cue	correct	left	n/a	n/a	19
81.801	0.37	posner	target_response	correct	left	right	right	19
85.069	0.2	posner	valid_cue	correct	left	n/a	n/a	20
85.269	0.29	posner	target_response	correct	left	left	left	20
88.637	0.2	posner	valid_cue	correct	right	n/a	n/a	21
88.837	0.298	posner	target_response	correct	right	right	right	21
92.905	0.2	posner	invalid_cue	correct	right	n/a	n/a	22
93.106	0.495	posner	target_response	correct	right	left	left	22
101.775	0.2	posner	invalid_cue	correct	right	n/a	n/a	23
101.975	0.454	posner	target_response	correct	right	left	left	23
105.043	0.2	posner	invalid_cue	correct	left	n/a	n/a	24
105.243	0.409	posner	target_response	correct	left	right	right	24
108.711	0.2	posner	invalid_cue	correct	right	n/a	n/a	25
108.911	0.423	posner	target_response	correct	right	left	left	25
112.98	0.2	posner	invalid_cue	correct	left	n/a	n/a	26
113.18	0.429	posner	target_response	correct	left	right	right	26
116.348	0.2	posner	invalid_cue	correct	left	n/a	n/a	27
116.548	0.42	posner	target_response	correct	left	right	right	27
119.915	0.2	posner	invalid_cue	correct	right	n/a	n/a	28
120.116	0.421	posner	target_response	correct	right	left	left	28
123.884	0.2	posner	invalid_cue	correct	left	n/a	n/a	29
124.084	0.375	posner	target_response	correct	left	right	right	29
131.353	0.2	posner	invalid_cue	correct	right	n/a	n/a	30
131.553	0.366	posner	target_response	correct	right	left	left	30
135.321	0.2	posner	invalid_cue	correct	right	n/a	n/a	31
135.521	0.402	posner	target_response	correct	right	left	left	31
138.689	0.2	posner	invalid_cue	correct	left	n/a	n/a	32
138.889	0.42	posner	target_response	correct	left	right	right	32
143.358	0.2	posner	invalid_cue	correct	left	n/a	n/a	33
143.558	0.42	posner	target_response	correct	left	right	right	33
150.827	0.2	posner	invalid_cue	correct	right	n/a	n/a	34
151.027	0.41	posner	target_response	correct	right	left	left	34
153.895	0.2	posner	valid_cue	correct	right	n/a	n/a	35
154.095	0.359	posner	target_response	correct	right	right	right	35
158.863	0.2	posner	valid_cue	correct	left	n/a	n/a	36
159.063	0.416	posner	target_response	correct	left	left	left	36
162.531	0.2	posner	invalid_cue	correct	left	n/a	n/a	37
162.731	0.383	posner	target_response	correct	left	right	right	37
165.599	0.2	posner	valid_cue	correct	right	n/a	n/a	38
165.799	0.38	posner	target_response	correct	right	right	right	38
169.167	0.2	posner	valid_cue	correct	left	n/a	n/a	39
169.367	0.252	posner	target_response	correct	left	left	left	39
172.335	0.2	posner	valid_cue	correct	right	n/a	n/a	40
172.535	0.24	posner	target_response	correct	right	right	right	40
178.904	0.2	posner	valid_cue	correct	left	n/a	n/a	41
179.104	0.336	posner	target_response	correct	left	left	left	41
186.374	0.2	posner	invalid_cue	correct	left	n/a	n/a	42
186.574	0.414	posner	target_response	correct	left	right	right	42
189.942	0.2	posner	valid_cue	correct	right	n/a	n/a	43
190.142	0.367	posner	target_response	correct	right	right	right	43
197.411	0.2	posner	invalid_cue	correct	left	n/a	n/a	44
197.611	0.438	posner	target_response	correct	left	right	right	44
204.881	0.2	posner	valid_cue	correct	right	n/a	n/a	45
205.081	0.389	posner	target_response	correct	right	right	right	45
208.549	0.2	posner	valid_cue	correct	right	n/a	n/a	46
208.749	0.328	posner	target_response	correct	right	right	right	46
212.217	0.2	posner	valid_cue	correct	left	n/a	n/a	47
212.417	0.385	posner	target_response	correct	left	left	left	47
219.686	0.2	posner	invalid_cue	correct	right	n/a	n/a	48
219.886	0.382	posner	target_response	correct	right	left	left	48
223.254	0.2	posner	valid_cue	correct	right	n/a	n/a	49
223.454	0.391	posner	target_response	correct	right	right	right	49
228.323	0.2	posner	valid_cue	correct	right	n/a	n/a	50
228.523	0.337	posner	target_response	correct	right	right	right	50
239.593	0.2	posner	invalid_cue	correct	right	n/a	n/a	51
239.794	0.431	posner	target_response	correct	right	left	left	51
245.862	0.2	posner	valid_cue	correct	right	n/a	n/a	52
246.063	0.457	posner	target_response	correct	right	right	right	52
249.13	0.2	posner	valid_cue	correct	right	n/a	n/a	53
249.33	0.345	posner	target_response	correct	right	right	right	53
256.5	0.2	posner	invalid_cue	correct	left	n/a	n/a	54
256.7	0.434	posner	target_response	correct	left	right	right	54
261.468	0.2	posner	valid_cue	correct	left	n/a	n/a	55
261.668	0.389	posner	target_response	correct	left	left	left	55
264.536	0.2	posner	valid_cue	correct	right	n/a	n/a	56
264.736	0.367	posner	target_response	correct	right	right	right	56
267.504	0.2	posner	valid_cue	correct	left	n/a	n/a	57
267.704	0.373	posner	target_response	correct	left	left	left	57
270.472	0.2	posner	valid_cue	correct	right	n/a	n/a	58
270.672	0.288	posner	target_response	correct	right	right	right	58
282.743	0.2	posner	invalid_cue	correct	right	n/a	n/a	59
282.943	0.439	posner	target_response	correct	right	left	left	59
286.311	0.2	posner	invalid_cue	correct	right	n/a	n/a	60
286.511	0.409	posner	target_response	correct	right	left	left	60
295.781	0.2	posner	invalid_cue	correct	left	n/a	n/a	61
295.981	0.398	posner	target_response	correct	left	right	right	61
303.05	0.2	posner	invalid_cue	correct	right	n/a	n/a	62
303.251	0.375	posner	target_response	correct	right	left	left	62
306.118	0.2	posner	invalid_cue	correct	right	n/a	n/a	63
306.318	0.4	posner	target_response	correct	right	left	left	63
310.086	0.2	posner	valid_cue	correct	right	n/a	n/a	64
310.286	0.385	posner	target_response	correct	right	right	right	64
316.355	0.2	posner	invalid_cue	correct	right	n/a	n/a	65
316.555	0.395	posner	target_response	correct	right	left	left	65
323.725	0.2	posner	invalid_cue	correct	left	n/a	n/a	66
323.925	0.405	posner	target_response	correct	left	right	right	66
327.293	0.2	posner	valid_cue	correct	left	n/a	n/a	67
327.493	0.335	posner	target_response	correct	left	left	left	67
330.661	0.2	posner	invalid_cue	correct	left	n/a	n/a	68
330.861	0.35	posner	target_response	correct	left	right	right	68
333.829	0.2	posner	valid_cue	correct	left	n/a	n/a	69
334.029	0.344	posner	target_response	correct	left	left	left	69
337.397	0.2	posner	invalid_cue	correct	left	n/a	n/a	70
337.597	0.362	posner	target_response	correct	left	right	right	70
344.866	0.2	posner	invalid_cue	correct	right	n/a	n/a	71
345.066	0.438	posner	target_response	correct	right	left	left	71
352.336	0.2	posner	invalid_cue	correct	left	n/a	n/a	72
352.536	0.365	posner	target_response	correct	left	right	right	72
356.104	0.2	posner	valid_cue	correct	left	n/a	n/a	73
356.304	0.384	posner	target_response	correct	left	left	left	73
359.271	0.2	posner	invalid_cue	correct	left	n/a	n/a	74
359.472	0.396	posner	target_response	correct	left	right	right	74
370.542	0.2	posner	invalid_cue	correct	right	n/a	n/a	75
370.742	0.37	posner	target_response	correct	right	left	left	75
373.71	0.2	posner	invalid_cue	correct	left	n/a	n/a	76
373.91	0.33	posner	target_response	correct	left	right	right	76
377.778	0.2	posner	invalid_cue	correct	right	n/a	n/a	77
377.978	0.353	posner	target_response	correct	right	left	left	77
383.547	0.2	posner	valid_cue	correct	right	n/a	n/a	78
383.747	0.329	posner	target_response	correct	right	right	right	78
386.615	0.2	posner	invalid_cue	correct	right	n/a	n/a	79
386.815	0.472	posner	target_response	correct	right	left	left	79
390.183	0.2	posner	valid_cue	correct	left	n/a	n/a	80
390.383	0.311	posner	target_response	correct	left	left	left	80
393.251	0.2	posner	invalid_cue	correct	right	n/a	n/a	81
393.451	0.387	posner	target_response	correct	right	left	left	81
398.119	0.2	posner	invalid_cue	correct	left	n/a	n/a	82
398.319	0.373	posner	target_response	correct	left	right	right	82
402.788	0.2	posner	valid_cue	correct	left	n/a	n/a	83
402.988	0.298	posner	target_response	correct	left	left	left	83
410.257	0.2	posner	invalid_cue	correct	right	n/a	n/a	84
410.457	0.494	posner	target_response	correct	right	left	left	84
415.526	0.2	posner	invalid_cue	correct	right	n/a	n/a	85
415.726	0.366	posner	target_response	correct	right	left	left	85
422.995	0.2	posner	valid_cue	correct	right	n/a	n/a	86
423.195	0.356	posner	target_response	correct	right	right	right	86
427.564	0.2	posner	invalid_cue	correct	right	n/a	n/a	87
427.764	0.321	posner	target_response	correct	right	left	left	87
430.631	0.2	posner	invalid_cue	correct	right	n/a	n/a	88
430.831	0.386	posner	target_response	correct	right	left	left	88
440.302	0.2	posner	invalid_cue	correct	right	n/a	n/a	89
440.502	0.409	posner	target_response	correct	right	left	left	89
447.771	0.2	posner	invalid_cue	correct	left	n/a	n/a	90
447.971	0.386	posner	target_response	correct	left	right	right	90
451.439	0.2	posner	valid_cue	correct	left	n/a	n/a	91
451.639	0.631	posner	target_response	correct	left	left	left	91
455.307	0.2	posner	valid_cue	correct	right	n/a	n/a	92
455.507	0.413	posner	target_response	correct	right	right	right	92
458.775	0.2	posner	invalid_cue	correct	right	n/a	n/a	93
458.975	0.353	posner	target_response	correct	right	left	left	93
468.445	0.2	posner	invalid_cue	correct	left	n/a	n/a	94
468.646	0.392	posner	target_response	correct	left	right	right	94
471.513	0.2	posner	invalid_cue	correct	left	n/a	n/a	95
471.713	0.345	posner	target_response	correct	left	right	right	95
474.681	0.2	posner	invalid_cue	correct	left	n/a	n/a	96
474.881	0.384	posner	target_response	correct	left	right	right	96
486.952	0.2	posner	valid_cue	correct	right	n/a	n/a	97
487.152	0.372	posner	target_response	correct	right	right	right	97
493.021	0.2	posner	invalid_cue	correct	left	n/a	n/a	98
493.221	0.372	posner	target_response	correct	left	right	right	98
496.289	0.2	posner	invalid_cue	correct	right	n/a	n/a	99
496.489	0.359	posner	target_response	correct	right	left	left	99
499.457	0.2	posner	valid_cue	correct	left	n/a	n/a	100
499.657	0.315	posner	target_response	correct	left	left	left	100
511.528	0.2	posner	invalid_cue	correct	right	n/a	n/a	101
511.728	0.402	posner	target_response	correct	right	left	left	101
518.097	0.2	posner	invalid_cue	correct	left	n/a	n/a	102
518.297	0.42	posner	target_response	correct	left	right	right	102
521.765	0.2	posner	invalid_cue	correct	left	n/a	n/a	103
521.965	0.431	posner	target_response	correct	left	right	right	103
525.834	0.2	posner	invalid_cue	correct	right	n/a	n/a	104
526.034	0.358	posner	target_response	correct	right	left	left	104
529.101	0.2	posner	invalid_cue	correct	left	n/a	n/a	105
529.302	0.434	posner	target_response	correct	left	right	right	105
532.369	0.2	posner	invalid_cue	correct	left	n/a	n/a	106
532.569	0.433	posner	target_response	correct	left	right	right	106
535.537	0.2	posner	invalid_cue	correct	left	n/a	n/a	107
535.737	0.437	posner	target_response	correct	left	right	right	107
542.706	0.2	posner	invalid_cue	correct	right	n/a	n/a	108
542.907	0.368	posner	target_response	correct	right	left	left	108
546.174	0.2	posner	invalid_cue	correct	left	n/a	n/a	109
546.375	0.425	posner	target_response	correct	left	right	right	109
550.426	0.2	posner	valid_cue	correct	left	n/a	n/a	110
550.626	0.316	posner	target_response	correct	left	left	left	110
553.694	0.2	posner	invalid_cue	correct	right	n/a	n/a	111
553.894	0.473	posner	target_response	correct	right	left	left	111
561.163	0.2	posner	valid_cue	correct	left	n/a	n/a	112
561.363	0.328	posner	target_response	correct	left	left	left	112
564.731	0.2	posner	valid_cue	correct	left	n/a	n/a	113
564.931	0.262	posner	target_response	correct	left	left	left	113
570.8	0.2	posner	invalid_cue	correct	left	n/a	n/a	114
571.0	0.443	posner	target_response	correct	left	right	right	114
575.469	0.2	posner	valid_cue	correct	right	n/a	n/a	115
575.669	0.33	posner	target_response	correct	right	right	right	115
579.537	0.2	posner	valid_cue	correct	left	n/a	n/a	116
579.737	0.312	posner	target_response	correct	left	left	left	116
584.705	0.2	posner	valid_cue	correct	left	n/a	n/a	117
584.906	0.325	posner	target_response	correct	left	left	left	117
587.773	0.2	posner	valid_cue	correct	right	n/a	n/a	118
587.973	0.293	posner	target_response	correct	right	right	right	118
590.841	0.2	posner	valid_cue	correct	left	n/a	n/a	119
591.041	0.324	posner	target_response	correct	left	left	left	119
599.911	0.2	posner	valid_cue	correct	left	n/a	n/a	120
600.111	0.338	posner	target_response	correct	left	left	left	120
