onset	duration	run_type	trial_type	trial_index	cue	stimulusintensity	rating_value	rating_glmslabel	rating_value_fillna	rating_glmslabel_fillna	rating_mouseonset	rating_mousedur	stim_file	pain_onset_ttl1	pain_onset_ttl2	pain_onset_ttl3	pain_onset_ttl4	pain_stimulus_delivery_success	cognitive_correct_response	cognitive_participant_response	cognitive_response_accuracy
10.99	0.98	cognitive	cue	1	low_cue	n/a	n/a	n/a	n/a	n/a	n/a	n/a	task-social/cue/runtype-cognitive/scl/l053.png	n/a	n/a	n/a	n/a	n/a	n/a	n/a	n/a
14.3	1.72	cognitive	expectrating	1	low_cue	n/a	12.98	Moderate	12.98	Moderate	0.4	1.32	task-social/cue/runtype-cognitive/scl/l053.png	n/a	n/a	n/a	n/a	n/a	n/a	n/a	n/a
32.5	5.0	cognitive	stimulus	1	low_cue	med_stim	n/a	n/a	n/a	n/a	n/a	n/a	task-social/stim/runtype-cognitive/43_100.jpg	n/a	n/a	n/a	n/a	n/a	same	n/a	False
45.29	2.34	cognitive	outcomerating	1	low_cue	med_stim	43.2	Strong	43.2	Strong	0.4	1.32	task-social/outcomerating/task-cognitive_scale.png	n/a	n/a	n/a	n/a	n/a	n/a	n/a	n/a
51.49	0.98	cognitive	cue	2	low_cue	n/a	n/a	n/a	n/a	n/a	n/a	n/a	task-social/cue/runtype-cognitive/scl/l037.png	n/a	n/a	n/a	n/a	n/a	n/a	n/a	n/a
53.69	1.72	cognitive	expectrating	2	low_cue	n/a	24.71	Moderate	24.71	Moderate	0.43	1.29	task-social/cue/runtype-cognitive/scl/l037.png	n/a	n/a	n/a	n/a	n/a	n/a	n/a	n/a
62.38	5.0	cognitive	stimulus	2	low_cue	high_stim	n/a	n/a	n/a	n/a	n/a	n/a	task-social/stim/runtype-cognitive/18_150.jpg	n/a	n/a	n/a	n/a	n/a	same	diff	False
75.19	2.13	cognitive	outcomerating	2	low_cue	high_stim	39.31	Strong	39.31	Strong	0.43	1.29	task-social/outcomerating/task-cognitive_scale.png	n/a	n/a	n/a	n/a	n/a	n/a	n/a	n/a
82.99	0.99	cognitive	cue	3	high_cue	n/a	n/a	n/a	n/a	n/a	n/a	n/a	task-social/cue/runtype-cognitive/sch/h015.png	n/a	n/a	n/a	n/a	n/a	n/a	n/a	n/a
85.79	1.68	cognitive	expectrating	3	high_cue	n/a	29.26	Strong	29.26	Strong	0.4	1.28	task-social/cue/runtype-cognitive/sch/h015.png	n/a	n/a	n/a	n/a	n/a	n/a	n/a	n/a
92.49	5.0	cognitive	stimulus	3	high_cue	low_stim	n/a	n/a	n/a	n/a	n/a	n/a	task-social/stim/runtype-cognitive/35_50.jpg	n/a	n/a	n/a	n/a	n/a	same	diff	False
100.39	2.85	cognitive	outcomerating	3	high_cue	low_stim	37.01	Strong	37.01	Strong	0.4	1.28	task-social/outcomerating/task-cognitive_scale.png	n/a	n/a	n/a	n/a	n/a	n/a	n/a	n/a
117.18	0.99	cognitive	cue	4	high_cue	n/a	n/a	n/a	n/a	n/a	n/a	n/a	task-social/cue/runtype-cognitive/sch/h050.png	n/a	n/a	n/a	n/a	n/a	n/a	n/a	n/a
119.29	2.0	cognitive	expectrating	4	high_cue	n/a	47.62	Strong	47.62	Strong	0.72	1.28	task-social/cue/runtype-cognitive/sch/h050.png	n/a	n/a	n/a	n/a	n/a	n/a	n/a	n/a
132.79	5.0	cognitive	stimulus	4	high_cue	med_stim	n/a	n/a	n/a	n/a	n/a	n/a	task-social/stim/runtype-cognitive/5_100.jpg	n/a	n/a	n/a	n/a	n/a	same	diff	False
145.6	1.54	cognitive	outcomerating	4	high_cue	med_stim	40.65	Strong	40.65	Strong	0.72	1.28	task-social/outcomerating/task-cognitive_scale.png	n/a	n/a	n/a	n/a	n/a	n/a	n/a	n/a
150.48	1.0	cognitive	cue	5	high_cue	n/a	n/a	n/a	n/a	n/a	n/a	n/a	task-social/cue/runtype-cognitive/sch/h009.png	n/a	n/a	n/a	n/a	n/a	n/a	n/a	n/a
152.7	2.15	cognitive	expectrating	5	high_cue	n/a	42.89	Strong	42.89	Strong	0.82	1.33	task-social/cue/runtype-cognitive/sch/h009.png	n/a	n/a	n/a	n/a	n/a	n/a	n/a	n/a
170.89	5.0	cognitive	stimulus	5	high_cue	high_stim	n/a	n/a	n/a	n/a	n/a	n/a	task-social/stim/runtype-cognitive/11_150_R.jpg	n/a	n/a	n/a	n/a	n/a	diff	diff	True
179.59	2.21	cognitive	outcomerating	5	high_cue	high_stim	30.17	Strong	30.17	Strong	0.82	1.33	task-social/outcomerating/task-cognitive_scale.png	n/a	n/a	n/a	n/a	n/a	n/a	n/a	n/a
185.09	0.98	cognitive	cue	6	low_cue	n/a	n/a	n/a	n/a	n/a	n/a	n/a	task-social/cue/runtype-cognitive/scl/l012.png	n/a	n/a	n/a	n/a	n/a	n/a	n/a	n/a
187.09	2.07	cognitive	expectrating	6	low_cue	n/a	29.14	Strong	29.14	Strong	0.88	1.19	task-social/cue/runtype-cognitive/scl/l012.png	n/a	n/a	n/a	n/a	n/a	n/a	n/a	n/a
195.6	5.0	cognitive	stimulus	6	low_cue	high_stim	n/a	n/a	n/a	n/a	n/a	n/a	task-social/stim/runtype-cognitive/29_150_R.jpg	n/a	n/a	n/a	n/a	n/a	diff	diff	True
204.28	2.15	cognitive	outcomerating	6	low_cue	high_stim	36.69	Strong	36.69	Strong	0.88	1.19	task-social/outcomerating/task-cognitive_scale.png	n/a	n/a	n/a	n/a	n/a	n/a	n/a	n/a
213.19	0.99	cognitive	cue	7	low_cue	n/a	n/a	n/a	n/a	n/a	n/a	n/a	task-social/cue/runtype-cognitive/scl/l046.png	n/a	n/a	n/a	n/a	n/a	n/a	n/a	n/a
216.49	1.81	cognitive	expectrating	7	low_cue	n/a	28.85	Moderate	28.85	Moderate	0.53	1.28	task-social/cue/runtype-cognitive/scl/l046.png	n/a	n/a	n/a	n/a	n/a	n/a	n/a	n/a
224.99	5.0	cognitive	stimulus	7	low_cue	low_stim	n/a	n/a	n/a	n/a	n/a	n/a	task-social/stim/runtype-cognitive/44_50_R.jpg	n/a	n/a	n/a	n/a	n/a	diff	diff	True
238.1	2.37	cognitive	outcomerating	7	low_cue	low_stim	16.32	Moderate	16.32	Moderate	0.53	1.28	task-social/outcomerating/task-cognitive_scale.png	n/a	n/a	n/a	n/a	n/a	n/a	n/a	n/a
244.28	0.99	cognitive	cue	8	high_cue	n/a	n/a	n/a	n/a	n/a	n/a	n/a	task-social/cue/runtype-cognitive/sch/h032.png	n/a	n/a	n/a	n/a	n/a	n/a	n/a	n/a
247.28	2.05	cognitive	expectrating	8	high_cue	n/a	46.95	Strong	46.95	Strong	0.25	1.8	task-social/cue/runtype-cognitive/sch/h032.png	n/a	n/a	n/a	n/a	n/a	n/a	n/a	n/a
253.99	5.0	cognitive	stimulus	8	high_cue	high_stim	n/a	n/a	n/a	n/a	n/a	n/a	task-social/stim/runtype-cognitive/47_150_R.jpg	n/a	n/a	n/a	n/a	n/a	diff	diff	True
262.99	1.99	cognitive	outcomerating	8	high_cue	high_stim	43.69	Strong	43.69	Strong	0.25	1.8	task-social/outcomerating/task-cognitive_scale.png	n/a	n/a	n/a	n/a	n/a	n/a	n/a	n/a
270.39	0.98	cognitive	cue	9	high_cue	n/a	n/a	n/a	n/a	n/a	n/a	n/a	task-social/cue/runtype-cognitive/sch/h011.png	n/a	n/a	n/a	n/a	n/a	n/a	n/a	n/a
272.39	2.32	cognitive	expectrating	9	high_cue	n/a	30.29	Strong	30.29	Strong	0.67	1.66	task-social/cue/runtype-cognitive/sch/h011.png	n/a	n/a	n/a	n/a	n/a	n/a	n/a	n/a
281.7	5.0	cognitive	stimulus	9	high_cue	low_stim	n/a	n/a	n/a	n/a	n/a	n/a	task-social/stim/runtype-cognitive/44_50.jpg	n/a	n/a	n/a	n/a	n/a	same	same	True
298.59	3.33	cognitive	outcomerating	9	high_cue	low_stim	21.93	Moderate	21.93	Moderate	0.67	1.66	task-social/outcomerating/task-cognitive_scale.png	n/a	n/a	n/a	n/a	n/a	n/a	n/a	n/a
304.09	0.99	cognitive	cue	10	low_cue	n/a	n/a	n/a	n/a	n/a	n/a	n/a	task-social/cue/runtype-cognitive/scl/l050.png	n/a	n/a	n/a	n/a	n/a	n/a	n/a	n/a
306.29	1.94	cognitive	expectrating	10	low_cue	n/a	22.66	Moderate	22.66	Moderate	0.45	1.49	task-social/cue/runtype-cognitive/scl/l050.png	n/a	n/a	n/a	n/a	n/a	n/a	n/a	n/a
313.59	5.0	cognitive	stimulus	10	low_cue	med_stim	n/a	n/a	n/a	n/a	n/a	n/a	task-social/stim/runtype-cognitive/44_100_R.jpg	n/a	n/a	n/a	n/a	n/a	diff	diff	True
329.8	2.25	cognitive	outcomerating	10	low_cue	med_stim	30.92	Strong	30.92	Strong	0.45	1.49	task-social/outcomerating/task-cognitive_scale.png	n/a	n/a	n/a	n/a	n/a	n/a	n/a	n/a
338.08	0.99	cognitive	cue	11	low_cue	n/a	n/a	n/a	n/a	n/a	n/a	n/a	task-social/cue/runtype-cognitive/scl/l021.png	n/a	n/a	n/a	n/a	n/a	n/a	n/a	n/a
340.28	1.88	cognitive	expectrating	11	low_cue	n/a	15.15	Moderate	15.15	Moderate	0.43	1.45	task-social/cue/runtype-cognitive/scl/l021.png	n/a	n/a	n/a	n/a	n/a	n/a	n/a	n/a
352.19	5.0	cognitive	stimulus	11	low_cue	low_stim	n/a	n/a	n/a	n/a	n/a	n/a	task-social/stim/runtype-cognitive/29_50_R.jpg	n/a	n/a	n/a	n/a	n/a	diff	diff	True
363.89	2.74	cognitive	outcomerating	11	low_cue	low_stim	23.89	Moderate	23.89	Moderate	0.43	1.45	task-social/outcomerating/task-cognitive_scale.png	n/a	n/a	n/a	n/a	n/a	n/a	n/a	n/a
376.08	0.99	cognitive	cue	12	high_cue	n/a	n/a	n/a	n/a	n/a	n/a	n/a	task-social/cue/runtype-cognitive/sch/h017.png	n/a	n/a	n/a	n/a	n/a	n/a	n/a	n/a
378.9	2.23	cognitive	expectrating	12	high_cue	n/a	49.55	Strong	49.55	Strong	0.72	1.52	task-social/cue/runtype-cognitive/sch/h017.png	n/a	n/a	n/a	n/a	n/a	n/a	n/a	n/a
387.39	5.0	cognitive	stimulus	12	high_cue	med_stim	n/a	n/a	n/a	n/a	n/a	n/a	task-social/stim/runtype-cognitive/42_100.jpg	n/a	n/a	n/a	n/a	n/a	same	same	True
395.0	2.37	cognitive	outcomerating	12	high_cue	med_stim	9.95	Weak	9.95	Weak	0.72	1.52	task-social/outcomerating/task-cognitive_scale.png	n/a	n/a	n/a	n/a	n/a	n/a	n/a	n/a
