onset	duration	run_type	trial_type	trial_index	cue	stimulusintensity	rating_value	rating_glmslabel	rating_value_fillna	rating_glmslabel_fillna	rating_mouseonset	rating_mousedur	stim_file_TODO	pain_onset_ttl1	pain_onset_ttl2	pain_onset_ttl3	pain_onset_ttl4	pain_stimulus_delivery_success	cognitive_correct_response	cognitive_participant_response	cognitive_response_accuracy
14.2	1.0	pain	cue	1	low_cue	n/a	n/a	n/a	n/a	n/a	n/a	n/a	task-social/cue/runtype-pain/scl/l011.png	n/a	n/a	n/a	n/a	n/a	n/a	n/a	n/a
16.0	1.7	pain	expectrating	1	low_cue	n/a	21.42	Moderate	21.42	Moderate	0.63	1.07	task-social/cue/runtype-pain/scl/l011.png	n/a	n/a	n/a	n/a	n/a	n/a	n/a	n/a
24.76	11.91	pain	stimulus	1	low_cue	low_stim	n/a	n/a	n/a	n/a	n/a	n/a	n/a	24.76	28.26	33.26	36.66	success	n/a	n/a	n/a
37.69	1.92	pain	outcomerating	1	low_cue	low_stim	97.21	Very Strong	97.21	Very Strong	0.63	1.07	task-social/outcomerating/task-pain_scale.png	n/a	n/a	n/a	n/a	success	n/a	n/a	n/a
43.8	1.0	pain	cue	2	low_cue	n/a	n/a	n/a	n/a	n/a	n/a	n/a	task-social/cue/runtype-pain/scl/l052.png	n/a	n/a	n/a	n/a	n/a	n/a	n/a	n/a
46.8	1.29	pain	expectrating	2	low_cue	n/a	1.61	Barely detectable	1.61	Barely detectable	0.5	0.79	task-social/cue/runtype-pain/scl/l052.png	n/a	n/a	n/a	n/a	n/a	n/a	n/a	n/a
55.53	12.36	pain	stimulus	2	low_cue	med_stim	n/a	n/a	n/a	n/a	n/a	n/a	n/a	55.53	59.29	64.29	67.9	success	n/a	n/a	n/a
69.31	1.7	pain	outcomerating	2	low_cue	med_stim	85.12	Very Strong	85.12	Very Strong	0.5	0.79	task-social/outcomerating/task-pain_scale.png	n/a	n/a	n/a	n/a	success	n/a	n/a	n/a
77.79	1.0	pain	cue	3	high_cue	n/a	n/a	n/a	n/a	n/a	n/a	n/a	task-social/cue/runtype-pain/sch/h049.png	n/a	n/a	n/a	n/a	n/a	n/a	n/a	n/a
80.79	1.63	pain	expectrating	3	high_cue	n/a	43.7	Strong	43.7	Strong	0.47	1.17	task-social/cue/runtype-pain/sch/h049.png	n/a	n/a	n/a	n/a	n/a	n/a	n/a	n/a
85.62	12.36999999999999	pain	stimulus	3	high_cue	med_stim	n/a	n/a	n/a	n/a	n/a	n/a	n/a	85.62	89.38	94.38	97.99	success	n/a	n/a	n/a
97.4	2.51	pain	outcomerating	3	high_cue	med_stim	133.19	Strongest sensation of any kind	133.19	Strongest sensation of any kind	0.47	1.17	task-social/outcomerating/task-pain_scale.png	n/a	n/a	n/a	n/a	success	n/a	n/a	n/a
110.5	0.98	pain	cue	4	low_cue	n/a	n/a	n/a	n/a	n/a	n/a	n/a	task-social/cue/runtype-pain/scl/l030.png	n/a	n/a	n/a	n/a	n/a	n/a	n/a	n/a
112.4	1.9	pain	expectrating	4	low_cue	n/a	84.15	Very Strong	84.15	Very Strong	0.48	1.42	task-social/cue/runtype-pain/scl/l030.png	n/a	n/a	n/a	n/a	n/a	n/a	n/a	n/a
123.93	12.819999999999993	pain	stimulus	4	low_cue	high_stim	n/a	n/a	n/a	n/a	n/a	n/a	n/a	123.93	127.94	132.94	136.75	success	n/a	n/a	n/a
136.1	3.04	pain	outcomerating	4	low_cue	high_stim	108.73	Strongest sensation of any kind	108.73	Strongest sensation of any kind	0.48	1.42	task-social/outcomerating/task-pain_scale.png	n/a	n/a	n/a	n/a	success	n/a	n/a	n/a
150.7	1.0	pain	cue	5	high_cue	n/a	n/a	n/a	n/a	n/a	n/a	n/a	task-social/cue/runtype-pain/sch/h030.png	n/a	n/a	n/a	n/a	n/a	n/a	n/a	n/a
152.4	1.62	pain	expectrating	5	high_cue	n/a	93.91	Very Strong	93.91	Very Strong	0.47	1.15	task-social/cue/runtype-pain/sch/h030.png	n/a	n/a	n/a	n/a	n/a	n/a	n/a	n/a
158.93	12.359999999999985	pain	stimulus	5	high_cue	med_stim	n/a	n/a	n/a	n/a	n/a	n/a	n/a	158.93	162.69	167.69	171.3	success	n/a	n/a	n/a
173.79	1.29	pain	outcomerating	5	high_cue	med_stim	65.75	Very Strong	65.75	Very Strong	0.47	1.15	task-social/outcomerating/task-pain_scale.png	n/a	n/a	n/a	n/a	success	n/a	n/a	n/a
178.7	1.0	pain	cue	6	low_cue	n/a	n/a	n/a	n/a	n/a	n/a	n/a	task-social/cue/runtype-pain/scl/l038.png	n/a	n/a	n/a	n/a	n/a	n/a	n/a	n/a
181.81	1.71	pain	expectrating	6	low_cue	n/a	89.06	Very Strong	89.06	Very Strong	0.83	0.87	task-social/cue/runtype-pain/scl/l038.png	n/a	n/a	n/a	n/a	n/a	n/a	n/a	n/a
188.02	12.819999999999993	pain	stimulus	6	low_cue	high_stim	n/a	n/a	n/a	n/a	n/a	n/a	n/a	188.02	192.03	197.03	200.84	success	n/a	n/a	n/a
200.1	1.4	pain	outcomerating	6	low_cue	high_stim	91.88	Very Strong	91.88	Very Strong	0.83	0.87	task-social/outcomerating/task-pain_scale.png	n/a	n/a	n/a	n/a	success	n/a	n/a	n/a
205.39	1.0	pain	cue	7	low_cue	n/a	n/a	n/a	n/a	n/a	n/a	n/a	task-social/cue/runtype-pain/scl/l042.png	n/a	n/a	n/a	n/a	n/a	n/a	n/a	n/a
208.41	1.08	pain	expectrating	7	low_cue	n/a	87.33	Very Strong	87.33	Very Strong	0.48	0.6	task-social/cue/runtype-pain/scl/l042.png	n/a	n/a	n/a	n/a	n/a	n/a	n/a	n/a
217.75	11.909999999999997	pain	stimulus	7	low_cue	low_stim	n/a	n/a	n/a	n/a	n/a	n/a	n/a	217.75	221.25	226.25	229.65	success	n/a	n/a	n/a
232.6	2.81	pain	outcomerating	7	low_cue	low_stim	54.49	Strong	54.49	Strong	0.48	0.6	task-social/outcomerating/task-pain_scale.png	n/a	n/a	n/a	n/a	success	n/a	n/a	n/a
237.5	1.0	pain	cue	8	high_cue	n/a	n/a	n/a	n/a	n/a	n/a	n/a	task-social/cue/runtype-pain/sch/h017.png	n/a	n/a	n/a	n/a	n/a	n/a	n/a	n/a
239.2	2.84	pain	expectrating	8	high_cue	n/a	115.69	Strongest sensation of any kind	115.69	Strongest sensation of any kind	0.75	2.09	task-social/cue/runtype-pain/sch/h017.png	n/a	n/a	n/a	n/a	n/a	n/a	n/a	n/a
244.01	12.829999999999984	pain	stimulus	8	high_cue	high_stim	n/a	n/a	n/a	n/a	n/a	n/a	n/a	244.01	248.02	253.02	256.83	success	n/a	n/a	n/a
257.89	2.75	pain	outcomerating	8	high_cue	high_stim	95.76	Very Strong	95.76	Very Strong	0.75	2.09	task-social/outcomerating/task-pain_scale.png	n/a	n/a	n/a	n/a	success	n/a	n/a	n/a
265.8	1.0	pain	cue	9	high_cue	n/a	n/a	n/a	n/a	n/a	n/a	n/a	task-social/cue/runtype-pain/sch/h023.png	n/a	n/a	n/a	n/a	n/a	n/a	n/a	n/a
268.8	1.54	pain	expectrating	9	high_cue	n/a	88.78	Very Strong	88.78	Very Strong	0.78	0.76	task-social/cue/runtype-pain/sch/h023.png	n/a	n/a	n/a	n/a	n/a	n/a	n/a	n/a
275.03	12.830000000000041	pain	stimulus	9	high_cue	high_stim	n/a	n/a	n/a	n/a	n/a	n/a	n/a	275.03	279.04	284.04	287.85	success	n/a	n/a	n/a
288.0	1.89	pain	outcomerating	9	high_cue	high_stim	111.1	Strongest sensation of any kind	111.1	Strongest sensation of any kind	0.78	0.76	task-social/outcomerating/task-pain_scale.png	n/a	n/a	n/a	n/a	success	n/a	n/a	n/a
296.69	1.0	pain	cue	10	high_cue	n/a	n/a	n/a	n/a	n/a	n/a	n/a	task-social/cue/runtype-pain/sch/h035.png	n/a	n/a	n/a	n/a	n/a	n/a	n/a	n/a
299.49	2.65	pain	expectrating	10	high_cue	n/a	87.69	Very Strong	87.69	Very Strong	0.98	1.67	task-social/cue/runtype-pain/sch/h035.png	n/a	n/a	n/a	n/a	n/a	n/a	n/a	n/a
314.12	11.899999999999977	pain	stimulus	10	high_cue	low_stim	n/a	n/a	n/a	n/a	n/a	n/a	n/a	314.12	317.62	322.62	326.02	success	n/a	n/a	n/a
327.0	1.27	pain	outcomerating	10	high_cue	low_stim	48.9	Strong	48.9	Strong	0.98	1.67	task-social/outcomerating/task-pain_scale.png	n/a	n/a	n/a	n/a	success	n/a	n/a	n/a
332.7	0.98	pain	cue	11	high_cue	n/a	n/a	n/a	n/a	n/a	n/a	n/a	task-social/cue/runtype-pain/sch/h039.png	n/a	n/a	n/a	n/a	n/a	n/a	n/a	n/a
335.6	1.53	pain	expectrating	11	high_cue	n/a	113.59	Strongest sensation of any kind	113.59	Strongest sensation of any kind	0.42	1.12	task-social/cue/runtype-pain/sch/h039.png	n/a	n/a	n/a	n/a	n/a	n/a	n/a	n/a
344.52	11.910000000000025	pain	stimulus	11	high_cue	low_stim	n/a	n/a	n/a	n/a	n/a	n/a	n/a	344.52	348.02	353.02	356.42	success	n/a	n/a	n/a
358.5	2.08	pain	outcomerating	11	high_cue	low_stim	54.84	Strong	54.84	Strong	0.42	1.12	task-social/outcomerating/task-pain_scale.png	n/a	n/a	n/a	n/a	success	n/a	n/a	n/a
365.3	1.0	pain	cue	12	low_cue	n/a	n/a	n/a	n/a	n/a	n/a	n/a	task-social/cue/runtype-pain/scl/l041.png	n/a	n/a	n/a	n/a	n/a	n/a	n/a	n/a
367.2	1.06	pain	expectrating	12	low_cue	n/a	89.52	Very Strong	89.52	Very Strong	0.42	0.64	task-social/cue/runtype-pain/scl/l041.png	n/a	n/a	n/a	n/a	n/a	n/a	n/a	n/a
378.85	12.359999999999957	pain	stimulus	12	low_cue	med_stim	n/a	n/a	n/a	n/a	n/a	n/a	n/a	378.85	382.61	387.61	391.22	success	n/a	n/a	n/a
394.49	2.87	pain	outcomerating	12	low_cue	med_stim	132.29	Strongest sensation of any kind	132.29	Strongest sensation of any kind	0.42	0.64	task-social/outcomerating/task-pain_scale.png	n/a	n/a	n/a	n/a	success	n/a	n/a	n/a
