onset	duration	trial_type	response_value	stim_file
2.766	116.372	video	n/a	task-alignvideo/ses-02_run-03_order-01_content-unefille.mp4
123.69	n/a	rating_relevance	n/a	task-alignvideo/ses-02_run-03_order-01_content-unefille.mp4
128.726	n/a	rating_happy	n/a	task-alignvideo/ses-02_run-03_order-01_content-unefille.mp4
133.761	n/a	rating_sad	n/a	task-alignvideo/ses-02_run-03_order-01_content-unefille.mp4
138.779	n/a	rating_afraid	n/a	task-alignvideo/ses-02_run-03_order-01_content-unefille.mp4
143.815	n/a	rating_disgusted	n/a	task-alignvideo/ses-02_run-03_order-01_content-unefille.mp4
148.833	n/a	rating_warm	n/a	task-alignvideo/ses-02_run-03_order-01_content-unefille.mp4
153.868	n/a	rating_engaged	n/a	task-alignvideo/ses-02_run-03_order-01_content-unefille.mp4
154.402	179.353	video	n/a	task-alignvideo/ses-02_run-03_order-02_content-captureflag.mp4
338.304	n/a	rating_relevance	n/a	task-alignvideo/ses-02_run-03_order-02_content-captureflag.mp4
343.339	n/a	rating_happy	n/a	task-alignvideo/ses-02_run-03_order-02_content-captureflag.mp4
348.358	n/a	rating_sad	n/a	task-alignvideo/ses-02_run-03_order-02_content-captureflag.mp4
353.393	n/a	rating_afraid	n/a	task-alignvideo/ses-02_run-03_order-02_content-captureflag.mp4
358.411	n/a	rating_disgusted	n/a	task-alignvideo/ses-02_run-03_order-02_content-captureflag.mp4
363.43	n/a	rating_warm	n/a	task-alignvideo/ses-02_run-03_order-02_content-captureflag.mp4
368.465	n/a	rating_engaged	n/a	task-alignvideo/ses-02_run-03_order-02_content-captureflag.mp4
368.997	26.875	video	n/a	task-alignvideo/ses-02_run-03_order-03_content-tornado.mp4
400.41	n/a	rating_relevance	n/a	task-alignvideo/ses-02_run-03_order-03_content-tornado.mp4
405.446	n/a	rating_happy	n/a	task-alignvideo/ses-02_run-03_order-03_content-tornado.mp4
410.481	n/a	rating_sad	n/a	task-alignvideo/ses-02_run-03_order-03_content-tornado.mp4
415.516	n/a	rating_afraid	n/a	task-alignvideo/ses-02_run-03_order-03_content-tornado.mp4
420.535	n/a	rating_disgusted	n/a	task-alignvideo/ses-02_run-03_order-03_content-tornado.mp4
425.57	n/a	rating_warm	n/a	task-alignvideo/ses-02_run-03_order-03_content-tornado.mp4
430.605	n/a	rating_engaged	n/a	task-alignvideo/ses-02_run-03_order-03_content-tornado.mp4
431.136	62.852	video	n/a	task-alignvideo/ses-02_run-03_order-04_content-war.mp4
498.53	n/a	rating_relevance	n/a	task-alignvideo/ses-02_run-03_order-04_content-war.mp4
503.565	n/a	rating_happy	n/a	task-alignvideo/ses-02_run-03_order-04_content-war.mp4
508.584	n/a	rating_sad	n/a	task-alignvideo/ses-02_run-03_order-04_content-war.mp4
513.619	n/a	rating_afraid	n/a	task-alignvideo/ses-02_run-03_order-04_content-war.mp4
518.654	n/a	rating_disgusted	n/a	task-alignvideo/ses-02_run-03_order-04_content-war.mp4
523.673	n/a	rating_warm	n/a	task-alignvideo/ses-02_run-03_order-04_content-war.mp4
528.692	n/a	rating_engaged	n/a	task-alignvideo/ses-02_run-03_order-04_content-war.mp4
