onset	duration	run_type	trial_type	trial_index	cue	stimulusintensity	rating_value	rating_glmslabel	rating_value_fillna	rating_glmslabel_fillna	rating_mouseonset	rating_mousedur	stim_file_TODO	pain_onset_ttl1	pain_onset_ttl2	pain_onset_ttl3	pain_onset_ttl4	pain_stimulus_delivery_success	cognitive_correct_response	cognitive_participant_response	cognitive_response_accuracy
4.79	1.0	pain	cue	1	high_cue	n/a	n/a	n/a	n/a	n/a	n/a	n/a	task-social/cue/runtype-pain/sch/h054.png	n/a	n/a	n/a	n/a	n/a	n/a	n/a	n/a
7.21	2.13	pain	expectrating	1	high_cue	n/a	82.96	Very Strong	82.96	Very Strong	0.47	1.67	task-social/cue/runtype-pain/sch/h054.png	n/a	n/a	n/a	n/a	n/a	n/a	n/a	n/a
15.88	11.909999999999998	pain	stimulus	1	high_cue	low_stim	n/a	n/a	n/a	n/a	n/a	n/a	n/a	15.88	19.38	24.38	27.78	success	n/a	n/a	n/a
27.2	2.37	pain	outcomerating	1	high_cue	low_stim	68.41	Very Strong	68.41	Very Strong	0.47	1.67	task-social/outcomerating/task-pain_scale.png	n/a	n/a	n/a	n/a	success	n/a	n/a	n/a
33.1	1.0	pain	cue	2	low_cue	n/a	n/a	n/a	n/a	n/a	n/a	n/a	task-social/cue/runtype-pain/scl/l028.png	n/a	n/a	n/a	n/a	n/a	n/a	n/a	n/a
34.9	2.44	pain	expectrating	2	low_cue	n/a	87.9	Very Strong	87.9	Very Strong	0.45	1.99	task-social/cue/runtype-pain/scl/l028.png	n/a	n/a	n/a	n/a	n/a	n/a	n/a	n/a
44.24	11.899999999999999	pain	stimulus	2	low_cue	low_stim	n/a	n/a	n/a	n/a	n/a	n/a	n/a	44.24	47.74	52.74	56.14	success	n/a	n/a	n/a
56.09	3.15	pain	outcomerating	2	low_cue	low_stim	62.71	Strong	62.71	Strong	0.45	1.99	task-social/outcomerating/task-pain_scale.png	n/a	n/a	n/a	n/a	success	n/a	n/a	n/a
61.09	1.0	pain	cue	3	low_cue	n/a	n/a	n/a	n/a	n/a	n/a	n/a	task-social/cue/runtype-pain/scl/l002.png	n/a	n/a	n/a	n/a	n/a	n/a	n/a	n/a
63.2	2.42	pain	expectrating	3	low_cue	n/a	54.46	Strong	54.46	Strong	0.75	1.67	task-social/cue/runtype-pain/scl/l002.png	n/a	n/a	n/a	n/a	n/a	n/a	n/a	n/a
69.85	12.36	pain	stimulus	3	low_cue	med_stim	n/a	n/a	n/a	n/a	n/a	n/a	n/a	69.85	73.61	78.61	82.22	success	n/a	n/a	n/a
81.4	3.9	pain	outcomerating	3	low_cue	med_stim	57.35	Strong	57.35	Strong	0.75	1.67	task-social/outcomerating/task-pain_scale.png	n/a	n/a	n/a	n/a	success	n/a	n/a	n/a
86.49	1.0	pain	cue	4	low_cue	n/a	n/a	n/a	n/a	n/a	n/a	n/a	task-social/cue/runtype-pain/scl/l042.png	n/a	n/a	n/a	n/a	n/a	n/a	n/a	n/a
89.61	3.69	pain	expectrating	4	low_cue	n/a	56.76	Strong	56.76	Strong	0.83	2.85	task-social/cue/runtype-pain/scl/l042.png	n/a	n/a	n/a	n/a	n/a	n/a	n/a	n/a
98.83	12.829999999999998	pain	stimulus	4	low_cue	high_stim	n/a	n/a	n/a	n/a	n/a	n/a	n/a	98.83	102.84	107.84	111.65	success	n/a	n/a	n/a
110.1	3.7	pain	outcomerating	4	low_cue	high_stim	82.82	Very Strong	82.82	Very Strong	0.83	2.85	task-social/outcomerating/task-pain_scale.png	n/a	n/a	n/a	n/a	success	n/a	n/a	n/a
114.8	1.0	pain	cue	5	high_cue	n/a	n/a	n/a	n/a	n/a	n/a	n/a	task-social/cue/runtype-pain/sch/h024.png	n/a	n/a	n/a	n/a	n/a	n/a	n/a	n/a
117.2	2.64	pain	expectrating	5	high_cue	n/a	98.1	Strongest sensation of any kind	98.1	Strongest sensation of any kind	0.48	2.16	task-social/cue/runtype-pain/sch/h024.png	n/a	n/a	n/a	n/a	n/a	n/a	n/a	n/a
122.68	12.359999999999985	pain	stimulus	5	high_cue	med_stim	n/a	n/a	n/a	n/a	n/a	n/a	n/a	122.68	126.44	131.44	135.05	success	n/a	n/a	n/a
133.91	2.07	pain	outcomerating	5	high_cue	med_stim	96.24	Very Strong	96.24	Very Strong	0.48	2.16	task-social/outcomerating/task-pain_scale.png	n/a	n/a	n/a	n/a	success	n/a	n/a	n/a
138.49	1.0	pain	cue	6	high_cue	n/a	n/a	n/a	n/a	n/a	n/a	n/a	task-social/cue/runtype-pain/sch/h050.png	n/a	n/a	n/a	n/a	n/a	n/a	n/a	n/a
140.59	3.28	pain	expectrating	6	high_cue	n/a	75.96	Very Strong	75.96	Very Strong	0.47	2.82	task-social/cue/runtype-pain/sch/h050.png	n/a	n/a	n/a	n/a	n/a	n/a	n/a	n/a
145.93	12.819999999999993	pain	stimulus	6	high_cue	high_stim	n/a	n/a	n/a	n/a	n/a	n/a	n/a	145.93	149.94	154.94	158.75	success	n/a	n/a	n/a
157.6	2.62	pain	outcomerating	6	high_cue	high_stim	97.15	Very Strong	97.15	Very Strong	0.47	2.82	task-social/outcomerating/task-pain_scale.png	n/a	n/a	n/a	n/a	success	n/a	n/a	n/a
163.5	0.98	pain	cue	7	high_cue	n/a	n/a	n/a	n/a	n/a	n/a	n/a	task-social/cue/runtype-pain/sch/h025.png	n/a	n/a	n/a	n/a	n/a	n/a	n/a	n/a
165.6	2.66	pain	expectrating	7	high_cue	n/a	81.25	Very Strong	81.25	Very Strong	0.65	2.01	task-social/cue/runtype-pain/sch/h025.png	n/a	n/a	n/a	n/a	n/a	n/a	n/a	n/a
176.42	11.910000000000025	pain	stimulus	7	high_cue	low_stim	n/a	n/a	n/a	n/a	n/a	n/a	n/a	176.42	179.92	184.92	188.32	success	n/a	n/a	n/a
197.6	3.08	pain	outcomerating	7	high_cue	low_stim	62.3	Strong	62.3	Strong	0.65	2.01	task-social/outcomerating/task-pain_scale.png	n/a	n/a	n/a	n/a	success	n/a	n/a	n/a
209.39	1.0	pain	cue	8	high_cue	n/a	n/a	n/a	n/a	n/a	n/a	n/a	task-social/cue/runtype-pain/sch/h023.png	n/a	n/a	n/a	n/a	n/a	n/a	n/a	n/a
211.51	2.12	pain	expectrating	8	high_cue	n/a	80.76	Very Strong	80.76	Very Strong	0.45	1.67	task-social/cue/runtype-pain/sch/h023.png	n/a	n/a	n/a	n/a	n/a	n/a	n/a	n/a
216.45	12.820000000000022	pain	stimulus	8	high_cue	high_stim	n/a	n/a	n/a	n/a	n/a	n/a	n/a	216.45	220.46	225.46	229.27	success	n/a	n/a	n/a
229.7	3.17	pain	outcomerating	8	high_cue	high_stim	99.27	Strongest sensation of any kind	99.27	Strongest sensation of any kind	0.45	1.67	task-social/outcomerating/task-pain_scale.png	n/a	n/a	n/a	n/a	success	n/a	n/a	n/a
234.6	1.0	pain	cue	9	low_cue	n/a	n/a	n/a	n/a	n/a	n/a	n/a	task-social/cue/runtype-pain/scl/l014.png	n/a	n/a	n/a	n/a	n/a	n/a	n/a	n/a
237.7	1.73	pain	expectrating	9	low_cue	n/a	75.51	Very Strong	75.51	Very Strong	0.43	1.3	task-social/cue/runtype-pain/scl/l014.png	n/a	n/a	n/a	n/a	n/a	n/a	n/a	n/a
250.53	11.900000000000006	pain	stimulus	9	low_cue	low_stim	n/a	n/a	n/a	n/a	n/a	n/a	n/a	250.53	254.03	259.03	262.43	success	n/a	n/a	n/a
265.09	2.47	pain	outcomerating	9	low_cue	low_stim	62.09	Strong	62.09	Strong	0.43	1.3	task-social/outcomerating/task-pain_scale.png	n/a	n/a	n/a	n/a	success	n/a	n/a	n/a
271.0	1.0	pain	cue	10	low_cue	n/a	n/a	n/a	n/a	n/a	n/a	n/a	task-social/cue/runtype-pain/scl/l018.png	n/a	n/a	n/a	n/a	n/a	n/a	n/a	n/a
274.1	2.67	pain	expectrating	10	low_cue	n/a	64.16	Very Strong	64.16	Very Strong	1.22	1.45	task-social/cue/runtype-pain/scl/l018.png	n/a	n/a	n/a	n/a	n/a	n/a	n/a	n/a
283.43	12.370000000000005	pain	stimulus	10	low_cue	med_stim	n/a	n/a	n/a	n/a	n/a	n/a	n/a	283.43	287.19	292.19	295.8	success	n/a	n/a	n/a
296.59	3.36	pain	outcomerating	10	low_cue	med_stim	68.8	Very Strong	68.8	Very Strong	1.22	1.45	task-social/outcomerating/task-pain_scale.png	n/a	n/a	n/a	n/a	success	n/a	n/a	n/a
317.6	1.0	pain	cue	11	low_cue	n/a	n/a	n/a	n/a	n/a	n/a	n/a	task-social/cue/runtype-pain/scl/l001.png	n/a	n/a	n/a	n/a	n/a	n/a	n/a	n/a
320.0	2.93	pain	expectrating	11	low_cue	n/a	58.6	Strong	58.6	Strong	0.52	2.42	task-social/cue/runtype-pain/scl/l001.png	n/a	n/a	n/a	n/a	n/a	n/a	n/a	n/a
325.46	12.819999999999993	pain	stimulus	11	low_cue	high_stim	n/a	n/a	n/a	n/a	n/a	n/a	n/a	325.46	329.47	334.47	338.28	success	n/a	n/a	n/a
337.09	3.53	pain	outcomerating	11	low_cue	high_stim	89.77	Very Strong	89.77	Very Strong	0.52	2.42	task-social/outcomerating/task-pain_scale.png	n/a	n/a	n/a	n/a	success	n/a	n/a	n/a
358.1	1.0	pain	cue	12	high_cue	n/a	n/a	n/a	n/a	n/a	n/a	n/a	task-social/cue/runtype-pain/sch/h010.png	n/a	n/a	n/a	n/a	n/a	n/a	n/a	n/a
361.2	2.75	pain	expectrating	12	high_cue	n/a	93.92	Very Strong	93.92	Very Strong	0.73	2.02	task-social/cue/runtype-pain/sch/h010.png	n/a	n/a	n/a	n/a	n/a	n/a	n/a	n/a
375.51	12.370000000000005	pain	stimulus	12	high_cue	med_stim	n/a	n/a	n/a	n/a	n/a	n/a	n/a	375.51	379.27	384.27	387.88	success	n/a	n/a	n/a
394.1	2.92	pain	outcomerating	12	high_cue	med_stim	80.61	Very Strong	80.61	Very Strong	0.73	2.02	task-social/outcomerating/task-pain_scale.png	n/a	n/a	n/a	n/a	success	n/a	n/a	n/a
