onset	duration	subtask_type	question	event_type	participant_response	normative_response	response_accuracy	stim_file	trial_index
0.069	2.051	tomspunt	reaching?	block_question_presentation	n/a	n/a	n/a	n/a	0
0.069	0.3	tomspunt	reaching?	block_question_presentation	n/a	n/a	n/a	n/a	1
0.069	0.3	tomspunt	reaching?	block_question_presentation	n/a	n/a	n/a	n/a	2
0.069	0.3	tomspunt	reaching?	block_question_presentation	n/a	n/a	n/a	n/a	3
0.069	0.3	tomspunt	reaching?	block_question_presentation	n/a	n/a	n/a	n/a	4
0.069	0.3	tomspunt	reaching?	block_question_presentation	n/a	n/a	n/a	n/a	5
0.069	0.3	tomspunt	reaching?	block_question_presentation	n/a	n/a	n/a	n/a	6
0.069	0.3	tomspunt	reaching?	block_question_presentation	n/a	n/a	n/a	n/a	7
5.029	1.103	tomspunt	reaching?	how_hand	yes	yes	correct	task-tomspunt/H_007.jpg	0
6.447	0.752	tomspunt	reaching?	how_hand	no	no	correct	task-tomspunt/H_532.jpg	1
7.514	0.721	tomspunt	reaching?	how_hand	yes	yes	correct	task-tomspunt/H_474.jpg	2
8.547	0.988	tomspunt	reaching?	how_hand	no	no	correct	task-tomspunt/H_438.jpg	3
9.848	0.84	tomspunt	reaching?	how_hand	yes	yes	correct	task-tomspunt/H_364.jpg	4
10.998	0.686	tomspunt	reaching?	how_hand	yes	yes	correct	task-tomspunt/H_006.jpg	5
11.999	0.553	tomspunt	reaching?	how_hand	yes	yes	correct	task-tomspunt/H_003.jpg	6
12.866	1.052	tomspunt	reaching?	how_hand	no	no	correct	task-tomspunt/H_132.jpg	7
17.542	2.101	tomspunt	healthy?	block_question_presentation	n/a	n/a	n/a	n/a	8
17.542	0.3	tomspunt	healthy?	block_question_presentation	n/a	n/a	n/a	n/a	9
17.542	0.3	tomspunt	healthy?	block_question_presentation	n/a	n/a	n/a	n/a	10
17.542	0.3	tomspunt	healthy?	block_question_presentation	n/a	n/a	n/a	n/a	11
17.542	0.3	tomspunt	healthy?	block_question_presentation	n/a	n/a	n/a	n/a	12
17.542	0.3	tomspunt	healthy?	block_question_presentation	n/a	n/a	n/a	n/a	13
17.542	0.3	tomspunt	healthy?	block_question_presentation	n/a	n/a	n/a	n/a	14
17.542	0.3	tomspunt	healthy?	block_question_presentation	n/a	n/a	n/a	n/a	15
22.553	0.868	tomspunt	healthy?	why_hand	yes	yes	correct	task-tomspunt/H_627.jpg	8
23.736	0.752	tomspunt	healthy?	why_hand	yes	yes	correct	task-tomspunt/H_438.jpg	9
24.803	0.918	tomspunt	healthy?	why_hand	yes	yes	correct	task-tomspunt/H_364.jpg	10
26.037	0.668	tomspunt	healthy?	why_hand	no	no	correct	task-tomspunt/H_130.jpg	11
27.021	0.947	tomspunt	healthy?	why_hand	yes	yes	correct	task-tomspunt/H_362.jpg	12
28.271	0.981	tomspunt	healthy?	why_hand	no	no	correct	task-tomspunt/H_007.jpg	13
29.555	0.68	tomspunt	healthy?	why_hand	yes	yes	correct	task-tomspunt/H_167.jpg	14
30.539	0.752	tomspunt	healthy?	why_hand	no	no	correct	task-tomspunt/H_019.jpg	15
36.649	2.101	tomspunt	admiring?	block_question_presentation	n/a	n/a	n/a	n/a	16
36.649	0.3	tomspunt	admiring?	block_question_presentation	n/a	n/a	n/a	n/a	17
36.649	0.3	tomspunt	admiring?	block_question_presentation	n/a	n/a	n/a	n/a	18
36.649	0.3	tomspunt	admiring?	block_question_presentation	n/a	n/a	n/a	n/a	19
36.649	0.3	tomspunt	admiring?	block_question_presentation	n/a	n/a	n/a	n/a	20
36.649	0.3	tomspunt	admiring?	block_question_presentation	n/a	n/a	n/a	n/a	21
36.649	0.3	tomspunt	admiring?	block_question_presentation	n/a	n/a	n/a	n/a	22
36.649	0.3	tomspunt	admiring?	block_question_presentation	n/a	n/a	n/a	n/a	23
41.66	0.792	tomspunt	admiring?	why_face	yes	yes	correct	task-tomspunt/F_779.jpg	16
42.76	1.419	tomspunt	admiring?	why_face	yes	yes	correct	task-tomspunt/F_593.jpg	17
44.494	1.041	tomspunt	admiring?	why_face	no	no	correct	task-tomspunt/F_110.jpg	18
45.845	0.691	tomspunt	admiring?	why_face	yes	yes	correct	task-tomspunt/F_590.jpg	19
46.845	0.873	tomspunt	admiring?	why_face	no	no	correct	task-tomspunt/F_692.jpg	20
48.029	0.59	tomspunt	admiring?	why_face	yes	yes	correct	task-tomspunt/F_759.jpg	21
48.929	0.639	tomspunt	admiring?	why_face	yes	yes	correct	task-tomspunt/F_648.jpg	22
49.879	0.656	tomspunt	admiring?	why_face	no	no	correct	task-tomspunt/F_129.jpg	23
55.623	2.084	tomspunt	smiling?	block_question_presentation	n/a	n/a	n/a	n/a	24
55.623	0.3	tomspunt	smiling?	block_question_presentation	n/a	n/a	n/a	n/a	25
55.623	0.3	tomspunt	smiling?	block_question_presentation	n/a	n/a	n/a	n/a	26
55.623	0.3	tomspunt	smiling?	block_question_presentation	n/a	n/a	n/a	n/a	27
55.623	0.3	tomspunt	smiling?	block_question_presentation	n/a	n/a	n/a	n/a	28
55.623	0.3	tomspunt	smiling?	block_question_presentation	n/a	n/a	n/a	n/a	29
55.623	0.3	tomspunt	smiling?	block_question_presentation	n/a	n/a	n/a	n/a	30
55.623	0.3	tomspunt	smiling?	block_question_presentation	n/a	n/a	n/a	n/a	31
60.617	0.651	tomspunt	smiling?	how_face	yes	yes	correct	task-tomspunt/F_139.jpg	24
61.584	0.585	tomspunt	smiling?	how_face	no	no	correct	task-tomspunt/F_712.jpg	25
62.484	0.602	tomspunt	smiling?	how_face	yes	yes	correct	task-tomspunt/F_695.jpg	26
63.401	0.585	tomspunt	smiling?	how_face	no	no	correct	task-tomspunt/F_758.jpg	27
64.302	0.518	tomspunt	smiling?	how_face	yes	yes	correct	task-tomspunt/F_083.jpg	28
65.135	0.552	tomspunt	smiling?	how_face	yes	yes	correct	task-tomspunt/F_759.jpg	29
66.002	0.535	tomspunt	smiling?	how_face	no	no	correct	task-tomspunt/F_412.jpg	30
66.852	0.666	tomspunt	smiling?	how_face	yes	yes	correct	task-tomspunt/F_593.jpg	31
73.146	2.101	tomspunt	lifting?	block_question_presentation	n/a	n/a	n/a	n/a	32
73.146	0.3	tomspunt	lifting?	block_question_presentation	n/a	n/a	n/a	n/a	33
73.146	0.3	tomspunt	lifting?	block_question_presentation	n/a	n/a	n/a	n/a	34
73.146	0.3	tomspunt	lifting?	block_question_presentation	n/a	n/a	n/a	n/a	35
73.146	0.3	tomspunt	lifting?	block_question_presentation	n/a	n/a	n/a	n/a	36
73.146	0.3	tomspunt	lifting?	block_question_presentation	n/a	n/a	n/a	n/a	37
73.146	0.3	tomspunt	lifting?	block_question_presentation	n/a	n/a	n/a	n/a	38
73.146	0.3	tomspunt	lifting?	block_question_presentation	n/a	n/a	n/a	n/a	39
78.157	1.219	tomspunt	lifting?	how_hand	yes	yes	correct	task-tomspunt/H_136.jpg	32
79.691	1.018	tomspunt	lifting?	how_hand	no	no	correct	task-tomspunt/H_038.jpg	33
81.024	1.044	tomspunt	lifting?	how_hand	yes	yes	correct	task-tomspunt/H_189.jpg	34
82.375	0.827	tomspunt	lifting?	how_hand	no	no	correct	task-tomspunt/H_077.jpg	35
83.509	0.651	tomspunt	lifting?	how_hand	yes	yes	correct	task-tomspunt/H_443.jpg	36
84.476	0.743	tomspunt	lifting?	how_hand	no	no	correct	task-tomspunt/H_012.jpg	37
85.526	0.509	tomspunt	lifting?	how_hand	yes	yes	correct	task-tomspunt/H_362.jpg	38
86.343	0.759	tomspunt	lifting?	how_hand	yes	yes	correct	task-tomspunt/H_170.jpg	39
95.621	2.101	tomspunt	helping?	block_question_presentation	n/a	n/a	n/a	n/a	40
95.621	0.3	tomspunt	helping?	block_question_presentation	n/a	n/a	n/a	n/a	41
95.621	0.3	tomspunt	helping?	block_question_presentation	n/a	n/a	n/a	n/a	42
95.621	0.3	tomspunt	helping?	block_question_presentation	n/a	n/a	n/a	n/a	43
95.621	0.3	tomspunt	helping?	block_question_presentation	n/a	n/a	n/a	n/a	44
95.621	0.3	tomspunt	helping?	block_question_presentation	n/a	n/a	n/a	n/a	45
95.621	0.3	tomspunt	helping?	block_question_presentation	n/a	n/a	n/a	n/a	46
95.621	0.3	tomspunt	helping?	block_question_presentation	n/a	n/a	n/a	n/a	47
100.632	0.92	tomspunt	helping?	why_hand	yes	yes	correct	task-tomspunt/H_077.jpg	40
101.866	0.736	tomspunt	helping?	why_hand	yes	yes	correct	task-tomspunt/H_349.jpg	41
102.916	0.802	tomspunt	helping?	why_hand	yes	yes	correct	task-tomspunt/H_474.jpg	42
104.033	0.935	tomspunt	helping?	why_hand	no	yes	incorrect	task-tomspunt/H_024.jpg	43
105.283	0.785	tomspunt	helping?	why_hand	no	no	correct	task-tomspunt/H_012.jpg	44
106.384	0.835	tomspunt	helping?	why_hand	no	no	correct	task-tomspunt/H_159.jpg	45
107.518	0.735	tomspunt	helping?	why_hand	yes	yes	correct	task-tomspunt/H_111.jpg	46
108.568	0.852	tomspunt	helping?	why_hand	no	no	correct	task-tomspunt/H_091.jpg	47
113.494	2.101	tomspunt	proud?	block_question_presentation	n/a	n/a	n/a	n/a	48
113.494	0.3	tomspunt	proud?	block_question_presentation	n/a	n/a	n/a	n/a	49
113.494	0.3	tomspunt	proud?	block_question_presentation	n/a	n/a	n/a	n/a	50
113.494	0.3	tomspunt	proud?	block_question_presentation	n/a	n/a	n/a	n/a	51
113.494	0.3	tomspunt	proud?	block_question_presentation	n/a	n/a	n/a	n/a	52
113.494	0.3	tomspunt	proud?	block_question_presentation	n/a	n/a	n/a	n/a	53
113.494	0.3	tomspunt	proud?	block_question_presentation	n/a	n/a	n/a	n/a	54
113.494	0.3	tomspunt	proud?	block_question_presentation	n/a	n/a	n/a	n/a	55
118.505	n/a	tomspunt	proud?	why_face	n/a	yes	incorrect	task-tomspunt/F_598.jpg	48
120.556	0.819	tomspunt	proud?	why_face	no	no	correct	task-tomspunt/F_760.jpg	49
121.69	0.835	tomspunt	proud?	why_face	yes	yes	correct	task-tomspunt/F_582.jpg	50
122.84	0.879	tomspunt	proud?	why_face	no	no	correct	task-tomspunt/F_412.jpg	51
124.024	1.76	tomspunt	proud?	why_face	no	yes	incorrect	task-tomspunt/F_083.jpg	52
126.058	1.252	tomspunt	proud?	why_face	no	no	correct	task-tomspunt/F_776.jpg	53
127.625	0.827	tomspunt	proud?	why_face	yes	yes	correct	task-tomspunt/F_618.jpg	54
128.759	0.919	tomspunt	proud?	why_face	yes	yes	correct	task-tomspunt/F_695.jpg	55
131.034	2.101	tomspunt	looking to side?	block_question_presentation	n/a	n/a	n/a	n/a	56
131.034	0.3	tomspunt	looking to side?	block_question_presentation	n/a	n/a	n/a	n/a	57
131.034	0.3	tomspunt	looking to side?	block_question_presentation	n/a	n/a	n/a	n/a	58
131.034	0.3	tomspunt	looking to side?	block_question_presentation	n/a	n/a	n/a	n/a	59
131.034	0.3	tomspunt	looking to side?	block_question_presentation	n/a	n/a	n/a	n/a	60
131.034	0.3	tomspunt	looking to side?	block_question_presentation	n/a	n/a	n/a	n/a	61
131.034	0.3	tomspunt	looking to side?	block_question_presentation	n/a	n/a	n/a	n/a	62
131.034	0.3	tomspunt	looking to side?	block_question_presentation	n/a	n/a	n/a	n/a	63
136.045	1.24	tomspunt	looking to side?	how_face	yes	yes	correct	task-tomspunt/F_590.jpg	56
137.596	0.702	tomspunt	looking to side?	how_face	yes	yes	correct	task-tomspunt/F_433.jpg	57
138.613	0.623	tomspunt	looking to side?	how_face	yes	yes	correct	task-tomspunt/F_716.jpg	58
139.546	0.768	tomspunt	looking to side?	how_face	no	no	correct	task-tomspunt/F_779.jpg	59
140.63	1.338	tomspunt	looking to side?	how_face	yes	yes	correct	task-tomspunt/F_760.jpg	60
142.281	0.754	tomspunt	looking to side?	how_face	no	no	correct	task-tomspunt/F_111.jpg	61
143.348	1.724	tomspunt	looking to side?	how_face	no	yes	incorrect	task-tomspunt/F_110.jpg	62
145.382	0.937	tomspunt	looking to side?	how_face	no	no	correct	task-tomspunt/F_798.jpg	63
150.141	2.101	tomspunt	argument?	block_question_presentation	n/a	n/a	n/a	n/a	64
150.141	0.3	tomspunt	argument?	block_question_presentation	n/a	n/a	n/a	n/a	65
150.141	0.3	tomspunt	argument?	block_question_presentation	n/a	n/a	n/a	n/a	66
150.141	0.3	tomspunt	argument?	block_question_presentation	n/a	n/a	n/a	n/a	67
150.141	0.3	tomspunt	argument?	block_question_presentation	n/a	n/a	n/a	n/a	68
150.141	0.3	tomspunt	argument?	block_question_presentation	n/a	n/a	n/a	n/a	69
150.141	0.3	tomspunt	argument?	block_question_presentation	n/a	n/a	n/a	n/a	70
150.141	0.3	tomspunt	argument?	block_question_presentation	n/a	n/a	n/a	n/a	71
155.152	1.001	tomspunt	argument?	why_face	yes	yes	correct	task-tomspunt/F_716.jpg	64
156.469	0.618	tomspunt	argument?	why_face	no	no	correct	task-tomspunt/F_139.jpg	65
157.403	0.685	tomspunt	argument?	why_face	yes	yes	correct	task-tomspunt/F_712.jpg	66
158.403	0.669	tomspunt	argument?	why_face	no	no	correct	task-tomspunt/F_433.jpg	67
159.387	0.735	tomspunt	argument?	why_face	yes	yes	correct	task-tomspunt/F_403.jpg	68
160.437	0.685	tomspunt	argument?	why_face	no	no	correct	task-tomspunt/F_844.jpg	69
161.438	0.647	tomspunt	argument?	why_face	yes	yes	correct	task-tomspunt/F_743.jpg	70
162.388	0.652	tomspunt	argument?	why_face	yes	yes	correct	task-tomspunt/F_758.jpg	71
167.981	2.101	tomspunt	open mouth?	block_question_presentation	n/a	n/a	n/a	n/a	72
167.981	0.3	tomspunt	open mouth?	block_question_presentation	n/a	n/a	n/a	n/a	73
167.981	0.3	tomspunt	open mouth?	block_question_presentation	n/a	n/a	n/a	n/a	74
167.981	0.3	tomspunt	open mouth?	block_question_presentation	n/a	n/a	n/a	n/a	75
167.981	0.3	tomspunt	open mouth?	block_question_presentation	n/a	n/a	n/a	n/a	76
167.981	0.3	tomspunt	open mouth?	block_question_presentation	n/a	n/a	n/a	n/a	77
167.981	0.3	tomspunt	open mouth?	block_question_presentation	n/a	n/a	n/a	n/a	78
167.981	0.3	tomspunt	open mouth?	block_question_presentation	n/a	n/a	n/a	n/a	79
172.992	0.61	tomspunt	open mouth?	how_face	yes	yes	correct	task-tomspunt/F_844.jpg	72
173.909	0.469	tomspunt	open mouth?	how_face	yes	yes	correct	task-tomspunt/F_776.jpg	73
174.693	0.535	tomspunt	open mouth?	how_face	no	no	correct	task-tomspunt/F_544.jpg	74
175.543	0.443	tomspunt	open mouth?	how_face	yes	yes	correct	task-tomspunt/F_692.jpg	75
176.293	0.492	tomspunt	open mouth?	how_face	no	no	correct	task-tomspunt/F_584.jpg	76
177.094	0.469	tomspunt	open mouth?	how_face	yes	yes	correct	task-tomspunt/F_403.jpg	77
177.877	0.491	tomspunt	open mouth?	how_face	yes	yes	correct	task-tomspunt/F_086.jpg	78
178.678	0.535	tomspunt	open mouth?	how_face	no	no	correct	task-tomspunt/F_648.jpg	79
185.871	2.101	tomspunt	pressing button?	block_question_presentation	n/a	n/a	n/a	n/a	80
185.871	0.3	tomspunt	pressing button?	block_question_presentation	n/a	n/a	n/a	n/a	81
185.871	0.3	tomspunt	pressing button?	block_question_presentation	n/a	n/a	n/a	n/a	82
185.871	0.3	tomspunt	pressing button?	block_question_presentation	n/a	n/a	n/a	n/a	83
185.871	0.3	tomspunt	pressing button?	block_question_presentation	n/a	n/a	n/a	n/a	84
185.871	0.3	tomspunt	pressing button?	block_question_presentation	n/a	n/a	n/a	n/a	85
185.871	0.3	tomspunt	pressing button?	block_question_presentation	n/a	n/a	n/a	n/a	86
185.871	0.3	tomspunt	pressing button?	block_question_presentation	n/a	n/a	n/a	n/a	87
190.882	0.686	tomspunt	pressing button?	how_hand	yes	yes	correct	task-tomspunt/H_019.jpg	80
191.882	1.336	tomspunt	pressing button?	how_hand	no	no	correct	task-tomspunt/H_024.jpg	81
193.533	0.685	tomspunt	pressing button?	how_hand	no	no	correct	task-tomspunt/H_130.jpg	82
194.533	0.552	tomspunt	pressing button?	how_hand	yes	yes	correct	task-tomspunt/H_502.jpg	83
195.4	0.685	tomspunt	pressing button?	how_hand	no	no	correct	task-tomspunt/H_261.jpg	84
196.401	0.551	tomspunt	pressing button?	how_hand	yes	yes	correct	task-tomspunt/H_332.jpg	85
197.268	0.651	tomspunt	pressing button?	how_hand	yes	yes	correct	task-tomspunt/H_126.jpg	86
198.218	0.802	tomspunt	pressing button?	how_hand	yes	yes	correct	task-tomspunt/H_483.jpg	87
203.661	2.101	tomspunt	competing?	block_question_presentation	n/a	n/a	n/a	n/a	88
203.661	0.3	tomspunt	competing?	block_question_presentation	n/a	n/a	n/a	n/a	89
203.661	0.3	tomspunt	competing?	block_question_presentation	n/a	n/a	n/a	n/a	90
203.661	0.3	tomspunt	competing?	block_question_presentation	n/a	n/a	n/a	n/a	91
203.661	0.3	tomspunt	competing?	block_question_presentation	n/a	n/a	n/a	n/a	92
203.661	0.3	tomspunt	competing?	block_question_presentation	n/a	n/a	n/a	n/a	93
203.661	0.3	tomspunt	competing?	block_question_presentation	n/a	n/a	n/a	n/a	94
203.661	0.3	tomspunt	competing?	block_question_presentation	n/a	n/a	n/a	n/a	95
208.672	0.763	tomspunt	competing?	why_hand	yes	yes	correct	task-tomspunt/H_261.jpg	88
209.739	0.613	tomspunt	competing?	why_hand	no	no	correct	task-tomspunt/H_483.jpg	89
210.656	0.546	tomspunt	competing?	why_hand	yes	yes	correct	task-tomspunt/H_132.jpg	90
211.506	0.679	tomspunt	competing?	why_hand	no	no	correct	task-tomspunt/H_126.jpg	91
212.49	0.745	tomspunt	competing?	why_hand	yes	yes	correct	task-tomspunt/H_136.jpg	92
213.541	1.228	tomspunt	competing?	why_hand	no	no	correct	task-tomspunt/H_502.jpg	93
215.074	0.611	tomspunt	competing?	why_hand	yes	yes	correct	task-tomspunt/H_003.jpg	94
215.991	0.544	tomspunt	competing?	why_hand	yes	yes	correct	task-tomspunt/H_170.jpg	95
221.735	2.101	tomspunt	self-doubt?	block_question_presentation	n/a	n/a	n/a	n/a	96
221.735	0.3	tomspunt	self-doubt?	block_question_presentation	n/a	n/a	n/a	n/a	97
221.735	0.3	tomspunt	self-doubt?	block_question_presentation	n/a	n/a	n/a	n/a	98
221.735	0.3	tomspunt	self-doubt?	block_question_presentation	n/a	n/a	n/a	n/a	99
221.735	0.3	tomspunt	self-doubt?	block_question_presentation	n/a	n/a	n/a	n/a	100
221.735	0.3	tomspunt	self-doubt?	block_question_presentation	n/a	n/a	n/a	n/a	101
221.735	0.3	tomspunt	self-doubt?	block_question_presentation	n/a	n/a	n/a	n/a	102
221.735	0.3	tomspunt	self-doubt?	block_question_presentation	n/a	n/a	n/a	n/a	103
226.745	0.94	tomspunt	self-doubt?	why_face	yes	yes	correct	task-tomspunt/F_544.jpg	96
227.996	0.585	tomspunt	self-doubt?	why_face	no	no	correct	task-tomspunt/F_086.jpg	97
228.896	0.572	tomspunt	self-doubt?	why_face	yes	yes	correct	task-tomspunt/F_798.jpg	98
229.78	0.556	tomspunt	self-doubt?	why_face	yes	yes	correct	task-tomspunt/F_111.jpg	99
230.647	0.568	tomspunt	self-doubt?	why_face	no	no	correct	task-tomspunt/F_774.jpg	100
231.531	1.055	tomspunt	self-doubt?	why_face	yes	yes	correct	task-tomspunt/F_754.jpg	101
232.898	0.921	tomspunt	self-doubt?	why_face	no	no	correct	task-tomspunt/F_128.jpg	102
234.132	n/a	tomspunt	self-doubt?	why_face	n/a	yes	incorrect	task-tomspunt/F_584.jpg	103
240.792	2.084	tomspunt	looking at camera?	block_question_presentation	n/a	n/a	n/a	n/a	104
240.792	0.3	tomspunt	looking at camera?	block_question_presentation	n/a	n/a	n/a	n/a	105
240.792	0.3	tomspunt	looking at camera?	block_question_presentation	n/a	n/a	n/a	n/a	106
240.792	0.3	tomspunt	looking at camera?	block_question_presentation	n/a	n/a	n/a	n/a	107
240.792	0.3	tomspunt	looking at camera?	block_question_presentation	n/a	n/a	n/a	n/a	108
240.792	0.3	tomspunt	looking at camera?	block_question_presentation	n/a	n/a	n/a	n/a	109
240.792	0.3	tomspunt	looking at camera?	block_question_presentation	n/a	n/a	n/a	n/a	110
240.792	0.3	tomspunt	looking at camera?	block_question_presentation	n/a	n/a	n/a	n/a	111
245.786	0.752	tomspunt	looking at camera?	how_face	yes	yes	correct	task-tomspunt/F_128.jpg	104
246.853	0.618	tomspunt	looking at camera?	how_face	yes	yes	correct	task-tomspunt/F_618.jpg	105
247.787	0.535	tomspunt	looking at camera?	how_face	yes	yes	correct	task-tomspunt/F_598.jpg	106
248.637	0.518	tomspunt	looking at camera?	how_face	no	no	correct	task-tomspunt/F_743.jpg	107
249.471	0.501	tomspunt	looking at camera?	how_face	yes	yes	correct	task-tomspunt/F_774.jpg	108
250.288	0.852	tomspunt	looking at camera?	how_face	no	no	correct	task-tomspunt/F_582.jpg	109
251.455	0.669	tomspunt	looking at camera?	how_face	no	no	correct	task-tomspunt/F_754.jpg	110
252.438	0.768	tomspunt	looking at camera?	how_face	yes	yes	correct	task-tomspunt/F_129.jpg	111
259.565	2.101	tomspunt	both hands?	block_question_presentation	n/a	n/a	n/a	n/a	112
259.565	0.3	tomspunt	both hands?	block_question_presentation	n/a	n/a	n/a	n/a	113
259.565	0.3	tomspunt	both hands?	block_question_presentation	n/a	n/a	n/a	n/a	114
259.565	0.3	tomspunt	both hands?	block_question_presentation	n/a	n/a	n/a	n/a	115
259.565	0.3	tomspunt	both hands?	block_question_presentation	n/a	n/a	n/a	n/a	116
259.565	0.3	tomspunt	both hands?	block_question_presentation	n/a	n/a	n/a	n/a	117
259.565	0.3	tomspunt	both hands?	block_question_presentation	n/a	n/a	n/a	n/a	118
259.565	0.3	tomspunt	both hands?	block_question_presentation	n/a	n/a	n/a	n/a	119
264.576	1.059	tomspunt	both hands?	how_hand	yes	yes	correct	task-tomspunt/H_167.jpg	112
265.943	0.651	tomspunt	both hands?	how_hand	no	no	correct	task-tomspunt/H_091.jpg	113
266.91	0.942	tomspunt	both hands?	how_hand	no	no	correct	task-tomspunt/H_627.jpg	114
268.161	0.551	tomspunt	both hands?	how_hand	yes	yes	correct	task-tomspunt/H_027.jpg	115
269.028	0.541	tomspunt	both hands?	how_hand	yes	yes	correct	task-tomspunt/H_111.jpg	116
269.878	0.657	tomspunt	both hands?	how_hand	no	no	correct	task-tomspunt/H_159.jpg	117
270.845	1.273	tomspunt	both hands?	how_hand	yes	yes	correct	task-tomspunt/H_581.jpg	118
272.429	0.502	tomspunt	both hands?	how_hand	yes	yes	correct	task-tomspunt/H_349.jpg	119
278.356	2.101	tomspunt	self-protection?	block_question_presentation	n/a	n/a	n/a	n/a	120
278.356	0.3	tomspunt	self-protection?	block_question_presentation	n/a	n/a	n/a	n/a	121
278.356	0.3	tomspunt	self-protection?	block_question_presentation	n/a	n/a	n/a	n/a	122
278.356	0.3	tomspunt	self-protection?	block_question_presentation	n/a	n/a	n/a	n/a	123
278.356	0.3	tomspunt	self-protection?	block_question_presentation	n/a	n/a	n/a	n/a	124
278.356	0.3	tomspunt	self-protection?	block_question_presentation	n/a	n/a	n/a	n/a	125
278.356	0.3	tomspunt	self-protection?	block_question_presentation	n/a	n/a	n/a	n/a	126
278.356	0.3	tomspunt	self-protection?	block_question_presentation	n/a	n/a	n/a	n/a	127
283.367	1.418	tomspunt	self-protection?	why_hand	no	yes	incorrect	task-tomspunt/H_443.jpg	120
285.101	1.585	tomspunt	self-protection?	why_hand	no	no	correct	task-tomspunt/H_006.jpg	121
286.985	1.585	tomspunt	self-protection?	why_hand	yes	yes	correct	task-tomspunt/H_581.jpg	122
288.885	0.751	tomspunt	self-protection?	why_hand	no	no	correct	task-tomspunt/H_532.jpg	123
289.952	0.833	tomspunt	self-protection?	why_hand	yes	yes	correct	task-tomspunt/H_027.jpg	124
291.086	1.201	tomspunt	self-protection?	why_hand	no	yes	incorrect	task-tomspunt/H_038.jpg	125
292.603	0.969	tomspunt	self-protection?	why_hand	no	no	correct	task-tomspunt/H_332.jpg	126
293.887	0.801	tomspunt	self-protection?	why_hand	yes	yes	correct	task-tomspunt/H_189.jpg	127
299.847	2.101	tomspunt	smiling?	block_question_presentation	n/a	n/a	n/a	n/a	128
299.847	0.3	tomspunt	smiling?	block_question_presentation	n/a	n/a	n/a	n/a	129
299.847	0.3	tomspunt	smiling?	block_question_presentation	n/a	n/a	n/a	n/a	130
299.847	0.3	tomspunt	smiling?	block_question_presentation	n/a	n/a	n/a	n/a	131
299.847	0.3	tomspunt	smiling?	block_question_presentation	n/a	n/a	n/a	n/a	132
299.847	0.3	tomspunt	smiling?	block_question_presentation	n/a	n/a	n/a	n/a	133
299.847	0.3	tomspunt	smiling?	block_question_presentation	n/a	n/a	n/a	n/a	134
299.847	0.3	tomspunt	smiling?	block_question_presentation	n/a	n/a	n/a	n/a	135
304.858	0.668	tomspunt	smiling?	how_face	yes	yes	correct	task-tomspunt/F_759.jpg	128
305.842	0.577	tomspunt	smiling?	how_face	no	no	correct	task-tomspunt/F_412.jpg	129
306.725	0.51	tomspunt	smiling?	how_face	yes	yes	correct	task-tomspunt/F_593.jpg	130
307.542	0.66	tomspunt	smiling?	how_face	no	no	correct	task-tomspunt/F_712.jpg	131
308.509	0.735	tomspunt	smiling?	how_face	yes	yes	correct	task-tomspunt/F_695.jpg	132
309.56	0.576	tomspunt	smiling?	how_face	yes	yes	correct	task-tomspunt/F_139.jpg	133
310.443	0.642	tomspunt	smiling?	how_face	yes	yes	correct	task-tomspunt/F_083.jpg	134
311.394	0.608	tomspunt	smiling?	how_face	no	no	correct	task-tomspunt/F_758.jpg	135
317.637	2.101	tomspunt	admiring?	block_question_presentation	n/a	n/a	n/a	n/a	136
317.637	0.3	tomspunt	admiring?	block_question_presentation	n/a	n/a	n/a	n/a	137
317.637	0.3	tomspunt	admiring?	block_question_presentation	n/a	n/a	n/a	n/a	138
317.637	0.3	tomspunt	admiring?	block_question_presentation	n/a	n/a	n/a	n/a	139
317.637	0.3	tomspunt	admiring?	block_question_presentation	n/a	n/a	n/a	n/a	140
317.637	0.3	tomspunt	admiring?	block_question_presentation	n/a	n/a	n/a	n/a	141
317.637	0.3	tomspunt	admiring?	block_question_presentation	n/a	n/a	n/a	n/a	142
317.637	0.3	tomspunt	admiring?	block_question_presentation	n/a	n/a	n/a	n/a	143
322.648	1.054	tomspunt	admiring?	why_face	yes	yes	correct	task-tomspunt/F_593.jpg	136
324.015	1.287	tomspunt	admiring?	why_face	no	no	correct	task-tomspunt/F_129.jpg	137
325.616	0.687	tomspunt	admiring?	why_face	yes	yes	correct	task-tomspunt/F_759.jpg	138
326.616	0.703	tomspunt	admiring?	why_face	no	no	correct	task-tomspunt/F_692.jpg	139
327.633	0.486	tomspunt	admiring?	why_face	yes	yes	correct	task-tomspunt/F_779.jpg	140
328.433	0.585	tomspunt	admiring?	why_face	yes	yes	correct	task-tomspunt/F_590.jpg	141
329.334	0.469	tomspunt	admiring?	why_face	yes	yes	correct	task-tomspunt/F_648.jpg	142
330.117	0.669	tomspunt	admiring?	why_face	no	no	correct	task-tomspunt/F_110.jpg	143
335.527	2.101	tomspunt	competing?	block_question_presentation	n/a	n/a	n/a	n/a	144
335.527	0.3	tomspunt	competing?	block_question_presentation	n/a	n/a	n/a	n/a	145
335.527	0.3	tomspunt	competing?	block_question_presentation	n/a	n/a	n/a	n/a	146
335.527	0.3	tomspunt	competing?	block_question_presentation	n/a	n/a	n/a	n/a	147
335.527	0.3	tomspunt	competing?	block_question_presentation	n/a	n/a	n/a	n/a	148
335.527	0.3	tomspunt	competing?	block_question_presentation	n/a	n/a	n/a	n/a	149
335.527	0.3	tomspunt	competing?	block_question_presentation	n/a	n/a	n/a	n/a	150
335.527	0.3	tomspunt	competing?	block_question_presentation	n/a	n/a	n/a	n/a	151
340.538	0.414	tomspunt	competing?	why_hand	yes	yes	correct	task-tomspunt/H_261.jpg	144
341.255	0.452	tomspunt	competing?	why_hand	yes	yes	correct	task-tomspunt/H_170.jpg	145
342.022	0.551	tomspunt	competing?	why_hand	no	no	correct	task-tomspunt/H_483.jpg	146
342.889	0.451	tomspunt	competing?	why_hand	yes	yes	correct	task-tomspunt/H_132.jpg	147
343.656	0.635	tomspunt	competing?	why_hand	yes	yes	correct	task-tomspunt/H_136.jpg	148
344.606	0.563	tomspunt	competing?	why_hand	yes	yes	correct	task-tomspunt/H_003.jpg	149
345.473	0.535	tomspunt	competing?	why_hand	no	no	correct	task-tomspunt/H_126.jpg	150
346.323	0.645	tomspunt	competing?	why_hand	no	no	correct	task-tomspunt/H_502.jpg	151
357.002	2.101	tomspunt	reaching?	block_question_presentation	n/a	n/a	n/a	n/a	152
357.002	0.3	tomspunt	reaching?	block_question_presentation	n/a	n/a	n/a	n/a	153
357.002	0.3	tomspunt	reaching?	block_question_presentation	n/a	n/a	n/a	n/a	154
357.002	0.3	tomspunt	reaching?	block_question_presentation	n/a	n/a	n/a	n/a	155
357.002	0.3	tomspunt	reaching?	block_question_presentation	n/a	n/a	n/a	n/a	156
357.002	0.3	tomspunt	reaching?	block_question_presentation	n/a	n/a	n/a	n/a	157
357.002	0.3	tomspunt	reaching?	block_question_presentation	n/a	n/a	n/a	n/a	158
357.002	0.3	tomspunt	reaching?	block_question_presentation	n/a	n/a	n/a	n/a	159
362.013	0.723	tomspunt	reaching?	how_hand	yes	yes	correct	task-tomspunt/H_003.jpg	152
363.046	0.606	tomspunt	reaching?	how_hand	yes	yes	correct	task-tomspunt/H_364.jpg	153
363.963	0.555	tomspunt	reaching?	how_hand	no	no	correct	task-tomspunt/H_532.jpg	154
364.83	0.671	tomspunt	reaching?	how_hand	yes	yes	correct	task-tomspunt/H_006.jpg	155
365.814	0.738	tomspunt	reaching?	how_hand	no	no	correct	task-tomspunt/H_438.jpg	156
366.864	0.638	tomspunt	reaching?	how_hand	yes	yes	correct	task-tomspunt/H_007.jpg	157
367.815	0.852	tomspunt	reaching?	how_hand	yes	yes	correct	task-tomspunt/H_474.jpg	158
368.982	0.587	tomspunt	reaching?	how_hand	yes	no	incorrect	task-tomspunt/H_132.jpg	159
374.842	2.101	tomspunt	open mouth?	block_question_presentation	n/a	n/a	n/a	n/a	160
374.842	0.3	tomspunt	open mouth?	block_question_presentation	n/a	n/a	n/a	n/a	161
374.842	0.3	tomspunt	open mouth?	block_question_presentation	n/a	n/a	n/a	n/a	162
374.842	0.3	tomspunt	open mouth?	block_question_presentation	n/a	n/a	n/a	n/a	163
374.842	0.3	tomspunt	open mouth?	block_question_presentation	n/a	n/a	n/a	n/a	164
374.842	0.3	tomspunt	open mouth?	block_question_presentation	n/a	n/a	n/a	n/a	165
374.842	0.3	tomspunt	open mouth?	block_question_presentation	n/a	n/a	n/a	n/a	166
374.842	0.3	tomspunt	open mouth?	block_question_presentation	n/a	n/a	n/a	n/a	167
379.853	0.485	tomspunt	open mouth?	how_face	yes	yes	correct	task-tomspunt/F_403.jpg	160
380.653	0.468	tomspunt	open mouth?	how_face	no	no	correct	task-tomspunt/F_648.jpg	161
381.436	0.449	tomspunt	open mouth?	how_face	yes	yes	correct	task-tomspunt/F_776.jpg	162
382.187	0.568	tomspunt	open mouth?	how_face	no	no	correct	task-tomspunt/F_584.jpg	163
383.07	0.402	tomspunt	open mouth?	how_face	yes	yes	correct	task-tomspunt/F_844.jpg	164
383.787	0.448	tomspunt	open mouth?	how_face	yes	yes	correct	task-tomspunt/F_692.jpg	165
384.538	0.435	tomspunt	open mouth?	how_face	yes	yes	correct	task-tomspunt/F_086.jpg	166
385.288	0.568	tomspunt	open mouth?	how_face	no	no	correct	task-tomspunt/F_544.jpg	167
393.515	2.101	tomspunt	argument?	block_question_presentation	n/a	n/a	n/a	n/a	168
393.515	0.3	tomspunt	argument?	block_question_presentation	n/a	n/a	n/a	n/a	169
393.515	0.3	tomspunt	argument?	block_question_presentation	n/a	n/a	n/a	n/a	170
393.515	0.3	tomspunt	argument?	block_question_presentation	n/a	n/a	n/a	n/a	171
393.515	0.3	tomspunt	argument?	block_question_presentation	n/a	n/a	n/a	n/a	172
393.515	0.3	tomspunt	argument?	block_question_presentation	n/a	n/a	n/a	n/a	173
393.515	0.3	tomspunt	argument?	block_question_presentation	n/a	n/a	n/a	n/a	174
393.515	0.3	tomspunt	argument?	block_question_presentation	n/a	n/a	n/a	n/a	175
398.526	0.676	tomspunt	argument?	why_face	yes	yes	correct	task-tomspunt/F_403.jpg	168
399.51	0.451	tomspunt	argument?	why_face	no	no	correct	task-tomspunt/F_844.jpg	169
400.277	0.535	tomspunt	argument?	why_face	yes	yes	correct	task-tomspunt/F_712.jpg	170
401.127	0.568	tomspunt	argument?	why_face	yes	yes	correct	task-tomspunt/F_758.jpg	171
402.011	0.525	tomspunt	argument?	why_face	no	no	correct	task-tomspunt/F_433.jpg	172
402.844	0.624	tomspunt	argument?	why_face	yes	yes	correct	task-tomspunt/F_716.jpg	173
403.778	0.658	tomspunt	argument?	why_face	no	no	correct	task-tomspunt/F_139.jpg	174
404.745	0.557	tomspunt	argument?	why_face	yes	yes	correct	task-tomspunt/F_743.jpg	175
411.739	2.101	tomspunt	helping?	block_question_presentation	n/a	n/a	n/a	n/a	176
411.739	0.3	tomspunt	helping?	block_question_presentation	n/a	n/a	n/a	n/a	177
411.739	0.3	tomspunt	helping?	block_question_presentation	n/a	n/a	n/a	n/a	178
411.739	0.3	tomspunt	helping?	block_question_presentation	n/a	n/a	n/a	n/a	179
411.739	0.3	tomspunt	helping?	block_question_presentation	n/a	n/a	n/a	n/a	180
411.739	0.3	tomspunt	helping?	block_question_presentation	n/a	n/a	n/a	n/a	181
411.739	0.3	tomspunt	helping?	block_question_presentation	n/a	n/a	n/a	n/a	182
411.739	0.3	tomspunt	helping?	block_question_presentation	n/a	n/a	n/a	n/a	183
416.75	0.769	tomspunt	helping?	why_hand	no	yes	incorrect	task-tomspunt/H_024.jpg	176
417.833	0.552	tomspunt	helping?	why_hand	yes	yes	correct	task-tomspunt/H_349.jpg	177
418.7	0.702	tomspunt	helping?	why_hand	yes	yes	correct	task-tomspunt/H_077.jpg	178
419.717	0.735	tomspunt	helping?	why_hand	yes	yes	correct	task-tomspunt/H_474.jpg	179
420.768	0.702	tomspunt	helping?	why_hand	no	no	correct	task-tomspunt/H_091.jpg	180
421.785	0.768	tomspunt	helping?	why_hand	no	no	correct	task-tomspunt/H_159.jpg	181
422.869	0.551	tomspunt	helping?	why_hand	yes	yes	correct	task-tomspunt/H_111.jpg	182
423.736	0.652	tomspunt	helping?	why_hand	no	no	correct	task-tomspunt/H_012.jpg	183
429.812	2.101	tomspunt	both hands?	block_question_presentation	n/a	n/a	n/a	n/a	184
429.812	0.3	tomspunt	both hands?	block_question_presentation	n/a	n/a	n/a	n/a	185
429.812	0.3	tomspunt	both hands?	block_question_presentation	n/a	n/a	n/a	n/a	186
429.812	0.3	tomspunt	both hands?	block_question_presentation	n/a	n/a	n/a	n/a	187
429.812	0.3	tomspunt	both hands?	block_question_presentation	n/a	n/a	n/a	n/a	188
429.812	0.3	tomspunt	both hands?	block_question_presentation	n/a	n/a	n/a	n/a	189
429.812	0.3	tomspunt	both hands?	block_question_presentation	n/a	n/a	n/a	n/a	190
429.812	0.3	tomspunt	both hands?	block_question_presentation	n/a	n/a	n/a	n/a	191
434.823	0.829	tomspunt	both hands?	how_hand	yes	yes	correct	task-tomspunt/H_111.jpg	184
435.957	0.552	tomspunt	both hands?	how_hand	yes	yes	correct	task-tomspunt/H_027.jpg	185
436.824	0.568	tomspunt	both hands?	how_hand	no	no	correct	task-tomspunt/H_091.jpg	186
437.707	0.761	tomspunt	both hands?	how_hand	yes	yes	correct	task-tomspunt/H_167.jpg	187
438.775	0.669	tomspunt	both hands?	how_hand	yes	yes	correct	task-tomspunt/H_581.jpg	188
439.758	0.727	tomspunt	both hands?	how_hand	no	no	correct	task-tomspunt/H_159.jpg	189
440.792	0.81	tomspunt	both hands?	how_hand	yes	yes	correct	task-tomspunt/H_349.jpg	190
441.909	0.718	tomspunt	both hands?	how_hand	no	no	correct	task-tomspunt/H_627.jpg	191
447.319	2.101	tomspunt	healthy?	block_question_presentation	n/a	n/a	n/a	n/a	192
447.319	0.3	tomspunt	healthy?	block_question_presentation	n/a	n/a	n/a	n/a	193
447.319	0.3	tomspunt	healthy?	block_question_presentation	n/a	n/a	n/a	n/a	194
447.319	0.3	tomspunt	healthy?	block_question_presentation	n/a	n/a	n/a	n/a	195
447.319	0.3	tomspunt	healthy?	block_question_presentation	n/a	n/a	n/a	n/a	196
447.319	0.3	tomspunt	healthy?	block_question_presentation	n/a	n/a	n/a	n/a	197
447.319	0.3	tomspunt	healthy?	block_question_presentation	n/a	n/a	n/a	n/a	198
447.319	0.3	tomspunt	healthy?	block_question_presentation	n/a	n/a	n/a	n/a	199
452.33	0.689	tomspunt	healthy?	why_hand	yes	yes	correct	task-tomspunt/H_438.jpg	192
453.33	0.772	tomspunt	healthy?	why_hand	yes	yes	correct	task-tomspunt/H_364.jpg	193
454.414	0.455	tomspunt	healthy?	why_hand	yes	yes	correct	task-tomspunt/H_362.jpg	194
455.181	0.488	tomspunt	healthy?	why_hand	no	no	correct	task-tomspunt/H_019.jpg	195
455.981	0.485	tomspunt	healthy?	why_hand	yes	yes	correct	task-tomspunt/H_167.jpg	196
456.781	0.471	tomspunt	healthy?	why_hand	no	no	correct	task-tomspunt/H_007.jpg	197
457.565	0.553	tomspunt	healthy?	why_hand	yes	yes	correct	task-tomspunt/H_627.jpg	198
458.432	0.604	tomspunt	healthy?	why_hand	no	no	correct	task-tomspunt/H_130.jpg	199
466.376	2.101	tomspunt	pressing button?	block_question_presentation	n/a	n/a	n/a	n/a	200
466.376	0.3	tomspunt	pressing button?	block_question_presentation	n/a	n/a	n/a	n/a	201
466.376	0.3	tomspunt	pressing button?	block_question_presentation	n/a	n/a	n/a	n/a	202
466.376	0.3	tomspunt	pressing button?	block_question_presentation	n/a	n/a	n/a	n/a	203
466.376	0.3	tomspunt	pressing button?	block_question_presentation	n/a	n/a	n/a	n/a	204
466.376	0.3	tomspunt	pressing button?	block_question_presentation	n/a	n/a	n/a	n/a	205
466.376	0.3	tomspunt	pressing button?	block_question_presentation	n/a	n/a	n/a	n/a	206
466.376	0.3	tomspunt	pressing button?	block_question_presentation	n/a	n/a	n/a	n/a	207
471.387	1.219	tomspunt	pressing button?	how_hand	yes	yes	correct	task-tomspunt/H_126.jpg	200
472.921	0.515	tomspunt	pressing button?	how_hand	no	no	correct	task-tomspunt/H_130.jpg	201
473.738	0.535	tomspunt	pressing button?	how_hand	yes	yes	correct	task-tomspunt/H_483.jpg	202
474.588	0.515	tomspunt	pressing button?	how_hand	no	no	correct	task-tomspunt/H_024.jpg	203
475.405	0.468	tomspunt	pressing button?	how_hand	yes	yes	correct	task-tomspunt/H_332.jpg	204
476.188	0.418	tomspunt	pressing button?	how_hand	yes	yes	correct	task-tomspunt/H_019.jpg	205
476.922	0.485	tomspunt	pressing button?	how_hand	no	no	correct	task-tomspunt/H_261.jpg	206
477.722	0.518	tomspunt	pressing button?	how_hand	yes	yes	correct	task-tomspunt/H_502.jpg	207
483.916	2.101	tomspunt	looking at camera?	block_question_presentation	n/a	n/a	n/a	n/a	208
483.916	0.3	tomspunt	looking at camera?	block_question_presentation	n/a	n/a	n/a	n/a	209
483.916	0.3	tomspunt	looking at camera?	block_question_presentation	n/a	n/a	n/a	n/a	210
483.916	0.3	tomspunt	looking at camera?	block_question_presentation	n/a	n/a	n/a	n/a	211
483.916	0.3	tomspunt	looking at camera?	block_question_presentation	n/a	n/a	n/a	n/a	212
483.916	0.3	tomspunt	looking at camera?	block_question_presentation	n/a	n/a	n/a	n/a	213
483.916	0.3	tomspunt	looking at camera?	block_question_presentation	n/a	n/a	n/a	n/a	214
483.916	0.3	tomspunt	looking at camera?	block_question_presentation	n/a	n/a	n/a	n/a	215
488.927	0.643	tomspunt	looking at camera?	how_face	yes	yes	correct	task-tomspunt/F_618.jpg	208
489.877	0.502	tomspunt	looking at camera?	how_face	no	no	correct	task-tomspunt/F_754.jpg	209
490.694	0.575	tomspunt	looking at camera?	how_face	yes	yes	correct	task-tomspunt/F_129.jpg	210
491.578	0.468	tomspunt	looking at camera?	how_face	yes	yes	correct	task-tomspunt/F_598.jpg	211
492.361	0.474	tomspunt	looking at camera?	how_face	yes	yes	correct	task-tomspunt/F_128.jpg	212
493.145	1.324	tomspunt	looking at camera?	how_face	no	no	correct	task-tomspunt/F_582.jpg	213
494.779	0.54	tomspunt	looking at camera?	how_face	yes	yes	correct	task-tomspunt/F_774.jpg	214
495.629	0.735	tomspunt	looking at camera?	how_face	no	no	correct	task-tomspunt/F_743.jpg	215
502.873	2.101	tomspunt	self-doubt?	block_question_presentation	n/a	n/a	n/a	n/a	216
502.873	0.3	tomspunt	self-doubt?	block_question_presentation	n/a	n/a	n/a	n/a	217
502.873	0.3	tomspunt	self-doubt?	block_question_presentation	n/a	n/a	n/a	n/a	218
502.873	0.3	tomspunt	self-doubt?	block_question_presentation	n/a	n/a	n/a	n/a	219
502.873	0.3	tomspunt	self-doubt?	block_question_presentation	n/a	n/a	n/a	n/a	220
502.873	0.3	tomspunt	self-doubt?	block_question_presentation	n/a	n/a	n/a	n/a	221
502.873	0.3	tomspunt	self-doubt?	block_question_presentation	n/a	n/a	n/a	n/a	222
502.873	0.3	tomspunt	self-doubt?	block_question_presentation	n/a	n/a	n/a	n/a	223
507.884	0.618	tomspunt	self-doubt?	why_face	yes	yes	correct	task-tomspunt/F_798.jpg	216
508.817	0.568	tomspunt	self-doubt?	why_face	no	no	correct	task-tomspunt/F_086.jpg	217
509.701	0.518	tomspunt	self-doubt?	why_face	yes	yes	correct	task-tomspunt/F_544.jpg	218
510.535	0.518	tomspunt	self-doubt?	why_face	yes	yes	correct	task-tomspunt/F_754.jpg	219
511.368	1.052	tomspunt	self-doubt?	why_face	yes	yes	correct	task-tomspunt/F_111.jpg	220
512.735	0.651	tomspunt	self-doubt?	why_face	yes	yes	correct	task-tomspunt/F_584.jpg	221
513.702	0.652	tomspunt	self-doubt?	why_face	no	no	correct	task-tomspunt/F_128.jpg	222
514.669	0.768	tomspunt	self-doubt?	why_face	no	no	correct	task-tomspunt/F_774.jpg	223
520.396	2.101	tomspunt	self-protection?	block_question_presentation	n/a	n/a	n/a	n/a	224
520.396	0.3	tomspunt	self-protection?	block_question_presentation	n/a	n/a	n/a	n/a	225
520.396	0.3	tomspunt	self-protection?	block_question_presentation	n/a	n/a	n/a	n/a	226
520.396	0.3	tomspunt	self-protection?	block_question_presentation	n/a	n/a	n/a	n/a	227
520.396	0.3	tomspunt	self-protection?	block_question_presentation	n/a	n/a	n/a	n/a	228
520.396	0.3	tomspunt	self-protection?	block_question_presentation	n/a	n/a	n/a	n/a	229
520.396	0.3	tomspunt	self-protection?	block_question_presentation	n/a	n/a	n/a	n/a	230
520.396	0.3	tomspunt	self-protection?	block_question_presentation	n/a	n/a	n/a	n/a	231
525.407	0.785	tomspunt	self-protection?	why_hand	yes	yes	correct	task-tomspunt/H_581.jpg	224
526.507	0.661	tomspunt	self-protection?	why_hand	no	yes	incorrect	task-tomspunt/H_443.jpg	225
527.474	0.668	tomspunt	self-protection?	why_hand	no	no	correct	task-tomspunt/H_332.jpg	226
528.458	0.728	tomspunt	self-protection?	why_hand	yes	yes	correct	task-tomspunt/H_027.jpg	227
529.492	0.535	tomspunt	self-protection?	why_hand	no	no	correct	task-tomspunt/H_532.jpg	228
530.342	0.402	tomspunt	self-protection?	why_hand	yes	yes	correct	task-tomspunt/H_189.jpg	229
531.059	0.576	tomspunt	self-protection?	why_hand	no	no	correct	task-tomspunt/H_006.jpg	230
531.943	0.643	tomspunt	self-protection?	why_hand	no	yes	incorrect	task-tomspunt/H_038.jpg	231
538.619	2.084	tomspunt	lifting?	block_question_presentation	n/a	n/a	n/a	n/a	232
538.619	0.3	tomspunt	lifting?	block_question_presentation	n/a	n/a	n/a	n/a	233
538.619	0.3	tomspunt	lifting?	block_question_presentation	n/a	n/a	n/a	n/a	234
538.619	0.3	tomspunt	lifting?	block_question_presentation	n/a	n/a	n/a	n/a	235
538.619	0.3	tomspunt	lifting?	block_question_presentation	n/a	n/a	n/a	n/a	236
538.619	0.3	tomspunt	lifting?	block_question_presentation	n/a	n/a	n/a	n/a	237
538.619	0.3	tomspunt	lifting?	block_question_presentation	n/a	n/a	n/a	n/a	238
538.619	0.3	tomspunt	lifting?	block_question_presentation	n/a	n/a	n/a	n/a	239
543.614	0.755	tomspunt	lifting?	how_hand	yes	yes	correct	task-tomspunt/H_443.jpg	232
544.681	0.788	tomspunt	lifting?	how_hand	no	no	correct	task-tomspunt/H_038.jpg	233
545.781	0.671	tomspunt	lifting?	how_hand	yes	yes	correct	task-tomspunt/H_136.jpg	234
546.765	0.585	tomspunt	lifting?	how_hand	no	no	correct	task-tomspunt/H_012.jpg	235
547.665	0.571	tomspunt	lifting?	how_hand	yes	yes	correct	task-tomspunt/H_362.jpg	236
548.549	0.536	tomspunt	lifting?	how_hand	yes	yes	correct	task-tomspunt/H_189.jpg	237
549.399	1.237	tomspunt	lifting?	how_hand	yes	yes	correct	task-tomspunt/H_170.jpg	238
550.95	0.702	tomspunt	lifting?	how_hand	no	no	correct	task-tomspunt/H_077.jpg	239
556.493	2.101	tomspunt	looking to side?	block_question_presentation	n/a	n/a	n/a	n/a	240
556.493	0.3	tomspunt	looking to side?	block_question_presentation	n/a	n/a	n/a	n/a	241
556.493	0.3	tomspunt	looking to side?	block_question_presentation	n/a	n/a	n/a	n/a	242
556.493	0.3	tomspunt	looking to side?	block_question_presentation	n/a	n/a	n/a	n/a	243
556.493	0.3	tomspunt	looking to side?	block_question_presentation	n/a	n/a	n/a	n/a	244
556.493	0.3	tomspunt	looking to side?	block_question_presentation	n/a	n/a	n/a	n/a	245
556.493	0.3	tomspunt	looking to side?	block_question_presentation	n/a	n/a	n/a	n/a	246
556.493	0.3	tomspunt	looking to side?	block_question_presentation	n/a	n/a	n/a	n/a	247
561.504	0.818	tomspunt	looking to side?	how_face	yes	yes	correct	task-tomspunt/F_716.jpg	240
562.637	0.619	tomspunt	looking to side?	how_face	no	no	correct	task-tomspunt/F_798.jpg	241
563.571	0.601	tomspunt	looking to side?	how_face	yes	yes	correct	task-tomspunt/F_760.jpg	242
564.488	0.485	tomspunt	looking to side?	how_face	yes	yes	correct	task-tomspunt/F_110.jpg	243
565.288	0.702	tomspunt	looking to side?	how_face	no	no	correct	task-tomspunt/F_779.jpg	244
566.305	0.735	tomspunt	looking to side?	how_face	yes	yes	correct	task-tomspunt/F_590.jpg	245
567.356	0.596	tomspunt	looking to side?	how_face	no	no	correct	task-tomspunt/F_111.jpg	246
568.256	0.596	tomspunt	looking to side?	how_face	yes	yes	correct	task-tomspunt/F_433.jpg	247
578.968	2.101	tomspunt	proud?	block_question_presentation	n/a	n/a	n/a	n/a	248
578.968	0.3	tomspunt	proud?	block_question_presentation	n/a	n/a	n/a	n/a	249
578.968	0.3	tomspunt	proud?	block_question_presentation	n/a	n/a	n/a	n/a	250
578.968	0.3	tomspunt	proud?	block_question_presentation	n/a	n/a	n/a	n/a	251
578.968	0.3	tomspunt	proud?	block_question_presentation	n/a	n/a	n/a	n/a	252
578.968	0.3	tomspunt	proud?	block_question_presentation	n/a	n/a	n/a	n/a	253
578.968	0.3	tomspunt	proud?	block_question_presentation	n/a	n/a	n/a	n/a	254
578.968	0.3	tomspunt	proud?	block_question_presentation	n/a	n/a	n/a	n/a	255
583.979	0.902	tomspunt	proud?	why_face	yes	yes	correct	task-tomspunt/F_083.jpg	248
585.196	0.673	tomspunt	proud?	why_face	yes	yes	correct	task-tomspunt/F_582.jpg	249
586.179	0.539	tomspunt	proud?	why_face	yes	yes	correct	task-tomspunt/F_618.jpg	250
587.03	0.606	tomspunt	proud?	why_face	no	no	correct	task-tomspunt/F_776.jpg	251
587.947	0.805	tomspunt	proud?	why_face	yes	yes	correct	task-tomspunt/F_598.jpg	252
589.064	0.885	tomspunt	proud?	why_face	no	no	correct	task-tomspunt/F_760.jpg	253
590.264	0.771	tomspunt	proud?	why_face	no	no	correct	task-tomspunt/F_412.jpg	254
591.348	0.837	tomspunt	proud?	why_face	yes	yes	correct	task-tomspunt/F_695.jpg	255
