onset	duration	run_type	trial_type	trial_index	cue	stimulusintensity	rating_value	rating_glmslabel	rating_value_fillna	rating_glmslabel_fillna	rating_mouseonset	rating_mousedur	stim_file_TODO	pain_onset_ttl1	pain_onset_ttl2	pain_onset_ttl3	pain_onset_ttl4	pain_stimulus_delivery_success	cognitive_correct_response	cognitive_participant_response	cognitive_response_accuracy
4.08	0.99	cognitive	cue	1	high_cue	n/a	n/a	n/a	n/a	n/a	n/a	n/a	task-social/cue/runtype-cognitive/sch/h021.png	n/a	n/a	n/a	n/a	n/a	n/a	n/a	n/a
7.22	n/a	cognitive	expectrating	1	high_cue	n/a	n/a	n/a	n/a	n/a	n/a	n/a	task-social/cue/runtype-cognitive/sch/h021.png	n/a	n/a	n/a	n/a	n/a	n/a	n/a	n/a
14.5	5.0	cognitive	stimulus	1	high_cue	med_stim	n/a	n/a	n/a	n/a	n/a	n/a	task-social/stim/runtype-cognitive/12_100_R.jpg	n/a	n/a	n/a	n/a	n/a	diff	diff	True
23.69	2.09	cognitive	outcomerating	1	high_cue	med_stim	7.64	Weak	7.64	Weak	n/a	n/a	task-social/outcomerating/task-cognitive_scale.png	n/a	n/a	n/a	n/a	n/a	n/a	n/a	n/a
33.49	0.98	cognitive	cue	2	low_cue	n/a	n/a	n/a	n/a	n/a	n/a	n/a	task-social/cue/runtype-cognitive/scl/l041.png	n/a	n/a	n/a	n/a	n/a	n/a	n/a	n/a
36.59	1.3	cognitive	expectrating	2	low_cue	n/a	11.17	Moderate	11.17	Moderate	0.05	1.25	task-social/cue/runtype-cognitive/scl/l041.png	n/a	n/a	n/a	n/a	n/a	n/a	n/a	n/a
49.5	5.0	cognitive	stimulus	2	low_cue	low_stim	n/a	n/a	n/a	n/a	n/a	n/a	task-social/stim/runtype-cognitive/34_50_R.jpg	n/a	n/a	n/a	n/a	n/a	diff	diff	True
62.39	3.04	cognitive	outcomerating	2	low_cue	low_stim	13.2	Moderate	13.2	Moderate	0.05	1.25	task-social/outcomerating/task-cognitive_scale.png	n/a	n/a	n/a	n/a	n/a	n/a	n/a	n/a
71.59	0.99	cognitive	cue	3	high_cue	n/a	n/a	n/a	n/a	n/a	n/a	n/a	task-social/cue/runtype-cognitive/sch/h026.png	n/a	n/a	n/a	n/a	n/a	n/a	n/a	n/a
73.59	1.6	cognitive	expectrating	3	high_cue	n/a	69.39	Very Strong	69.39	Very Strong	0.05	1.55	task-social/cue/runtype-cognitive/sch/h026.png	n/a	n/a	n/a	n/a	n/a	n/a	n/a	n/a
86.5	5.0	cognitive	stimulus	3	high_cue	low_stim	n/a	n/a	n/a	n/a	n/a	n/a	task-social/stim/runtype-cognitive/12_50_R.jpg	n/a	n/a	n/a	n/a	n/a	diff	diff	True
97.08	n/a	cognitive	outcomerating	3	high_cue	low_stim	n/a	n/a	35.11	Strong	0.05	1.55	task-social/outcomerating/task-cognitive_scale.png	n/a	n/a	n/a	n/a	n/a	n/a	n/a	n/a
105.59	0.99	cognitive	cue	4	high_cue	n/a	n/a	n/a	n/a	n/a	n/a	n/a	task-social/cue/runtype-cognitive/sch/h053.png	n/a	n/a	n/a	n/a	n/a	n/a	n/a	n/a
108.69	2.01	cognitive	expectrating	4	high_cue	n/a	65.5	Very Strong	65.5	Very Strong	0.18	1.82	task-social/cue/runtype-cognitive/sch/h053.png	n/a	n/a	n/a	n/a	n/a	n/a	n/a	n/a
119.89	5.0	cognitive	stimulus	4	high_cue	high_stim	n/a	n/a	n/a	n/a	n/a	n/a	task-social/stim/runtype-cognitive/34_150.jpg	n/a	n/a	n/a	n/a	n/a	same	same	True
127.5	1.85	cognitive	outcomerating	4	high_cue	high_stim	10.86	Moderate	10.86	Moderate	0.18	1.82	task-social/outcomerating/task-cognitive_scale.png	n/a	n/a	n/a	n/a	n/a	n/a	n/a	n/a
132.78	1.0	cognitive	cue	5	high_cue	n/a	n/a	n/a	n/a	n/a	n/a	n/a	task-social/cue/runtype-cognitive/sch/h008.png	n/a	n/a	n/a	n/a	n/a	n/a	n/a	n/a
135.9	2.65	cognitive	expectrating	5	high_cue	n/a	60.97	Strong	60.97	Strong	0.37	2.29	task-social/cue/runtype-cognitive/sch/h008.png	n/a	n/a	n/a	n/a	n/a	n/a	n/a	n/a
143.18	5.0	cognitive	stimulus	5	high_cue	low_stim	n/a	n/a	n/a	n/a	n/a	n/a	task-social/stim/runtype-cognitive/43_50_R.jpg	n/a	n/a	n/a	n/a	n/a	diff	diff	True
152.39	n/a	cognitive	outcomerating	5	high_cue	low_stim	n/a	n/a	32.86	Strong	0.37	2.29	task-social/outcomerating/task-cognitive_scale.png	n/a	n/a	n/a	n/a	n/a	n/a	n/a	n/a
163.29	0.98	cognitive	cue	6	high_cue	n/a	n/a	n/a	n/a	n/a	n/a	n/a	task-social/cue/runtype-cognitive/sch/h024.png	n/a	n/a	n/a	n/a	n/a	n/a	n/a	n/a
165.29	2.35	cognitive	expectrating	6	high_cue	n/a	25.43	Moderate	25.43	Moderate	0.25	2.1	task-social/cue/runtype-cognitive/sch/h024.png	n/a	n/a	n/a	n/a	n/a	n/a	n/a	n/a
176.5	5.0	cognitive	stimulus	6	high_cue	med_stim	n/a	n/a	n/a	n/a	n/a	n/a	task-social/stim/runtype-cognitive/27_100.jpg	n/a	n/a	n/a	n/a	n/a	same	diff	False
184.5	2.37	cognitive	outcomerating	6	high_cue	med_stim	97.18	Very Strong	97.18	Very Strong	0.25	2.1	task-social/outcomerating/task-cognitive_scale.png	n/a	n/a	n/a	n/a	n/a	n/a	n/a	n/a
196.89	0.99	cognitive	cue	7	low_cue	n/a	n/a	n/a	n/a	n/a	n/a	n/a	task-social/cue/runtype-cognitive/scl/l021.png	n/a	n/a	n/a	n/a	n/a	n/a	n/a	n/a
199.29	1.42	cognitive	expectrating	7	low_cue	n/a	13.42	Moderate	13.42	Moderate	0.42	1.01	task-social/cue/runtype-cognitive/scl/l021.png	n/a	n/a	n/a	n/a	n/a	n/a	n/a	n/a
207.89	5.0	cognitive	stimulus	7	low_cue	high_stim	n/a	n/a	n/a	n/a	n/a	n/a	task-social/stim/runtype-cognitive/31_150_R.jpg	n/a	n/a	n/a	n/a	n/a	diff	diff	True
224.4	3.1	cognitive	outcomerating	7	low_cue	high_stim	36.18	Strong	36.18	Strong	0.42	1.01	task-social/outcomerating/task-cognitive_scale.png	n/a	n/a	n/a	n/a	n/a	n/a	n/a	n/a
231.38	0.99	cognitive	cue	8	low_cue	n/a	n/a	n/a	n/a	n/a	n/a	n/a	task-social/cue/runtype-cognitive/scl/l027.png	n/a	n/a	n/a	n/a	n/a	n/a	n/a	n/a
234.29	1.18	cognitive	expectrating	8	low_cue	n/a	0.69	No sensation	0.69	No sensation	0.08	1.09	task-social/cue/runtype-cognitive/scl/l027.png	n/a	n/a	n/a	n/a	n/a	n/a	n/a	n/a
242.89	5.0	cognitive	stimulus	8	low_cue	med_stim	n/a	n/a	n/a	n/a	n/a	n/a	task-social/stim/runtype-cognitive/29_100_R.jpg	n/a	n/a	n/a	n/a	n/a	diff	diff	True
256.99	3.14	cognitive	outcomerating	8	low_cue	med_stim	19.16	Moderate	19.16	Moderate	0.08	1.09	task-social/outcomerating/task-cognitive_scale.png	n/a	n/a	n/a	n/a	n/a	n/a	n/a	n/a
270.38	0.99	cognitive	cue	9	high_cue	n/a	n/a	n/a	n/a	n/a	n/a	n/a	task-social/cue/runtype-cognitive/sch/h031.png	n/a	n/a	n/a	n/a	n/a	n/a	n/a	n/a
272.2	1.25	cognitive	expectrating	9	high_cue	n/a	68.11	Very Strong	68.11	Very Strong	0.05	1.2	task-social/cue/runtype-cognitive/sch/h031.png	n/a	n/a	n/a	n/a	n/a	n/a	n/a	n/a
280.79	5.0	cognitive	stimulus	9	high_cue	high_stim	n/a	n/a	n/a	n/a	n/a	n/a	task-social/stim/runtype-cognitive/41_150_R.jpg	n/a	n/a	n/a	n/a	n/a	diff	diff	True
292.39	1.72	cognitive	outcomerating	9	high_cue	high_stim	5.8	Weak	5.8	Weak	0.05	1.2	task-social/outcomerating/task-cognitive_scale.png	n/a	n/a	n/a	n/a	n/a	n/a	n/a	n/a
297.69	0.98	cognitive	cue	10	low_cue	n/a	n/a	n/a	n/a	n/a	n/a	n/a	task-social/cue/runtype-cognitive/scl/l053.png	n/a	n/a	n/a	n/a	n/a	n/a	n/a	n/a
300.19	2.79	cognitive	expectrating	10	low_cue	n/a	10.85	Moderate	10.85	Moderate	0.53	2.25	task-social/cue/runtype-cognitive/scl/l053.png	n/a	n/a	n/a	n/a	n/a	n/a	n/a	n/a
308.3	5.0	cognitive	stimulus	10	low_cue	med_stim	n/a	n/a	n/a	n/a	n/a	n/a	task-social/stim/runtype-cognitive/8_100.jpg	n/a	n/a	n/a	n/a	n/a	same	same	True
318.0	1.63	cognitive	outcomerating	10	low_cue	med_stim	6.72	Weak	6.72	Weak	0.53	2.25	task-social/outcomerating/task-cognitive_scale.png	n/a	n/a	n/a	n/a	n/a	n/a	n/a	n/a
327.19	0.99	cognitive	cue	11	low_cue	n/a	n/a	n/a	n/a	n/a	n/a	n/a	task-social/cue/runtype-cognitive/scl/l003.png	n/a	n/a	n/a	n/a	n/a	n/a	n/a	n/a
329.09	1.91	cognitive	expectrating	11	low_cue	n/a	5.64	Weak	5.64	Weak	0.08	1.82	task-social/cue/runtype-cognitive/scl/l003.png	n/a	n/a	n/a	n/a	n/a	n/a	n/a	n/a
346.59	5.0	cognitive	stimulus	11	low_cue	low_stim	n/a	n/a	n/a	n/a	n/a	n/a	task-social/stim/runtype-cognitive/41_50.jpg	n/a	n/a	n/a	n/a	n/a	same	same	True
367.0	2.4	cognitive	outcomerating	11	low_cue	low_stim	10.99	Moderate	10.99	Moderate	0.08	1.82	task-social/outcomerating/task-cognitive_scale.png	n/a	n/a	n/a	n/a	n/a	n/a	n/a	n/a
372.59	0.99	cognitive	cue	12	low_cue	n/a	n/a	n/a	n/a	n/a	n/a	n/a	task-social/cue/runtype-cognitive/scl/l028.png	n/a	n/a	n/a	n/a	n/a	n/a	n/a	n/a
374.59	n/a	cognitive	expectrating	12	low_cue	n/a	n/a	n/a	22.44	Moderate	1.23	3.38	task-social/cue/runtype-cognitive/scl/l028.png	n/a	n/a	n/a	n/a	n/a	n/a	n/a	n/a
386.39	5.0	cognitive	stimulus	12	low_cue	high_stim	n/a	n/a	n/a	n/a	n/a	n/a	task-social/stim/runtype-cognitive/8_150.jpg	n/a	n/a	n/a	n/a	n/a	same	same	True
394.39	2.53	cognitive	outcomerating	12	low_cue	high_stim	0.93	No sensation	0.93	No sensation	1.23	3.38	task-social/outcomerating/task-cognitive_scale.png	n/a	n/a	n/a	n/a	n/a	n/a	n/a	n/a
