onset	duration	run_type	trial_type	trial_index	cue	stimulusintensity	rating_value	rating_glmslabel	rating_value_fillna	rating_glmslabel_fillna	rating_mouseonset	rating_mousedur	stim_file	pain_onset_ttl1	pain_onset_ttl2	pain_onset_ttl3	pain_onset_ttl4	pain_stimulus_delivery_success	cognitive_correct_response	cognitive_participant_response	cognitive_response_accuracy
13.39	0.99	vicarious	cue	1	low_cue	n/a	n/a	n/a	n/a	n/a	n/a	n/a	task-social/cue/runtype-vicarious/scl/l053.png	n/a	n/a	n/a	n/a	n/a	n/a	n/a	n/a
15.21	1.32	vicarious	expectrating	1	low_cue	n/a	8.07	Weak	8.07	Weak	0.05	1.27	task-social/cue/runtype-vicarious/scl/l053.png	n/a	n/a	n/a	n/a	n/a	n/a	n/a	n/a
25.89	5.0	vicarious	stimulus	1	low_cue	low_stim	n/a	n/a	n/a	n/a	n/a	n/a	task-social/stim/runtype-vicarious/gf097t2aiunaff_L.mp4	n/a	n/a	n/a	n/a	n/a	n/a	n/a	n/a
36.9	1.74	vicarious	outcomerating	1	low_cue	low_stim	9.27	Weak	9.27	Weak	0.05	1.27	task-social/outcomerating/task-vicarious_scale.png	n/a	n/a	n/a	n/a	n/a	n/a	n/a	n/a
43.0	0.98	vicarious	cue	2	low_cue	n/a	n/a	n/a	n/a	n/a	n/a	n/a	task-social/cue/runtype-vicarious/scl/l048.png	n/a	n/a	n/a	n/a	n/a	n/a	n/a	n/a
46.0	2.54	vicarious	expectrating	2	low_cue	n/a	9.42	Weak	9.42	Weak	0.05	2.49	task-social/cue/runtype-vicarious/scl/l048.png	n/a	n/a	n/a	n/a	n/a	n/a	n/a	n/a
56.68	5.0	vicarious	stimulus	2	low_cue	med_stim	n/a	n/a	n/a	n/a	n/a	n/a	task-social/stim/runtype-vicarious/hs107t2aaaff_M.mp4	n/a	n/a	n/a	n/a	n/a	n/a	n/a	n/a
70.2	3.93	vicarious	outcomerating	2	low_cue	med_stim	61.57	Strong	61.57	Strong	0.05	2.49	task-social/outcomerating/task-vicarious_scale.png	n/a	n/a	n/a	n/a	n/a	n/a	n/a	n/a
78.7	0.98	vicarious	cue	3	high_cue	n/a	n/a	n/a	n/a	n/a	n/a	n/a	task-social/cue/runtype-vicarious/sch/h042.png	n/a	n/a	n/a	n/a	n/a	n/a	n/a	n/a
81.7	2.97	vicarious	expectrating	3	high_cue	n/a	81.45	Very-Strong	81.45	Very-Strong	0.62	2.36	task-social/cue/runtype-vicarious/sch/h042.png	n/a	n/a	n/a	n/a	n/a	n/a	n/a	n/a
88.48	5.0	vicarious	stimulus	3	high_cue	med_stim	n/a	n/a	n/a	n/a	n/a	n/a	task-social/stim/runtype-vicarious/bn080t1aeaff_M.mp4	n/a	n/a	n/a	n/a	n/a	n/a	n/a	n/a
100.01	1.87	vicarious	outcomerating	3	high_cue	med_stim	24.17	Moderate	24.17	Moderate	0.62	2.36	task-social/outcomerating/task-vicarious_scale.png	n/a	n/a	n/a	n/a	n/a	n/a	n/a	n/a
113.9	0.99	vicarious	cue	4	low_cue	n/a	n/a	n/a	n/a	n/a	n/a	n/a	task-social/cue/runtype-vicarious/scl/l036.png	n/a	n/a	n/a	n/a	n/a	n/a	n/a	n/a
115.8	2.73	vicarious	expectrating	4	low_cue	n/a	37.94	Strong	37.94	Strong	0.8	1.93	task-social/cue/runtype-vicarious/scl/l036.png	n/a	n/a	n/a	n/a	n/a	n/a	n/a	n/a
125.18	5.0	vicarious	stimulus	4	low_cue	high_stim	n/a	n/a	n/a	n/a	n/a	n/a	task-social/stim/runtype-vicarious/gf097t2aaunaff_H.mp4	n/a	n/a	n/a	n/a	n/a	n/a	n/a	n/a
137.1	2.02	vicarious	outcomerating	4	low_cue	high_stim	11.17	Moderate	11.17	Moderate	0.8	1.93	task-social/outcomerating/task-vicarious_scale.png	n/a	n/a	n/a	n/a	n/a	n/a	n/a	n/a
151.69	0.99	vicarious	cue	5	high_cue	n/a	n/a	n/a	n/a	n/a	n/a	n/a	task-social/cue/runtype-vicarious/sch/h048.png	n/a	n/a	n/a	n/a	n/a	n/a	n/a	n/a
153.39	3.13	vicarious	expectrating	5	high_cue	n/a	29.77	Strong	29.77	Strong	0.55	2.58	task-social/cue/runtype-vicarious/sch/h048.png	n/a	n/a	n/a	n/a	n/a	n/a	n/a	n/a
161.88	5.0	vicarious	stimulus	5	high_cue	med_stim	n/a	n/a	n/a	n/a	n/a	n/a	task-social/stim/runtype-vicarious/vw121t1aiaff_M.mp4	n/a	n/a	n/a	n/a	n/a	n/a	n/a	n/a
173.1	2.37	vicarious	outcomerating	5	high_cue	med_stim	3.49	Weak	3.49	Weak	0.55	2.58	task-social/outcomerating/task-vicarious_scale.png	n/a	n/a	n/a	n/a	n/a	n/a	n/a	n/a
178.79	0.99	vicarious	cue	6	low_cue	n/a	n/a	n/a	n/a	n/a	n/a	n/a	task-social/cue/runtype-vicarious/scl/l016.png	n/a	n/a	n/a	n/a	n/a	n/a	n/a	n/a
181.9	2.15	vicarious	expectrating	6	low_cue	n/a	3.23	Weak	3.23	Weak	0.35	1.8	task-social/cue/runtype-vicarious/scl/l016.png	n/a	n/a	n/a	n/a	n/a	n/a	n/a	n/a
190.08	5.0	vicarious	stimulus	6	low_cue	high_stim	n/a	n/a	n/a	n/a	n/a	n/a	task-social/stim/runtype-vicarious/hs107t1afaff_H.mp4	n/a	n/a	n/a	n/a	n/a	n/a	n/a	n/a
201.9	2.55	vicarious	outcomerating	6	low_cue	high_stim	60.34	Strong	60.34	Strong	0.35	1.8	task-social/outcomerating/task-vicarious_scale.png	n/a	n/a	n/a	n/a	n/a	n/a	n/a	n/a
207.2	0.98	vicarious	cue	7	low_cue	n/a	n/a	n/a	n/a	n/a	n/a	n/a	task-social/cue/runtype-vicarious/scl/l001.png	n/a	n/a	n/a	n/a	n/a	n/a	n/a	n/a
210.2	2.7	vicarious	expectrating	7	low_cue	n/a	8.33	Weak	8.33	Weak	0.63	2.07	task-social/cue/runtype-vicarious/scl/l001.png	n/a	n/a	n/a	n/a	n/a	n/a	n/a	n/a
221.48	5.0	vicarious	stimulus	7	low_cue	low_stim	n/a	n/a	n/a	n/a	n/a	n/a	task-social/stim/runtype-vicarious/hs107t2aeunaff_L.mp4	n/a	n/a	n/a	n/a	n/a	n/a	n/a	n/a
232.71	n/a	vicarious	outcomerating	7	low_cue	low_stim	n/a	n/a	14.87	Moderate	0.63	2.07	task-social/outcomerating/task-vicarious_scale.png	n/a	n/a	n/a	n/a	n/a	n/a	n/a	n/a
237.59	0.99	vicarious	cue	8	high_cue	n/a	n/a	n/a	n/a	n/a	n/a	n/a	task-social/cue/runtype-vicarious/sch/h006.png	n/a	n/a	n/a	n/a	n/a	n/a	n/a	n/a
239.29	2.03	vicarious	expectrating	8	high_cue	n/a	61.28	Strong	61.28	Strong	0.08	1.95	task-social/cue/runtype-vicarious/sch/h006.png	n/a	n/a	n/a	n/a	n/a	n/a	n/a	n/a
250.18	5.0	vicarious	stimulus	8	high_cue	high_stim	n/a	n/a	n/a	n/a	n/a	n/a	task-social/stim/runtype-vicarious/kz120t2aaaff_H.mp4	n/a	n/a	n/a	n/a	n/a	n/a	n/a	n/a
260.4	2.39	vicarious	outcomerating	8	high_cue	high_stim	37.98	Strong	37.98	Strong	0.08	1.95	task-social/outcomerating/task-vicarious_scale.png	n/a	n/a	n/a	n/a	n/a	n/a	n/a	n/a
268.29	0.99	vicarious	cue	9	high_cue	n/a	n/a	n/a	n/a	n/a	n/a	n/a	task-social/cue/runtype-vicarious/sch/h027.png	n/a	n/a	n/a	n/a	n/a	n/a	n/a	n/a
271.3	1.69	vicarious	expectrating	9	high_cue	n/a	47.11	Strong	47.11	Strong	0.58	1.1	task-social/cue/runtype-vicarious/sch/h027.png	n/a	n/a	n/a	n/a	n/a	n/a	n/a	n/a
279.48	5.0	vicarious	stimulus	9	high_cue	high_stim	n/a	n/a	n/a	n/a	n/a	n/a	task-social/stim/runtype-vicarious/th108t1aeaff_H.mp4	n/a	n/a	n/a	n/a	n/a	n/a	n/a	n/a
292.21	1.72	vicarious	outcomerating	9	high_cue	high_stim	108.73	Strongest-sensation-of-any-kind	108.73	Strongest-sensation-of-any-kind	0.58	1.1	task-social/outcomerating/task-vicarious_scale.png	n/a	n/a	n/a	n/a	n/a	n/a	n/a	n/a
300.1	0.98	vicarious	cue	10	high_cue	n/a	n/a	n/a	n/a	n/a	n/a	n/a	task-social/cue/runtype-vicarious/sch/h049.png	n/a	n/a	n/a	n/a	n/a	n/a	n/a	n/a
302.9	2.71	vicarious	expectrating	10	high_cue	n/a	60.74	Strong	60.74	Strong	0.27	2.44	task-social/cue/runtype-vicarious/sch/h049.png	n/a	n/a	n/a	n/a	n/a	n/a	n/a	n/a
319.49	5.0	vicarious	stimulus	10	high_cue	low_stim	n/a	n/a	n/a	n/a	n/a	n/a	task-social/stim/runtype-vicarious/th108t1aaunaff_L.mp4	n/a	n/a	n/a	n/a	n/a	n/a	n/a	n/a
328.71	2.95	vicarious	outcomerating	10	high_cue	low_stim	10.14	Moderate	10.14	Moderate	0.27	2.44	task-social/outcomerating/task-vicarious_scale.png	n/a	n/a	n/a	n/a	n/a	n/a	n/a	n/a
333.59	0.99	vicarious	cue	11	high_cue	n/a	n/a	n/a	n/a	n/a	n/a	n/a	task-social/cue/runtype-vicarious/sch/h018.png	n/a	n/a	n/a	n/a	n/a	n/a	n/a	n/a
336.5	2.6	vicarious	expectrating	11	high_cue	n/a	53.5	Strong	53.5	Strong	0.8	1.8	task-social/cue/runtype-vicarious/sch/h018.png	n/a	n/a	n/a	n/a	n/a	n/a	n/a	n/a
347.38	5.0	vicarious	stimulus	11	high_cue	low_stim	n/a	n/a	n/a	n/a	n/a	n/a	task-social/stim/runtype-vicarious/bn080t1afunaff_L.mp4	n/a	n/a	n/a	n/a	n/a	n/a	n/a	n/a
359.4	3.52	vicarious	outcomerating	11	high_cue	low_stim	23.17	Moderate	23.17	Moderate	0.8	1.8	task-social/outcomerating/task-vicarious_scale.png	n/a	n/a	n/a	n/a	n/a	n/a	n/a	n/a
366.99	0.99	vicarious	cue	12	low_cue	n/a	n/a	n/a	n/a	n/a	n/a	n/a	task-social/cue/runtype-vicarious/scl/l049.png	n/a	n/a	n/a	n/a	n/a	n/a	n/a	n/a
368.89	1.88	vicarious	expectrating	12	low_cue	n/a	14.71	Moderate	14.71	Moderate	0.35	1.53	task-social/cue/runtype-vicarious/scl/l049.png	n/a	n/a	n/a	n/a	n/a	n/a	n/a	n/a
382.48	5.0	vicarious	stimulus	12	low_cue	med_stim	n/a	n/a	n/a	n/a	n/a	n/a	task-social/stim/runtype-vicarious/th108t2aaunaff_M.mp4	n/a	n/a	n/a	n/a	n/a	n/a	n/a	n/a
394.5	2.82	vicarious	outcomerating	12	low_cue	med_stim	4.15	Weak	4.15	Weak	0.35	1.53	task-social/outcomerating/task-vicarious_scale.png	n/a	n/a	n/a	n/a	n/a	n/a	n/a	n/a
