onset	duration	run_type	trial_type	trial_index	cue	stimulusintensity	rating_value	rating_glmslabel	rating_value_fillna	rating_glmslabel_fillna	rating_mouseonset	rating_mousedur	stim_file	pain_onset_ttl1	pain_onset_ttl2	pain_onset_ttl3	pain_onset_ttl4	pain_stimulus_delivery_success	cognitive_correct_response	cognitive_participant_response	cognitive_response_accuracy
5.4	0.98	pain	cue	1	high_cue	n/a	n/a	n/a	n/a	n/a	n/a	n/a	task-social/cue/runtype-pain/sch/h006.png	n/a	n/a	n/a	n/a	n/a	n/a	n/a	n/a
8.21	n/a	pain	expectrating	1	high_cue	n/a	n/a	n/a	90.0	Very-Strong	3.85	3.83	task-social/cue/runtype-pain/sch/h006.png	n/a	n/a	n/a	n/a	n/a	n/a	n/a	n/a
17.05	11.899999999999999	pain	stimulus	1	high_cue	low_stim	n/a	n/a	n/a	n/a	n/a	n/a	n/a	17.05	20.55	25.55	28.95	success	n/a	n/a	n/a
30.3	2.71	pain	outcomerating	1	high_cue	low_stim	21.58	Moderate	21.58	Moderate	3.85	3.83	task-social/outcomerating/task-pain_scale.png	n/a	n/a	n/a	n/a	success	n/a	n/a	n/a
35.1	1.0	pain	cue	2	high_cue	n/a	n/a	n/a	n/a	n/a	n/a	n/a	task-social/cue/runtype-pain/sch/h004.png	n/a	n/a	n/a	n/a	n/a	n/a	n/a	n/a
37.5	n/a	pain	expectrating	2	high_cue	n/a	n/a	n/a	n/a	n/a	n/a	n/a	task-social/cue/runtype-pain/sch/h004.png	n/a	n/a	n/a	n/a	n/a	n/a	n/a	n/a
46.33	12.82	pain	stimulus	2	high_cue	high_stim	n/a	n/a	n/a	n/a	n/a	n/a	n/a	46.33	50.34	55.34	59.15	success	n/a	n/a	n/a
58.79	2.7	pain	outcomerating	2	high_cue	high_stim	57.46	Strong	57.46	Strong	n/a	n/a	task-social/outcomerating/task-pain_scale.png	n/a	n/a	n/a	n/a	success	n/a	n/a	n/a
68.7	1.0	pain	cue	3	high_cue	n/a	n/a	n/a	n/a	n/a	n/a	n/a	task-social/cue/runtype-pain/sch/h012.png	n/a	n/a	n/a	n/a	n/a	n/a	n/a	n/a
71.1	n/a	pain	expectrating	3	high_cue	n/a	n/a	n/a	n/a	n/a	n/a	n/a	task-social/cue/runtype-pain/sch/h012.png	n/a	n/a	n/a	n/a	n/a	n/a	n/a	n/a
79.43	12.36	pain	stimulus	3	high_cue	med_stim	n/a	n/a	n/a	n/a	n/a	n/a	n/a	79.43	83.19	88.19	91.8	success	n/a	n/a	n/a
91.9	3.09	pain	outcomerating	3	high_cue	med_stim	28.46	Moderate	28.46	Moderate	n/a	n/a	task-social/outcomerating/task-pain_scale.png	n/a	n/a	n/a	n/a	success	n/a	n/a	n/a
96.59	1.0	pain	cue	4	low_cue	n/a	n/a	n/a	n/a	n/a	n/a	n/a	task-social/cue/runtype-pain/scl/l013.png	n/a	n/a	n/a	n/a	n/a	n/a	n/a	n/a
98.11	n/a	pain	expectrating	4	low_cue	n/a	n/a	n/a	n/a	n/a	n/a	n/a	task-social/cue/runtype-pain/scl/l013.png	n/a	n/a	n/a	n/a	n/a	n/a	n/a	n/a
103.73	11.899999999999991	pain	stimulus	4	low_cue	low_stim	n/a	n/a	n/a	n/a	n/a	n/a	n/a	103.73	107.23	112.23	115.63	success	n/a	n/a	n/a
117.7	1.93	pain	outcomerating	4	low_cue	low_stim	6.47	Weak	6.47	Weak	n/a	n/a	task-social/outcomerating/task-pain_scale.png	n/a	n/a	n/a	n/a	success	n/a	n/a	n/a
124.0	1.0	pain	cue	5	high_cue	n/a	n/a	n/a	n/a	n/a	n/a	n/a	task-social/cue/runtype-pain/sch/h024.png	n/a	n/a	n/a	n/a	n/a	n/a	n/a	n/a
126.8	n/a	pain	expectrating	5	high_cue	n/a	n/a	n/a	n/a	n/a	n/a	n/a	task-social/cue/runtype-pain/sch/h024.png	n/a	n/a	n/a	n/a	n/a	n/a	n/a	n/a
132.43	12.819999999999993	pain	stimulus	5	high_cue	high_stim	n/a	n/a	n/a	n/a	n/a	n/a	n/a	132.43	136.44	141.44	145.25	success	n/a	n/a	n/a
151.69	2.92	pain	outcomerating	5	high_cue	high_stim	35.86	Strong	35.86	Strong	n/a	n/a	task-social/outcomerating/task-pain_scale.png	n/a	n/a	n/a	n/a	success	n/a	n/a	n/a
167.3	1.0	pain	cue	6	high_cue	n/a	n/a	n/a	n/a	n/a	n/a	n/a	task-social/cue/runtype-pain/sch/h020.png	n/a	n/a	n/a	n/a	n/a	n/a	n/a	n/a
170.1	n/a	pain	expectrating	6	high_cue	n/a	n/a	n/a	n/a	n/a	n/a	n/a	task-social/cue/runtype-pain/sch/h020.png	n/a	n/a	n/a	n/a	n/a	n/a	n/a	n/a
178.52	11.909999999999997	pain	stimulus	6	high_cue	low_stim	n/a	n/a	n/a	n/a	n/a	n/a	n/a	178.52	182.02	187.02	190.42	success	n/a	n/a	n/a
192.89	1.98	pain	outcomerating	6	high_cue	low_stim	5.3	Weak	5.3	Weak	n/a	n/a	task-social/outcomerating/task-pain_scale.png	n/a	n/a	n/a	n/a	success	n/a	n/a	n/a
203.3	1.0	pain	cue	7	low_cue	n/a	n/a	n/a	n/a	n/a	n/a	n/a	task-social/cue/runtype-pain/scl/l036.png	n/a	n/a	n/a	n/a	n/a	n/a	n/a	n/a
205.2	n/a	pain	expectrating	7	low_cue	n/a	n/a	n/a	n/a	n/a	n/a	n/a	task-social/cue/runtype-pain/scl/l036.png	n/a	n/a	n/a	n/a	n/a	n/a	n/a	n/a
218.62	12.370000000000005	pain	stimulus	7	low_cue	med_stim	n/a	n/a	n/a	n/a	n/a	n/a	n/a	218.62	222.38	227.38	230.99	success	n/a	n/a	n/a
228.7	2.85	pain	outcomerating	7	low_cue	med_stim	9.27	Weak	9.27	Weak	n/a	n/a	task-social/outcomerating/task-pain_scale.png	n/a	n/a	n/a	n/a	success	n/a	n/a	n/a
238.69	1.0	pain	cue	8	low_cue	n/a	n/a	n/a	n/a	n/a	n/a	n/a	task-social/cue/runtype-pain/scl/l016.png	n/a	n/a	n/a	n/a	n/a	n/a	n/a	n/a
241.89	n/a	pain	expectrating	8	low_cue	n/a	n/a	n/a	n/a	n/a	n/a	n/a	task-social/cue/runtype-pain/scl/l016.png	n/a	n/a	n/a	n/a	n/a	n/a	n/a	n/a
254.92	12.830000000000013	pain	stimulus	8	low_cue	high_stim	n/a	n/a	n/a	n/a	n/a	n/a	n/a	254.92	258.93	263.93	267.74	success	n/a	n/a	n/a
267.8	2.79	pain	outcomerating	8	low_cue	high_stim	32.22	Strong	32.22	Strong	n/a	n/a	task-social/outcomerating/task-pain_scale.png	n/a	n/a	n/a	n/a	success	n/a	n/a	n/a
276.89	1.0	pain	cue	9	low_cue	n/a	n/a	n/a	n/a	n/a	n/a	n/a	task-social/cue/runtype-pain/scl/l002.png	n/a	n/a	n/a	n/a	n/a	n/a	n/a	n/a
280.11	n/a	pain	expectrating	9	low_cue	n/a	n/a	n/a	n/a	n/a	n/a	n/a	task-social/cue/runtype-pain/scl/l002.png	n/a	n/a	n/a	n/a	n/a	n/a	n/a	n/a
288.51	12.360000000000014	pain	stimulus	9	low_cue	med_stim	n/a	n/a	n/a	n/a	n/a	n/a	n/a	288.51	292.27	297.27	300.88	success	n/a	n/a	n/a
305.7	2.32	pain	outcomerating	9	low_cue	med_stim	7.7	Weak	7.7	Weak	n/a	n/a	task-social/outcomerating/task-pain_scale.png	n/a	n/a	n/a	n/a	success	n/a	n/a	n/a
312.3	0.98	pain	cue	10	low_cue	n/a	n/a	n/a	n/a	n/a	n/a	n/a	task-social/cue/runtype-pain/scl/l028.png	n/a	n/a	n/a	n/a	n/a	n/a	n/a	n/a
315.1	n/a	pain	expectrating	10	low_cue	n/a	n/a	n/a	n/a	n/a	n/a	n/a	task-social/cue/runtype-pain/scl/l028.png	n/a	n/a	n/a	n/a	n/a	n/a	n/a	n/a
323.42	11.909999999999968	pain	stimulus	10	low_cue	low_stim	n/a	n/a	n/a	n/a	n/a	n/a	n/a	323.42	326.92	331.92	335.32	success	n/a	n/a	n/a
335.59	2.23	pain	outcomerating	10	low_cue	low_stim	0.0	n/a	0.0	n/a	n/a	n/a	task-social/outcomerating/task-pain_scale.png	n/a	n/a	n/a	n/a	success	n/a	n/a	n/a
347.4	1.0	pain	cue	11	high_cue	n/a	n/a	n/a	n/a	n/a	n/a	n/a	task-social/cue/runtype-pain/sch/h041.png	n/a	n/a	n/a	n/a	n/a	n/a	n/a	n/a
349.1	n/a	pain	expectrating	11	high_cue	n/a	n/a	n/a	n/a	n/a	n/a	n/a	task-social/cue/runtype-pain/sch/h041.png	n/a	n/a	n/a	n/a	n/a	n/a	n/a	n/a
354.72	12.369999999999948	pain	stimulus	11	high_cue	med_stim	n/a	n/a	n/a	n/a	n/a	n/a	n/a	354.72	358.48	363.48	367.09	success	n/a	n/a	n/a
366.91	3.25	pain	outcomerating	11	high_cue	med_stim	28.72	Moderate	28.72	Moderate	n/a	n/a	task-social/outcomerating/task-pain_scale.png	n/a	n/a	n/a	n/a	success	n/a	n/a	n/a
373.19	1.0	pain	cue	12	low_cue	n/a	n/a	n/a	n/a	n/a	n/a	n/a	task-social/cue/runtype-pain/scl/l038.png	n/a	n/a	n/a	n/a	n/a	n/a	n/a	n/a
375.69	n/a	pain	expectrating	12	low_cue	n/a	n/a	n/a	n/a	n/a	n/a	n/a	task-social/cue/runtype-pain/scl/l038.png	n/a	n/a	n/a	n/a	n/a	n/a	n/a	n/a
383.64	12.819999999999993	pain	stimulus	12	low_cue	high_stim	n/a	n/a	n/a	n/a	n/a	n/a	n/a	383.64	387.65	392.65	396.46	success	n/a	n/a	n/a
394.8	3.82	pain	outcomerating	12	low_cue	high_stim	42.72	Strong	42.72	Strong	n/a	n/a	task-social/outcomerating/task-pain_scale.png	n/a	n/a	n/a	n/a	success	n/a	n/a	n/a
