onset	duration	subtask_type	question	event_type	participant_response	normative_response	response_accuracy	stim_file_TODO	trial_index
0.078	2.034	tomspunt	smiling?	block_question_presentation	n/a	n/a	n/a	n/a	1
5.022	1.235	tomspunt	smiling?	how_face	yes	yes	correct	task-tomspunt/F_695.jpg	1
6.573	1.143	tomspunt	smiling?	how_face	no	no	correct	task-tomspunt/F_412.jpg	2
8.023	0.769	tomspunt	smiling?	how_face	yes	yes	correct	task-tomspunt/F_593.jpg	3
9.107	0.942	tomspunt	smiling?	how_face	yes	yes	correct	task-tomspunt/F_139.jpg	4
10.357	0.776	tomspunt	smiling?	how_face	no	no	correct	task-tomspunt/F_712.jpg	5
11.441	0.658	tomspunt	smiling?	how_face	yes	yes	correct	task-tomspunt/F_759.jpg	6
12.408	0.752	tomspunt	smiling?	how_face	no	no	correct	task-tomspunt/F_758.jpg	7
13.475	0.635	tomspunt	smiling?	how_face	yes	yes	correct	task-tomspunt/F_083.jpg	8
17.851	2.101	tomspunt	admiring?	block_question_presentation	n/a	n/a	n/a	n/a	9
22.862	0.503	tomspunt	admiring?	why_face	yes	yes	correct	task-tomspunt/F_779.jpg	9
23.679	0.619	tomspunt	admiring?	why_face	no	no	correct	task-tomspunt/F_110.jpg	10
24.613	0.619	tomspunt	admiring?	why_face	yes	yes	correct	task-tomspunt/F_590.jpg	11
25.546	0.652	tomspunt	admiring?	why_face	yes	yes	correct	task-tomspunt/F_648.jpg	12
26.513	0.636	tomspunt	admiring?	why_face	yes	yes	correct	task-tomspunt/F_759.jpg	13
27.464	0.702	tomspunt	admiring?	why_face	no	no	correct	task-tomspunt/F_129.jpg	14
28.481	0.701	tomspunt	admiring?	why_face	yes	yes	correct	task-tomspunt/F_593.jpg	15
29.498	1.035	tomspunt	admiring?	why_face	no	no	correct	task-tomspunt/F_692.jpg	16
36.908	2.101	tomspunt	healthy?	block_question_presentation	n/a	n/a	n/a	n/a	17
41.919	1.363	tomspunt	healthy?	why_hand	yes	yes	correct	task-tomspunt/H_364.jpg	17
43.586	1.702	tomspunt	healthy?	why_hand	no	no	correct	task-tomspunt/H_007.jpg	18
45.604	1.045	tomspunt	healthy?	why_hand	yes	yes	correct	task-tomspunt/H_167.jpg	19
46.954	0.911	tomspunt	healthy?	why_hand	no	no	correct	task-tomspunt/H_130.jpg	20
48.171	1.227	tomspunt	healthy?	why_hand	yes	yes	correct	task-tomspunt/H_438.jpg	21
49.705	0.994	tomspunt	healthy?	why_hand	no	no	correct	task-tomspunt/H_019.jpg	22
51.006	0.868	tomspunt	healthy?	why_hand	yes	yes	correct	task-tomspunt/H_362.jpg	23
52.19	0.892	tomspunt	healthy?	why_hand	yes	yes	correct	task-tomspunt/H_627.jpg	24
55.865	2.101	tomspunt	pressing button?	block_question_presentation	n/a	n/a	n/a	n/a	25
60.876	0.639	tomspunt	pressing button?	how_hand	yes	yes	correct	task-tomspunt/H_126.jpg	25
61.827	0.656	tomspunt	pressing button?	how_hand	yes	yes	correct	task-tomspunt/H_332.jpg	26
62.794	0.872	tomspunt	pressing button?	how_hand	no	no	correct	task-tomspunt/H_261.jpg	27
63.977	1.002	tomspunt	pressing button?	how_hand	no	no	correct	task-tomspunt/H_024.jpg	28
65.295	0.787	tomspunt	pressing button?	how_hand	yes	yes	correct	task-tomspunt/H_502.jpg	29
66.395	0.801	tomspunt	pressing button?	how_hand	no	no	correct	task-tomspunt/H_130.jpg	30
67.512	0.67	tomspunt	pressing button?	how_hand	yes	yes	correct	task-tomspunt/H_019.jpg	31
68.496	0.668	tomspunt	pressing button?	how_hand	yes	yes	correct	task-tomspunt/H_483.jpg	32
73.672	2.084	tomspunt	looking to side?	block_question_presentation	n/a	n/a	n/a	n/a	33
78.666	0.702	tomspunt	looking to side?	how_face	yes	yes	correct	task-tomspunt/F_590.jpg	33
79.683	0.835	tomspunt	looking to side?	how_face	no	yes	incorrect	task-tomspunt/F_110.jpg	34
80.834	0.752	tomspunt	looking to side?	how_face	yes	yes	correct	task-tomspunt/F_760.jpg	35
81.901	0.948	tomspunt	looking to side?	how_face	no	no	correct	task-tomspunt/F_779.jpg	36
83.151	0.764	tomspunt	looking to side?	how_face	yes	yes	correct	task-tomspunt/F_433.jpg	37
84.218	0.769	tomspunt	looking to side?	how_face	no	no	correct	task-tomspunt/F_798.jpg	38
85.302	0.619	tomspunt	looking to side?	how_face	yes	yes	correct	task-tomspunt/F_716.jpg	39
86.236	1.251	tomspunt	looking to side?	how_face	no	no	correct	task-tomspunt/F_111.jpg	40
92.712	2.101	tomspunt	argument?	block_question_presentation	n/a	n/a	n/a	n/a	41
97.723	0.693	tomspunt	argument?	why_face	yes	yes	correct	task-tomspunt/F_403.jpg	41
98.724	0.635	tomspunt	argument?	why_face	no	no	correct	task-tomspunt/F_139.jpg	42
99.674	0.719	tomspunt	argument?	why_face	yes	yes	correct	task-tomspunt/F_743.jpg	43
100.708	0.668	tomspunt	argument?	why_face	no	no	correct	task-tomspunt/F_433.jpg	44
101.691	1.191	tomspunt	argument?	why_face	yes	yes	correct	task-tomspunt/F_716.jpg	45
103.192	0.924	tomspunt	argument?	why_face	yes	yes	correct	task-tomspunt/F_758.jpg	46
104.426	0.79	tomspunt	argument?	why_face	no	no	correct	task-tomspunt/F_844.jpg	47
105.526	0.724	tomspunt	argument?	why_face	yes	yes	correct	task-tomspunt/F_712.jpg	48
115.204	2.084	tomspunt	self-protection?	block_question_presentation	n/a	n/a	n/a	n/a	49
120.198	1.319	tomspunt	self-protection?	why_hand	yes	yes	correct	task-tomspunt/H_189.jpg	49
121.832	1.069	tomspunt	self-protection?	why_hand	yes	yes	correct	task-tomspunt/H_038.jpg	50
123.216	1.233	tomspunt	self-protection?	why_hand	no	yes	incorrect	task-tomspunt/H_581.jpg	51
124.75	1.652	tomspunt	self-protection?	why_hand	no	no	correct	task-tomspunt/H_006.jpg	52
126.717	1.069	tomspunt	self-protection?	why_hand	yes	yes	correct	task-tomspunt/H_027.jpg	53
128.101	1.085	tomspunt	self-protection?	why_hand	no	no	correct	task-tomspunt/H_332.jpg	54
129.502	1.152	tomspunt	self-protection?	why_hand	yes	yes	correct	task-tomspunt/H_443.jpg	55
130.969	1.319	tomspunt	self-protection?	why_hand	no	no	correct	task-tomspunt/H_532.jpg	56
133.044	2.084	tomspunt	both hands?	block_question_presentation	n/a	n/a	n/a	n/a	57
138.038	1.118	tomspunt	both hands?	how_hand	yes	yes	correct	task-tomspunt/H_581.jpg	57
139.472	0.876	tomspunt	both hands?	how_hand	yes	yes	correct	task-tomspunt/H_349.jpg	58
140.656	0.809	tomspunt	both hands?	how_hand	no	no	correct	task-tomspunt/H_159.jpg	59
141.773	1.093	tomspunt	both hands?	how_hand	yes	yes	correct	task-tomspunt/H_111.jpg	60
143.174	0.985	tomspunt	both hands?	how_hand	no	no	correct	task-tomspunt/H_627.jpg	61
144.474	1.292	tomspunt	both hands?	how_hand	yes	yes	correct	task-tomspunt/H_167.jpg	62
146.075	1.085	tomspunt	both hands?	how_hand	yes	yes	correct	task-tomspunt/H_027.jpg	63
147.475	0.874	tomspunt	both hands?	how_hand	no	no	correct	task-tomspunt/H_091.jpg	64
150.834	2.084	tomspunt	competing?	block_question_presentation	n/a	n/a	n/a	n/a	65
155.828	0.737	tomspunt	competing?	why_hand	yes	yes	correct	task-tomspunt/H_170.jpg	65
156.879	0.853	tomspunt	competing?	why_hand	yes	yes	correct	task-tomspunt/H_132.jpg	66
158.046	0.72	tomspunt	competing?	why_hand	no	no	correct	task-tomspunt/H_126.jpg	67
159.079	0.869	tomspunt	competing?	why_hand	yes	yes	correct	task-tomspunt/H_003.jpg	68
160.263	0.736	tomspunt	competing?	why_hand	no	no	correct	task-tomspunt/H_502.jpg	69
161.314	1.135	tomspunt	competing?	why_hand	yes	yes	correct	task-tomspunt/H_136.jpg	70
162.764	1.001	tomspunt	competing?	why_hand	no	no	correct	task-tomspunt/H_483.jpg	71
164.081	0.868	tomspunt	competing?	why_hand	yes	yes	correct	task-tomspunt/H_261.jpg	72
168.724	2.084	tomspunt	lifting?	block_question_presentation	n/a	n/a	n/a	n/a	73
173.718	0.685	tomspunt	lifting?	how_hand	yes	yes	correct	task-tomspunt/H_362.jpg	73
174.719	0.851	tomspunt	lifting?	how_hand	no	no	correct	task-tomspunt/H_012.jpg	74
175.886	1.218	tomspunt	lifting?	how_hand	yes	yes	correct	task-tomspunt/H_136.jpg	75
177.42	1.129	tomspunt	lifting?	how_hand	no	yes	incorrect	task-tomspunt/H_189.jpg	76
178.854	0.818	tomspunt	lifting?	how_hand	yes	yes	correct	task-tomspunt/H_170.jpg	77
179.987	1.162	tomspunt	lifting?	how_hand	no	no	correct	task-tomspunt/H_077.jpg	78
181.455	0.894	tomspunt	lifting?	how_hand	yes	yes	correct	task-tomspunt/H_443.jpg	79
182.655	0.911	tomspunt	lifting?	how_hand	no	no	correct	task-tomspunt/H_038.jpg	80
186.781	2.101	tomspunt	open mouth?	block_question_presentation	n/a	n/a	n/a	n/a	81
191.792	0.54	tomspunt	open mouth?	how_face	yes	yes	correct	task-tomspunt/F_403.jpg	81
192.642	0.518	tomspunt	open mouth?	how_face	yes	yes	correct	task-tomspunt/F_086.jpg	82
193.476	0.506	tomspunt	open mouth?	how_face	yes	yes	correct	task-tomspunt/F_844.jpg	83
194.293	0.723	tomspunt	open mouth?	how_face	no	no	correct	task-tomspunt/F_544.jpg	84
195.326	0.639	tomspunt	open mouth?	how_face	yes	yes	correct	task-tomspunt/F_776.jpg	85
196.277	0.635	tomspunt	open mouth?	how_face	no	no	correct	task-tomspunt/F_648.jpg	86
197.227	0.539	tomspunt	open mouth?	how_face	yes	yes	correct	task-tomspunt/F_692.jpg	87
198.077	0.805	tomspunt	open mouth?	how_face	no	no	correct	task-tomspunt/F_584.jpg	88
204.304	2.101	tomspunt	proud?	block_question_presentation	n/a	n/a	n/a	n/a	89
209.315	0.718	tomspunt	proud?	why_face	yes	yes	correct	task-tomspunt/F_582.jpg	89
210.349	1.051	tomspunt	proud?	why_face	no	no	correct	task-tomspunt/F_776.jpg	90
211.716	0.719	tomspunt	proud?	why_face	yes	yes	correct	task-tomspunt/F_598.jpg	91
212.75	0.935	tomspunt	proud?	why_face	no	no	correct	task-tomspunt/F_412.jpg	92
214.0	0.735	tomspunt	proud?	why_face	yes	yes	correct	task-tomspunt/F_618.jpg	93
215.05	0.685	tomspunt	proud?	why_face	yes	yes	correct	task-tomspunt/F_083.jpg	94
216.051	0.735	tomspunt	proud?	why_face	yes	yes	correct	task-tomspunt/F_695.jpg	95
217.101	0.765	tomspunt	proud?	why_face	no	no	correct	task-tomspunt/F_760.jpg	96
222.528	2.101	tomspunt	helping?	block_question_presentation	n/a	n/a	n/a	n/a	97
227.538	1.186	tomspunt	helping?	why_hand	yes	yes	correct	task-tomspunt/H_024.jpg	97
229.039	1.001	tomspunt	helping?	why_hand	yes	yes	correct	task-tomspunt/H_474.jpg	98
230.356	0.652	tomspunt	helping?	why_hand	yes	yes	correct	task-tomspunt/H_349.jpg	99
231.323	0.942	tomspunt	helping?	why_hand	no	no	correct	task-tomspunt/H_091.jpg	100
232.574	0.859	tomspunt	helping?	why_hand	no	no	correct	task-tomspunt/H_012.jpg	101
233.741	1.058	tomspunt	helping?	why_hand	yes	yes	correct	task-tomspunt/H_077.jpg	102
235.108	1.001	tomspunt	helping?	why_hand	no	no	correct	task-tomspunt/H_159.jpg	103
236.425	0.89	tomspunt	helping?	why_hand	yes	yes	correct	task-tomspunt/H_111.jpg	104
240.051	2.101	tomspunt	reaching?	block_question_presentation	n/a	n/a	n/a	n/a	105
245.062	0.821	tomspunt	reaching?	how_hand	yes	yes	correct	task-tomspunt/H_474.jpg	105
246.195	0.687	tomspunt	reaching?	how_hand	yes	yes	correct	task-tomspunt/H_003.jpg	106
247.196	0.837	tomspunt	reaching?	how_hand	no	no	correct	task-tomspunt/H_132.jpg	107
248.346	0.82	tomspunt	reaching?	how_hand	yes	yes	correct	task-tomspunt/H_364.jpg	108
249.48	1.085	tomspunt	reaching?	how_hand	yes	yes	correct	task-tomspunt/H_006.jpg	109
250.88	1.052	tomspunt	reaching?	how_hand	no	no	correct	task-tomspunt/H_532.jpg	110
252.248	1.335	tomspunt	reaching?	how_hand	no	no	correct	task-tomspunt/H_438.jpg	111
253.898	0.785	tomspunt	reaching?	how_hand	yes	yes	correct	task-tomspunt/H_007.jpg	112
258.841	2.101	tomspunt	looking at camera?	block_question_presentation	n/a	n/a	n/a	n/a	113
263.852	0.897	tomspunt	looking at camera?	how_face	yes	yes	correct	task-tomspunt/F_618.jpg	113
265.052	0.652	tomspunt	looking at camera?	how_face	no	no	correct	task-tomspunt/F_743.jpg	114
266.019	0.585	tomspunt	looking at camera?	how_face	yes	yes	correct	task-tomspunt/F_598.jpg	115
266.92	0.718	tomspunt	looking at camera?	how_face	yes	yes	correct	task-tomspunt/F_774.jpg	116
267.953	0.618	tomspunt	looking at camera?	how_face	yes	yes	correct	task-tomspunt/F_129.jpg	117
268.887	0.635	tomspunt	looking at camera?	how_face	yes	yes	correct	task-tomspunt/F_128.jpg	118
269.837	0.935	tomspunt	looking at camera?	how_face	no	no	correct	task-tomspunt/F_582.jpg	119
271.088	0.751	tomspunt	looking at camera?	how_face	no	no	correct	task-tomspunt/F_754.jpg	120
280.332	2.084	tomspunt	self-doubt?	block_question_presentation	n/a	n/a	n/a	n/a	121
285.327	1.256	tomspunt	self-doubt?	why_face	yes	yes	correct	task-tomspunt/F_798.jpg	121
286.894	0.955	tomspunt	self-doubt?	why_face	no	no	correct	task-tomspunt/F_128.jpg	122
288.161	0.837	tomspunt	self-doubt?	why_face	yes	yes	correct	task-tomspunt/F_754.jpg	123
289.311	0.754	tomspunt	self-doubt?	why_face	yes	yes	correct	task-tomspunt/F_544.jpg	124
290.378	1.454	tomspunt	self-doubt?	why_face	no	no	correct	task-tomspunt/F_086.jpg	125
292.146	1.036	tomspunt	self-doubt?	why_face	yes	yes	correct	task-tomspunt/F_111.jpg	126
293.496	0.769	tomspunt	self-doubt?	why_face	no	no	correct	task-tomspunt/F_774.jpg	127
294.58	1.552	tomspunt	self-doubt?	why_face	no	yes	incorrect	task-tomspunt/F_584.jpg	128
298.206	2.101	tomspunt	reaching?	block_question_presentation	n/a	n/a	n/a	n/a	129
303.217	0.632	tomspunt	reaching?	how_hand	yes	yes	correct	task-tomspunt/H_006.jpg	129
304.15	0.918	tomspunt	reaching?	how_hand	no	no	correct	task-tomspunt/H_438.jpg	130
305.384	0.598	tomspunt	reaching?	how_hand	yes	yes	correct	task-tomspunt/H_003.jpg	131
306.284	0.635	tomspunt	reaching?	how_hand	yes	yes	correct	task-tomspunt/H_474.jpg	132
307.235	0.652	tomspunt	reaching?	how_hand	no	no	correct	task-tomspunt/H_532.jpg	133
308.202	0.635	tomspunt	reaching?	how_hand	yes	yes	correct	task-tomspunt/H_364.jpg	134
309.152	0.518	tomspunt	reaching?	how_hand	yes	yes	correct	task-tomspunt/H_007.jpg	135
309.986	0.885	tomspunt	reaching?	how_hand	no	no	correct	task-tomspunt/H_132.jpg	136
320.697	2.101	tomspunt	healthy?	block_question_presentation	n/a	n/a	n/a	n/a	137
325.708	n/a	tomspunt	healthy?	why_hand	n/a	yes	incorrect	task-tomspunt/H_438.jpg	137
327.742	1.023	tomspunt	healthy?	why_hand	no	no	correct	task-tomspunt/H_007.jpg	138
329.076	1.306	tomspunt	healthy?	why_hand	yes	yes	correct	task-tomspunt/H_364.jpg	139
330.693	0.839	tomspunt	healthy?	why_hand	no	no	correct	task-tomspunt/H_019.jpg	140
331.844	0.701	tomspunt	healthy?	why_hand	yes	yes	correct	task-tomspunt/H_167.jpg	141
332.861	1.237	tomspunt	healthy?	why_hand	no	no	correct	task-tomspunt/H_130.jpg	142
334.412	0.871	tomspunt	healthy?	why_hand	yes	yes	correct	task-tomspunt/H_627.jpg	143
335.595	0.853	tomspunt	healthy?	why_hand	yes	yes	correct	task-tomspunt/H_362.jpg	144
338.771	2.101	tomspunt	proud?	block_question_presentation	n/a	n/a	n/a	n/a	145
343.782	0.634	tomspunt	proud?	why_face	yes	yes	correct	task-tomspunt/F_083.jpg	145
344.715	0.668	tomspunt	proud?	why_face	no	no	correct	task-tomspunt/F_412.jpg	146
345.699	0.752	tomspunt	proud?	why_face	yes	yes	correct	task-tomspunt/F_695.jpg	147
346.766	0.602	tomspunt	proud?	why_face	yes	yes	correct	task-tomspunt/F_598.jpg	148
347.683	0.718	tomspunt	proud?	why_face	yes	yes	correct	task-tomspunt/F_618.jpg	149
348.717	0.651	tomspunt	proud?	why_face	yes	yes	correct	task-tomspunt/F_582.jpg	150
349.684	0.585	tomspunt	proud?	why_face	no	no	correct	task-tomspunt/F_760.jpg	151
350.584	0.998	tomspunt	proud?	why_face	no	no	correct	task-tomspunt/F_776.jpg	152
360.246	2.101	tomspunt	smiling?	block_question_presentation	n/a	n/a	n/a	n/a	153
365.256	0.526	tomspunt	smiling?	how_face	yes	yes	correct	task-tomspunt/F_695.jpg	153
366.09	0.719	tomspunt	smiling?	how_face	no	no	correct	task-tomspunt/F_412.jpg	154
367.124	0.519	tomspunt	smiling?	how_face	yes	yes	correct	task-tomspunt/F_083.jpg	155
367.957	0.542	tomspunt	smiling?	how_face	yes	yes	correct	task-tomspunt/F_593.jpg	156
368.808	0.741	tomspunt	smiling?	how_face	no	no	correct	task-tomspunt/F_712.jpg	157
369.858	0.557	tomspunt	smiling?	how_face	yes	yes	correct	task-tomspunt/F_139.jpg	158
370.725	0.541	tomspunt	smiling?	how_face	yes	yes	correct	task-tomspunt/F_759.jpg	159
371.575	0.623	tomspunt	smiling?	how_face	no	no	correct	task-tomspunt/F_758.jpg	160
379.353	2.101	tomspunt	both hands?	block_question_presentation	n/a	n/a	n/a	n/a	161
384.364	0.635	tomspunt	both hands?	how_hand	yes	yes	correct	task-tomspunt/H_167.jpg	161
385.314	0.635	tomspunt	both hands?	how_hand	no	no	correct	task-tomspunt/H_159.jpg	162
386.264	0.585	tomspunt	both hands?	how_hand	yes	yes	correct	task-tomspunt/H_027.jpg	163
387.165	0.769	tomspunt	both hands?	how_hand	yes	yes	correct	task-tomspunt/H_581.jpg	164
388.248	1.102	tomspunt	both hands?	how_hand	no	no	correct	task-tomspunt/H_091.jpg	165
389.665	0.852	tomspunt	both hands?	how_hand	yes	yes	correct	task-tomspunt/H_111.jpg	166
390.833	0.852	tomspunt	both hands?	how_hand	no	no	correct	task-tomspunt/H_627.jpg	167
392.0	0.552	tomspunt	both hands?	how_hand	yes	yes	correct	task-tomspunt/H_349.jpg	168
396.876	2.101	tomspunt	helping?	block_question_presentation	n/a	n/a	n/a	n/a	169
401.887	0.629	tomspunt	helping?	why_hand	yes	yes	correct	task-tomspunt/H_111.jpg	169
402.82	0.762	tomspunt	helping?	why_hand	yes	yes	correct	task-tomspunt/H_077.jpg	170
403.887	0.752	tomspunt	helping?	why_hand	no	no	correct	task-tomspunt/H_159.jpg	171
404.955	0.685	tomspunt	helping?	why_hand	yes	yes	correct	task-tomspunt/H_474.jpg	172
405.955	0.818	tomspunt	helping?	why_hand	no	no	correct	task-tomspunt/H_012.jpg	173
407.089	1.127	tomspunt	helping?	why_hand	yes	yes	correct	task-tomspunt/H_024.jpg	174
408.523	0.893	tomspunt	helping?	why_hand	no	no	correct	task-tomspunt/H_091.jpg	175
409.723	0.652	tomspunt	helping?	why_hand	yes	yes	correct	task-tomspunt/H_349.jpg	176
414.416	2.101	tomspunt	self-doubt?	block_question_presentation	n/a	n/a	n/a	n/a	177
419.427	0.755	tomspunt	self-doubt?	why_face	no	yes	incorrect	task-tomspunt/F_754.jpg	177
420.494	1.122	tomspunt	self-doubt?	why_face	no	no	correct	task-tomspunt/F_128.jpg	178
421.928	0.738	tomspunt	self-doubt?	why_face	yes	yes	correct	task-tomspunt/F_544.jpg	179
422.978	0.938	tomspunt	self-doubt?	why_face	no	no	correct	task-tomspunt/F_086.jpg	180
424.228	0.687	tomspunt	self-doubt?	why_face	yes	yes	correct	task-tomspunt/F_798.jpg	181
425.229	0.82	tomspunt	self-doubt?	why_face	no	yes	incorrect	task-tomspunt/F_584.jpg	182
426.362	0.886	tomspunt	self-doubt?	why_face	yes	yes	correct	task-tomspunt/F_111.jpg	183
427.563	0.753	tomspunt	self-doubt?	why_face	no	no	correct	task-tomspunt/F_774.jpg	184
433.206	2.101	tomspunt	looking to side?	block_question_presentation	n/a	n/a	n/a	n/a	185
438.217	0.919	tomspunt	looking to side?	how_face	yes	yes	correct	task-tomspunt/F_433.jpg	185
439.451	1.119	tomspunt	looking to side?	how_face	no	no	correct	task-tomspunt/F_779.jpg	186
440.885	1.085	tomspunt	looking to side?	how_face	yes	yes	correct	task-tomspunt/F_760.jpg	187
442.285	0.947	tomspunt	looking to side?	how_face	no	no	correct	task-tomspunt/F_111.jpg	188
443.536	0.93	tomspunt	looking to side?	how_face	yes	no	incorrect	task-tomspunt/F_798.jpg	189
444.769	0.935	tomspunt	looking to side?	how_face	yes	yes	correct	task-tomspunt/F_716.jpg	190
446.02	0.846	tomspunt	looking to side?	how_face	yes	yes	correct	task-tomspunt/F_590.jpg	191
447.17	0.862	tomspunt	looking to side?	how_face	no	yes	incorrect	task-tomspunt/F_110.jpg	192
451.079	2.101	tomspunt	argument?	block_question_presentation	n/a	n/a	n/a	n/a	193
456.09	0.958	tomspunt	argument?	why_face	yes	yes	correct	task-tomspunt/F_716.jpg	193
457.357	0.691	tomspunt	argument?	why_face	no	no	correct	task-tomspunt/F_139.jpg	194
458.358	0.868	tomspunt	argument?	why_face	yes	yes	correct	task-tomspunt/F_743.jpg	195
459.542	0.735	tomspunt	argument?	why_face	yes	yes	correct	task-tomspunt/F_403.jpg	196
460.592	0.902	tomspunt	argument?	why_face	yes	yes	correct	task-tomspunt/F_758.jpg	197
461.809	0.573	tomspunt	argument?	why_face	no	no	correct	task-tomspunt/F_844.jpg	198
462.693	1.14	tomspunt	argument?	why_face	yes	yes	correct	task-tomspunt/F_712.jpg	199
464.143	0.022	tomspunt	argument?	why_face	no	no	correct	task-tomspunt/F_433.jpg	200
470.187	2.101	tomspunt	open mouth?	block_question_presentation	n/a	n/a	n/a	n/a	201
475.197	0.485	tomspunt	open mouth?	how_face	yes	yes	correct	task-tomspunt/F_844.jpg	201
475.998	0.501	tomspunt	open mouth?	how_face	yes	yes	correct	task-tomspunt/F_692.jpg	202
476.815	0.501	tomspunt	open mouth?	how_face	no	no	correct	task-tomspunt/F_584.jpg	203
477.632	0.619	tomspunt	open mouth?	how_face	yes	yes	correct	task-tomspunt/F_086.jpg	204
478.565	0.619	tomspunt	open mouth?	how_face	yes	yes	correct	task-tomspunt/F_403.jpg	205
479.499	0.585	tomspunt	open mouth?	how_face	no	no	correct	task-tomspunt/F_544.jpg	206
480.399	0.585	tomspunt	open mouth?	how_face	no	no	correct	task-tomspunt/F_648.jpg	207
481.3	0.582	tomspunt	open mouth?	how_face	yes	yes	correct	task-tomspunt/F_776.jpg	208
489.144	2.101	tomspunt	lifting?	block_question_presentation	n/a	n/a	n/a	n/a	209
494.154	0.544	tomspunt	lifting?	how_hand	yes	yes	correct	task-tomspunt/H_170.jpg	209
495.005	1.044	tomspunt	lifting?	how_hand	no	no	correct	task-tomspunt/H_077.jpg	210
496.355	0.694	tomspunt	lifting?	how_hand	yes	yes	correct	task-tomspunt/H_189.jpg	211
497.356	0.652	tomspunt	lifting?	how_hand	yes	yes	correct	task-tomspunt/H_362.jpg	212
498.323	0.801	tomspunt	lifting?	how_hand	no	no	correct	task-tomspunt/H_012.jpg	213
499.44	0.609	tomspunt	lifting?	how_hand	yes	yes	correct	task-tomspunt/H_443.jpg	214
500.357	0.825	tomspunt	lifting?	how_hand	yes	yes	correct	task-tomspunt/H_136.jpg	215
501.491	1.019	tomspunt	lifting?	how_hand	no	no	correct	task-tomspunt/H_038.jpg	216
506.667	2.101	tomspunt	competing?	block_question_presentation	n/a	n/a	n/a	n/a	217
511.678	0.535	tomspunt	competing?	why_hand	yes	yes	correct	task-tomspunt/H_003.jpg	217
512.528	0.638	tomspunt	competing?	why_hand	no	no	correct	task-tomspunt/H_483.jpg	218
513.478	0.554	tomspunt	competing?	why_hand	yes	yes	correct	task-tomspunt/H_132.jpg	219
514.345	0.487	tomspunt	competing?	why_hand	yes	yes	correct	task-tomspunt/H_170.jpg	220
515.146	0.603	tomspunt	competing?	why_hand	no	no	correct	task-tomspunt/H_502.jpg	221
516.063	0.953	tomspunt	competing?	why_hand	yes	yes	correct	task-tomspunt/H_136.jpg	222
517.33	0.802	tomspunt	competing?	why_hand	no	no	correct	task-tomspunt/H_126.jpg	223
518.447	0.502	tomspunt	competing?	why_hand	yes	yes	correct	task-tomspunt/H_261.jpg	224
524.54	2.101	tomspunt	admiring?	block_question_presentation	n/a	n/a	n/a	n/a	225
529.551	0.452	tomspunt	admiring?	why_face	yes	yes	correct	task-tomspunt/F_759.jpg	225
530.318	0.535	tomspunt	admiring?	why_face	yes	yes	correct	task-tomspunt/F_593.jpg	226
531.168	0.497	tomspunt	admiring?	why_face	no	no	correct	task-tomspunt/F_692.jpg	227
531.969	0.502	tomspunt	admiring?	why_face	yes	yes	correct	task-tomspunt/F_590.jpg	228
532.786	0.514	tomspunt	admiring?	why_face	no	no	correct	task-tomspunt/F_129.jpg	229
533.602	0.535	tomspunt	admiring?	why_face	yes	yes	correct	task-tomspunt/F_648.jpg	230
534.453	0.501	tomspunt	admiring?	why_face	no	no	correct	task-tomspunt/F_110.jpg	231
535.27	0.568	tomspunt	admiring?	why_face	yes	yes	correct	task-tomspunt/F_779.jpg	232
542.08	2.084	tomspunt	looking at camera?	block_question_presentation	n/a	n/a	n/a	n/a	233
547.074	1.051	tomspunt	looking at camera?	how_face	yes	yes	correct	task-tomspunt/F_128.jpg	233
548.441	0.658	tomspunt	looking at camera?	how_face	no	no	correct	task-tomspunt/F_754.jpg	234
549.408	0.49	tomspunt	looking at camera?	how_face	yes	yes	correct	task-tomspunt/F_598.jpg	235
550.209	0.502	tomspunt	looking at camera?	how_face	yes	yes	correct	task-tomspunt/F_129.jpg	236
551.026	0.502	tomspunt	looking at camera?	how_face	yes	yes	correct	task-tomspunt/F_618.jpg	237
551.843	0.568	tomspunt	looking at camera?	how_face	no	no	correct	task-tomspunt/F_743.jpg	238
552.726	0.535	tomspunt	looking at camera?	how_face	yes	yes	correct	task-tomspunt/F_774.jpg	239
553.577	0.635	tomspunt	looking at camera?	how_face	no	no	correct	task-tomspunt/F_582.jpg	240
560.754	2.101	tomspunt	pressing button?	block_question_presentation	n/a	n/a	n/a	n/a	241
565.764	0.468	tomspunt	pressing button?	how_hand	yes	yes	correct	task-tomspunt/H_019.jpg	241
566.548	0.468	tomspunt	pressing button?	how_hand	yes	yes	correct	task-tomspunt/H_126.jpg	242
567.332	0.585	tomspunt	pressing button?	how_hand	no	no	correct	task-tomspunt/H_130.jpg	243
568.232	0.685	tomspunt	pressing button?	how_hand	yes	yes	correct	task-tomspunt/H_332.jpg	244
569.232	0.735	tomspunt	pressing button?	how_hand	no	no	correct	task-tomspunt/H_024.jpg	245
570.283	0.532	tomspunt	pressing button?	how_hand	yes	yes	correct	task-tomspunt/H_483.jpg	246
571.116	0.668	tomspunt	pressing button?	how_hand	no	no	correct	task-tomspunt/H_261.jpg	247
572.1	0.535	tomspunt	pressing button?	how_hand	yes	yes	correct	task-tomspunt/H_502.jpg	248
578.96	2.101	tomspunt	self-protection?	block_question_presentation	n/a	n/a	n/a	n/a	249
583.971	0.451	tomspunt	self-protection?	why_hand	yes	yes	correct	task-tomspunt/H_443.jpg	249
584.738	0.801	tomspunt	self-protection?	why_hand	yes	yes	correct	task-tomspunt/H_189.jpg	250
585.855	0.777	tomspunt	self-protection?	why_hand	yes	yes	correct	task-tomspunt/H_027.jpg	251
586.939	0.652	tomspunt	self-protection?	why_hand	no	no	correct	task-tomspunt/H_532.jpg	252
587.906	0.659	tomspunt	self-protection?	why_hand	yes	yes	correct	task-tomspunt/H_038.jpg	253
588.873	0.809	tomspunt	self-protection?	why_hand	no	no	correct	task-tomspunt/H_006.jpg	254
589.99	0.876	tomspunt	self-protection?	why_hand	no	no	correct	task-tomspunt/H_332.jpg	255
591.174	0.585	tomspunt	self-protection?	why_hand	yes	yes	correct	task-tomspunt/H_581.jpg	256
