onset	duration	run_type	trial_type	trial_index	cue	stimulusintensity	rating_value	rating_glmslabel	rating_value_fillna	rating_glmslabel_fillna	rating_mouseonset	rating_mousedur	stim_file	pain_onset_ttl1	pain_onset_ttl2	pain_onset_ttl3	pain_onset_ttl4	pain_stimulus_delivery_success	cognitive_correct_response	cognitive_participant_response	cognitive_response_accuracy
11.31	0.99	vicarious	cue	1	high_cue	n/a	n/a	n/a	n/a	n/a	n/a	n/a	task-social/cue/runtype-vicarious/sch/h042.png	n/a	n/a	n/a	n/a	n/a	n/a	n/a	n/a
14.25	2.87	vicarious	expectrating	1	high_cue	n/a	44.84	Strong	44.84	Strong	0.03	2.84	task-social/cue/runtype-vicarious/sch/h042.png	n/a	n/a	n/a	n/a	n/a	n/a	n/a	n/a
21.3	5.0	vicarious	stimulus	1	high_cue	high_stim	n/a	n/a	n/a	n/a	n/a	n/a	task-social/stim/runtype-vicarious/bn080t1afaff_H.mp4	n/a	n/a	n/a	n/a	n/a	n/a	n/a	n/a
32.72	3.45	vicarious	outcomerating	1	high_cue	high_stim	28.0	Moderate	28.0	Moderate	0.03	2.84	task-social/outcomerating/task-vicarious_scale.png	n/a	n/a	n/a	n/a	n/a	n/a	n/a	n/a
44.31	0.99	vicarious	cue	2	low_cue	n/a	n/a	n/a	n/a	n/a	n/a	n/a	task-social/cue/runtype-vicarious/scl/l003.png	n/a	n/a	n/a	n/a	n/a	n/a	n/a	n/a
47.21	3.2	vicarious	expectrating	2	low_cue	n/a	9.01	Weak	9.01	Weak	0.13	3.07	task-social/cue/runtype-vicarious/scl/l003.png	n/a	n/a	n/a	n/a	n/a	n/a	n/a	n/a
61.4	5.0	vicarious	stimulus	2	low_cue	high_stim	n/a	n/a	n/a	n/a	n/a	n/a	task-social/stim/runtype-vicarious/vw121t1aaaff_H.mp4	n/a	n/a	n/a	n/a	n/a	n/a	n/a	n/a
70.74	2.8	vicarious	outcomerating	2	low_cue	high_stim	4.13	Weak	4.13	Weak	0.13	3.07	task-social/outcomerating/task-vicarious_scale.png	n/a	n/a	n/a	n/a	n/a	n/a	n/a	n/a
80.71	0.99	vicarious	cue	3	high_cue	n/a	n/a	n/a	n/a	n/a	n/a	n/a	task-social/cue/runtype-vicarious/sch/h018.png	n/a	n/a	n/a	n/a	n/a	n/a	n/a	n/a
83.72	2.83	vicarious	expectrating	3	high_cue	n/a	30.37	Strong	30.37	Strong	0.47	2.37	task-social/cue/runtype-vicarious/sch/h018.png	n/a	n/a	n/a	n/a	n/a	n/a	n/a	n/a
92.0	5.0	vicarious	stimulus	3	high_cue	high_stim	n/a	n/a	n/a	n/a	n/a	n/a	task-social/stim/runtype-vicarious/mg101t2aeaff_H.mp4	n/a	n/a	n/a	n/a	n/a	n/a	n/a	n/a
100.63	3.74	vicarious	outcomerating	3	high_cue	high_stim	13.7	Moderate	13.7	Moderate	0.47	2.37	task-social/outcomerating/task-vicarious_scale.png	n/a	n/a	n/a	n/a	n/a	n/a	n/a	n/a
105.62	0.98	vicarious	cue	4	low_cue	n/a	n/a	n/a	n/a	n/a	n/a	n/a	task-social/cue/runtype-vicarious/scl/l014.png	n/a	n/a	n/a	n/a	n/a	n/a	n/a	n/a
107.42	n/a	vicarious	expectrating	4	low_cue	n/a	n/a	n/a	8.1	Weak	0.92	3.58	task-social/cue/runtype-vicarious/scl/l014.png	n/a	n/a	n/a	n/a	n/a	n/a	n/a	n/a
114.5	5.0	vicarious	stimulus	4	low_cue	med_stim	n/a	n/a	n/a	n/a	n/a	n/a	task-social/stim/runtype-vicarious/mg101t2aeunaff_M.mp4	n/a	n/a	n/a	n/a	n/a	n/a	n/a	n/a
126.12	1.67	vicarious	outcomerating	4	low_cue	med_stim	2.76	Barely detectable	2.76	Barely detectable	0.92	3.58	task-social/outcomerating/task-vicarious_scale.png	n/a	n/a	n/a	n/a	n/a	n/a	n/a	n/a
133.81	0.99	vicarious	cue	5	high_cue	n/a	n/a	n/a	n/a	n/a	n/a	n/a	task-social/cue/runtype-vicarious/sch/h003.png	n/a	n/a	n/a	n/a	n/a	n/a	n/a	n/a
135.61	1.77	vicarious	expectrating	5	high_cue	n/a	26.46	Moderate	26.46	Moderate	0.43	1.33	task-social/cue/runtype-vicarious/sch/h003.png	n/a	n/a	n/a	n/a	n/a	n/a	n/a	n/a
147.91	5.0	vicarious	stimulus	5	high_cue	low_stim	n/a	n/a	n/a	n/a	n/a	n/a	task-social/stim/runtype-vicarious/bg096t2afunaff_L.mp4	n/a	n/a	n/a	n/a	n/a	n/a	n/a	n/a
159.54	2.22	vicarious	outcomerating	5	high_cue	low_stim	10.14	Moderate	10.14	Moderate	0.43	1.33	task-social/outcomerating/task-vicarious_scale.png	n/a	n/a	n/a	n/a	n/a	n/a	n/a	n/a
169.51	0.99	vicarious	cue	6	high_cue	n/a	n/a	n/a	n/a	n/a	n/a	n/a	task-social/cue/runtype-vicarious/sch/h049.png	n/a	n/a	n/a	n/a	n/a	n/a	n/a	n/a
172.41	1.8	vicarious	expectrating	6	high_cue	n/a	36.27	Strong	36.27	Strong	0.27	1.53	task-social/cue/runtype-vicarious/sch/h049.png	n/a	n/a	n/a	n/a	n/a	n/a	n/a	n/a
186.9	5.0	vicarious	stimulus	6	high_cue	med_stim	n/a	n/a	n/a	n/a	n/a	n/a	task-social/stim/runtype-vicarious/ib109t1afaff_M.mp4	n/a	n/a	n/a	n/a	n/a	n/a	n/a	n/a
196.72	2.72	vicarious	outcomerating	6	high_cue	med_stim	6.95	Weak	6.95	Weak	0.27	1.53	task-social/outcomerating/task-vicarious_scale.png	n/a	n/a	n/a	n/a	n/a	n/a	n/a	n/a
204.4	1.0	vicarious	cue	7	low_cue	n/a	n/a	n/a	n/a	n/a	n/a	n/a	task-social/cue/runtype-vicarious/scl/l013.png	n/a	n/a	n/a	n/a	n/a	n/a	n/a	n/a
207.32	2.62	vicarious	expectrating	7	low_cue	n/a	6.7	Weak	6.7	Weak	0.52	2.1	task-social/cue/runtype-vicarious/scl/l013.png	n/a	n/a	n/a	n/a	n/a	n/a	n/a	n/a
218.4	5.0	vicarious	stimulus	7	low_cue	high_stim	n/a	n/a	n/a	n/a	n/a	n/a	task-social/stim/runtype-vicarious/ch092t2aiaff_H.mp4	n/a	n/a	n/a	n/a	n/a	n/a	n/a	n/a
228.43	2.22	vicarious	outcomerating	7	low_cue	high_stim	8.33	Weak	8.33	Weak	0.52	2.1	task-social/outcomerating/task-vicarious_scale.png	n/a	n/a	n/a	n/a	n/a	n/a	n/a	n/a
234.31	0.98	vicarious	cue	8	high_cue	n/a	n/a	n/a	n/a	n/a	n/a	n/a	task-social/cue/runtype-vicarious/sch/h028.png	n/a	n/a	n/a	n/a	n/a	n/a	n/a	n/a
236.22	1.95	vicarious	expectrating	8	high_cue	n/a	13.7	Moderate	13.7	Moderate	0.48	1.47	task-social/cue/runtype-vicarious/sch/h028.png	n/a	n/a	n/a	n/a	n/a	n/a	n/a	n/a
244.9	5.0	vicarious	stimulus	8	high_cue	low_stim	n/a	n/a	n/a	n/a	n/a	n/a	task-social/stim/runtype-vicarious/mg101t2afunaff_L.mp4	n/a	n/a	n/a	n/a	n/a	n/a	n/a	n/a
255.72	1.68	vicarious	outcomerating	8	high_cue	low_stim	0.69	No sensation	0.69	No sensation	0.48	1.47	task-social/outcomerating/task-vicarious_scale.png	n/a	n/a	n/a	n/a	n/a	n/a	n/a	n/a
266.71	0.99	vicarious	cue	9	low_cue	n/a	n/a	n/a	n/a	n/a	n/a	n/a	task-social/cue/runtype-vicarious/scl/l010.png	n/a	n/a	n/a	n/a	n/a	n/a	n/a	n/a
268.51	1.7	vicarious	expectrating	9	low_cue	n/a	3.22	Weak	3.22	Weak	0.62	1.08	task-social/cue/runtype-vicarious/scl/l010.png	n/a	n/a	n/a	n/a	n/a	n/a	n/a	n/a
280.8	5.0	vicarious	stimulus	9	low_cue	low_stim	n/a	n/a	n/a	n/a	n/a	n/a	task-social/stim/runtype-vicarious/ib109t1aiunaff_L.mp4	n/a	n/a	n/a	n/a	n/a	n/a	n/a	n/a
289.02	1.11	vicarious	outcomerating	9	low_cue	low_stim	1.15	Barely detectable	1.15	Barely detectable	0.62	1.08	task-social/outcomerating/task-vicarious_scale.png	n/a	n/a	n/a	n/a	n/a	n/a	n/a	n/a
294.8	1.0	vicarious	cue	10	high_cue	n/a	n/a	n/a	n/a	n/a	n/a	n/a	task-social/cue/runtype-vicarious/sch/h038.png	n/a	n/a	n/a	n/a	n/a	n/a	n/a	n/a
297.32	2.12	vicarious	expectrating	10	high_cue	n/a	7.15	Weak	7.15	Weak	0.48	1.64	task-social/cue/runtype-vicarious/sch/h038.png	n/a	n/a	n/a	n/a	n/a	n/a	n/a	n/a
307.9	5.0	vicarious	stimulus	10	high_cue	med_stim	n/a	n/a	n/a	n/a	n/a	n/a	task-social/stim/runtype-vicarious/jk103t2aaunaff_M.mp4	n/a	n/a	n/a	n/a	n/a	n/a	n/a	n/a
317.23	1.58	vicarious	outcomerating	10	high_cue	med_stim	4.13	Weak	4.13	Weak	0.48	1.64	task-social/outcomerating/task-vicarious_scale.png	n/a	n/a	n/a	n/a	n/a	n/a	n/a	n/a
327.12	0.98	vicarious	cue	11	low_cue	n/a	n/a	n/a	n/a	n/a	n/a	n/a	task-social/cue/runtype-vicarious/scl/l016.png	n/a	n/a	n/a	n/a	n/a	n/a	n/a	n/a
330.02	1.92	vicarious	expectrating	11	low_cue	n/a	1.4	Barely detectable	1.4	Barely detectable	0.52	1.41	task-social/cue/runtype-vicarious/scl/l016.png	n/a	n/a	n/a	n/a	n/a	n/a	n/a	n/a
342.9	5.0	vicarious	stimulus	11	low_cue	med_stim	n/a	n/a	n/a	n/a	n/a	n/a	task-social/stim/runtype-vicarious/bm049t2aeaff_M.mp4	n/a	n/a	n/a	n/a	n/a	n/a	n/a	n/a
361.53	2.15	vicarious	outcomerating	11	low_cue	med_stim	6.7	Weak	6.7	Weak	0.52	1.41	task-social/outcomerating/task-vicarious_scale.png	n/a	n/a	n/a	n/a	n/a	n/a	n/a	n/a
366.51	0.98	vicarious	cue	12	low_cue	n/a	n/a	n/a	n/a	n/a	n/a	n/a	task-social/cue/runtype-vicarious/scl/l034.png	n/a	n/a	n/a	n/a	n/a	n/a	n/a	n/a
369.42	1.6	vicarious	expectrating	12	low_cue	n/a	4.13	Weak	4.13	Weak	0.52	1.08	task-social/cue/runtype-vicarious/scl/l034.png	n/a	n/a	n/a	n/a	n/a	n/a	n/a	n/a
376.2	5.0	vicarious	stimulus	12	low_cue	low_stim	n/a	n/a	n/a	n/a	n/a	n/a	task-social/stim/runtype-vicarious/bn080t1afunaff_L.mp4	n/a	n/a	n/a	n/a	n/a	n/a	n/a	n/a
394.83	1.52	vicarious	outcomerating	12	low_cue	low_stim	2.31	Barely detectable	2.31	Barely detectable	0.52	1.08	task-social/outcomerating/task-vicarious_scale.png	n/a	n/a	n/a	n/a	n/a	n/a	n/a	n/a
