onset	duration	trial_type	response_angle	response_label	block_condition	mentalizing_level	stim_file
2.819	3.162	cue	n/a	n/a	likeability	n/a	n/a
5.98	5.827	video	n/a	n/a	likeability	n/a	task-shortvideos/ses-03_run-01_order-03_content-bestfriendsweating.mp4
11.889	2.169	rating	21.37	Moderate	likeability	n/a	n/a
12.672	1.385	rating_mouse_trajectory	21.37	Moderate	likeability	n/a	n/a
16.997	6.129	video	n/a	n/a	likeability	n/a	task-shortvideos/ses-03_run-01_order-14_content-alwaysafamily.mp4
23.193	1.585	rating	54.46	Strong	likeability	n/a	n/a
23.61	1.168	rating_mouse_trajectory	54.46	Strong	likeability	n/a	n/a
28.31	5.17	video	n/a	n/a	likeability	n/a	task-shortvideos/ses-03_run-01_order-13_content-wanderers.mp4
33.547	1.968	rating	85.68	Very strong	likeability	n/a	n/a
33.914	1.601	rating_mouse_trajectory	85.68	Very strong	likeability	n/a	n/a
38.565	3.149	cue	n/a	n/a	similarity	n/a	n/a
41.715	6.342	video	n/a	n/a	similarity	n/a	task-shortvideos/ses-03_run-01_order-17_content-freesolo.mp4
48.119	1.839	rating	37.01	Strong	similarity	n/a	n/a
48.386	1.572	rating_mouse_trajectory	37.01	Strong	similarity	n/a	n/a
53.228	5.163	video	n/a	n/a	similarity	n/a	task-shortvideos/ses-03_run-01_order-13_content-wanderers.mp4
58.473	1.951	rating	25.29	Moderate	similarity	n/a	n/a
58.906	1.518	rating_mouse_trajectory	25.29	Moderate	similarity	n/a	n/a
63.567	5.841	video	n/a	n/a	similarity	n/a	task-shortvideos/ses-03_run-01_order-03_content-bestfriendsweating.mp4
69.477	1.235	rating	5.04	Weak	similarity	n/a	n/a
69.794	0.918	rating_mouse_trajectory	5.04	Weak	similarity	n/a	n/a
74.495	3.118	cue	n/a	n/a	mentalizing	remember	n/a
77.613	5.227	video	n/a	n/a	mentalizing	remember	task-shortvideos/ses-03_run-01_order-10_content-captureflag.mp4
82.899	3.042	rating	0.0	No sensation	mentalizing	remember	n/a
83.682	2.259	rating_mouse_trajectory	0.0	No sensation	mentalizing	remember	n/a
87.985	5.506	video	n/a	n/a	mentalizing	remember	task-shortvideos/ses-03_run-01_order-15_content-giving.mp4
93.553	2.005	rating	124.59	Strongest possible	mentalizing	remember	n/a
94.053	1.505	rating_mouse_trajectory	124.59	Strongest possible	mentalizing	remember	n/a
98.658	5.566	video	n/a	n/a	mentalizing	remember	task-shortvideos/ses-03_run-01_order-11_content-menrunning.mp4
104.29	0.984	rating	3.45	Weak	mentalizing	remember	n/a
104.723	0.551	rating_mouse_trajectory	3.45	Weak	mentalizing	remember	n/a
109.308	3.17	cue	n/a	n/a	likeability	n/a	n/a
112.478	4.083	video	n/a	n/a	likeability	n/a	task-shortvideos/ses-03_run-01_order-05_content-parkour.mp4
116.628	2.018	rating	20.32	Moderate	likeability	n/a	n/a
116.995	1.651	rating_mouse_trajectory	20.32	Moderate	likeability	n/a	n/a
121.705	5.502	video	n/a	n/a	likeability	n/a	task-shortvideos/ses-03_run-01_order-15_content-giving.mp4
127.265	1.392	rating	41.67	Strong	likeability	n/a	n/a
127.748	0.909	rating_mouse_trajectory	41.67	Strong	likeability	n/a	n/a
132.372	6.352	video	n/a	n/a	likeability	n/a	task-shortvideos/ses-03_run-01_order-17_content-freesolo.mp4
138.786	2.188	rating	127.57	Strongest possible	likeability	n/a	n/a
139.069	1.905	rating_mouse_trajectory	127.57	Strongest possible	likeability	n/a	n/a
143.821	3.17	cue	n/a	n/a	similarity	n/a	n/a
146.992	5.567	video	n/a	n/a	similarity	n/a	task-shortvideos/ses-03_run-01_order-20_content-cupstacking.mp4
152.625	1.567	rating	6.39	Weak	similarity	n/a	n/a
153.425	0.767	rating_mouse_trajectory	6.39	Weak	similarity	n/a	n/a
157.741	5.321	video	n/a	n/a	similarity	n/a	task-shortvideos/ses-03_run-01_order-18_content-angrygrandpa.mp4
163.129	1.818	rating	11.04	Moderate	similarity	n/a	n/a
163.645	1.301	rating_mouse_trajectory	11.04	Moderate	similarity	n/a	n/a
168.234	4.082	video	n/a	n/a	similarity	n/a	task-shortvideos/ses-03_run-01_order-05_content-parkour.mp4
172.382	1.959	rating	7.18	Weak	similarity	n/a	n/a
173.015	1.325	rating_mouse_trajectory	7.18	Weak	similarity	n/a	n/a
177.401	3.159	cue	n/a	n/a	likeability	n/a	n/a
180.559	5.015	video	n/a	n/a	likeability	n/a	task-shortvideos/ses-03_run-01_order-21_content-iceblock.mp4
185.637	1.587	rating	59.85	Strong	likeability	n/a	n/a
186.387	0.837	rating_mouse_trajectory	59.85	Strong	likeability	n/a	n/a
190.753	5.038	video	n/a	n/a	likeability	n/a	task-shortvideos/ses-03_run-01_order-01_content-visswar.mp4
195.857	0.901	rating	4.59	Weak	likeability	n/a	n/a
196.024	0.734	rating_mouse_trajectory	4.59	Weak	likeability	n/a	n/a
200.96	5.552	video	n/a	n/a	likeability	n/a	task-shortvideos/ses-03_run-01_order-11_content-menrunning.mp4
206.578	1.468	rating	12.34	Moderate	likeability	n/a	n/a
207.211	0.834	rating_mouse_trajectory	12.34	Moderate	likeability	n/a	n/a
211.597	3.127	cue	n/a	n/a	similarity	n/a	n/a
214.724	5.8	video	n/a	n/a	similarity	n/a	task-shortvideos/ses-03_run-01_order-16_content-huggingpets.mp4
220.583	1.858	rating	52.39	Strong	similarity	n/a	n/a
220.883	1.558	rating_mouse_trajectory	52.39	Strong	similarity	n/a	n/a
225.664	5.293	video	n/a	n/a	similarity	n/a	task-shortvideos/ses-03_run-01_order-07_content-youth.mp4
231.021	0.787	rating	3.67	Weak	similarity	n/a	n/a
231.071	0.737	rating_mouse_trajectory	3.67	Weak	similarity	n/a	n/a
236.103	6.189	video	n/a	n/a	similarity	n/a	task-shortvideos/ses-03_run-01_order-08_content-dancewithdeath.mp4
242.358	1.984	rating	7.44	Weak	similarity	n/a	n/a
242.941	1.401	rating_mouse_trajectory	7.44	Weak	similarity	n/a	n/a
247.377	3.152	cue	n/a	n/a	mentalizing	danger	n/a
250.529	6.346	video	n/a	n/a	mentalizing	danger	task-shortvideos/ses-03_run-01_order-17_content-freesolo.mp4
256.93	3.811	rating	41.67	Strong	mentalizing	danger	n/a
257.747	2.994	rating_mouse_trajectory	41.67	Strong	mentalizing	danger	n/a
262.0	5.301	video	n/a	n/a	mentalizing	danger	task-shortvideos/ses-03_run-01_order-07_content-youth.mp4
267.367	2.523	rating	28.03	Moderate	mentalizing	danger	n/a
268.067	1.823	rating_mouse_trajectory	28.03	Moderate	mentalizing	danger	n/a
272.498	5.109	video	n/a	n/a	mentalizing	danger	task-shortvideos/ses-03_run-01_order-06_content-war.mp4
277.671	1.436	rating	166.64	Strongest possible	mentalizing	danger	n/a
278.121	0.986	rating_mouse_trajectory	166.64	Strongest possible	mentalizing	danger	n/a
282.69	3.113	cue	n/a	n/a	likeability	n/a	n/a
285.802	5.224	video	n/a	n/a	likeability	n/a	task-shortvideos/ses-03_run-01_order-10_content-captureflag.mp4
291.076	1.151	rating	8.5	Weak	likeability	n/a	n/a
291.443	0.784	rating_mouse_trajectory	8.5	Weak	likeability	n/a	n/a
296.154	5.303	video	n/a	n/a	likeability	n/a	task-shortvideos/ses-03_run-01_order-07_content-youth.mp4
301.513	1.177	rating	6.84	Weak	likeability	n/a	n/a
301.563	1.127	rating_mouse_trajectory	6.84	Weak	likeability	n/a	n/a
306.679	6.672	video	n/a	n/a	likeability	n/a	task-shortvideos/ses-03_run-01_order-02_content-HB.mp4
313.418	1.034	rating	0.0	No sensation	likeability	n/a	n/a
313.785	0.667	rating_mouse_trajectory	0.0	No sensation	likeability	n/a	n/a
318.436	3.14	cue	n/a	n/a	similarity	n/a	n/a
321.577	5.047	video	n/a	n/a	similarity	n/a	task-shortvideos/ses-03_run-01_order-01_content-visswar.mp4
326.69	1.718	rating	3.23	Weak	similarity	n/a	n/a
327.14	1.268	rating_mouse_trajectory	3.23	Weak	similarity	n/a	n/a
331.764	5.226	video	n/a	n/a	similarity	n/a	task-shortvideos/ses-03_run-01_order-10_content-captureflag.mp4
337.06	1.868	rating	11.85	Moderate	similarity	n/a	n/a
337.51	1.418	rating_mouse_trajectory	11.85	Moderate	similarity	n/a	n/a
342.153	5.011	video	n/a	n/a	similarity	n/a	task-shortvideos/ses-03_run-01_order-12_content-photography.mp4
347.231	1.301	rating	50.98	Strong	similarity	n/a	n/a
347.564	0.967	rating_mouse_trajectory	50.98	Strong	similarity	n/a	n/a
352.266	3.116	cue	n/a	n/a	mentalizing	tired	n/a
355.382	6.192	video	n/a	n/a	mentalizing	tired	task-shortvideos/ses-03_run-01_order-08_content-dancewithdeath.mp4
361.636	3.138	rating	14.87	Moderate	mentalizing	tired	n/a
362.936	1.838	rating_mouse_trajectory	14.87	Moderate	mentalizing	tired	n/a
366.734	5.007	video	n/a	n/a	mentalizing	tired	task-shortvideos/ses-03_run-01_order-12_content-photography.mp4
371.806	1.384	rating	4.56	Weak	mentalizing	tired	n/a
372.206	0.984	rating_mouse_trajectory	4.56	Weak	mentalizing	tired	n/a
376.914	5.563	video	n/a	n/a	mentalizing	tired	task-shortvideos/ses-03_run-01_order-20_content-cupstacking.mp4
382.544	1.384	rating	4.84	Weak	mentalizing	tired	n/a
382.927	1.001	rating_mouse_trajectory	4.84	Weak	mentalizing	tired	n/a
387.562	3.136	cue	n/a	n/a	similarity	n/a	n/a
390.698	5.559	video	n/a	n/a	similarity	n/a	task-shortvideos/ses-03_run-01_order-11_content-menrunning.mp4
396.315	2.575	rating	7.24	Weak	similarity	n/a	n/a
396.549	2.342	rating_mouse_trajectory	7.24	Weak	similarity	n/a	n/a
401.416	5.191	video	n/a	n/a	similarity	n/a	task-shortvideos/ses-03_run-01_order-09_content-knifegame.mp4
406.669	2.488	rating	0.0	No sensation	similarity	n/a	n/a
407.119	2.038	rating_mouse_trajectory	0.0	No sensation	similarity	n/a	n/a
411.747	5.394	video	n/a	n/a	similarity	n/a	task-shortvideos/ses-03_run-01_order-19_content-beatbox.mp4
417.207	2.251	rating	4.0	Weak	similarity	n/a	n/a
417.673	1.784	rating_mouse_trajectory	4.0	Weak	similarity	n/a	n/a
422.242	3.142	cue	n/a	n/a	mentalizing	heights	n/a
425.384	5.194	video	n/a	n/a	mentalizing	heights	task-shortvideos/ses-03_run-01_order-09_content-knifegame.mp4
430.645	3.551	rating	6.47	Weak	mentalizing	heights	n/a
432.212	1.985	rating_mouse_trajectory	6.47	Weak	mentalizing	heights	n/a
435.737	5.837	video	n/a	n/a	mentalizing	heights	task-shortvideos/ses-03_run-01_order-03_content-bestfriendsweating.mp4
441.632	1.158	rating	3.22	Weak	mentalizing	heights	n/a
442.066	0.725	rating_mouse_trajectory	3.22	Weak	mentalizing	heights	n/a
446.748	5.022	video	n/a	n/a	mentalizing	heights	task-shortvideos/ses-03_run-01_order-21_content-iceblock.mp4
451.836	1.371	rating	8.34	Weak	mentalizing	heights	n/a
452.57	0.638	rating_mouse_trajectory	8.34	Weak	mentalizing	heights	n/a
456.855	3.126	cue	n/a	n/a	likeability	n/a	n/a
459.98	6.195	video	n/a	n/a	likeability	n/a	task-shortvideos/ses-03_run-01_order-08_content-dancewithdeath.mp4
466.242	1.901	rating	9.62	Weak	likeability	n/a	n/a
466.742	1.401	rating_mouse_trajectory	9.62	Weak	likeability	n/a	n/a
471.354	5.559	video	n/a	n/a	likeability	n/a	task-shortvideos/ses-03_run-01_order-20_content-cupstacking.mp4
476.979	1.951	rating	0.0	No sensation	likeability	n/a	n/a
477.362	1.568	rating_mouse_trajectory	0.0	No sensation	likeability	n/a	n/a
482.12	5.113	video	n/a	n/a	likeability	n/a	task-shortvideos/ses-03_run-01_order-06_content-war.mp4
487.299	1.558	rating	12.63	Moderate	likeability	n/a	n/a
487.916	0.942	rating_mouse_trajectory	12.63	Moderate	likeability	n/a	n/a
492.318	3.137	cue	n/a	n/a	mentalizing	angry	n/a
495.455	4.083	video	n/a	n/a	mentalizing	angry	task-shortvideos/ses-03_run-01_order-05_content-parkour.mp4
499.621	2.32	rating	29.97	Strong	mentalizing	angry	n/a
500.637	1.303	rating_mouse_trajectory	29.97	Strong	mentalizing	angry	n/a
504.757	6.668	video	n/a	n/a	mentalizing	angry	task-shortvideos/ses-03_run-01_order-02_content-HB.mp4
511.492	2.601	rating	88.5	Very strong	mentalizing	angry	n/a
511.975	2.118	rating_mouse_trajectory	88.5	Very strong	mentalizing	angry	n/a
516.612	5.167	video	n/a	n/a	mentalizing	angry	task-shortvideos/ses-03_run-01_order-13_content-wanderers.mp4
521.846	2.284	rating	3.48	Weak	mentalizing	angry	n/a
522.446	1.684	rating_mouse_trajectory	3.48	Weak	mentalizing	angry	n/a
526.864	3.133	cue	n/a	n/a	likeability	n/a	n/a
529.997	5.01	video	n/a	n/a	likeability	n/a	task-shortvideos/ses-03_run-01_order-12_content-photography.mp4
535.067	2.374	rating	89.45	Very strong	likeability	n/a	n/a
535.484	1.957	rating_mouse_trajectory	89.45	Very strong	likeability	n/a	n/a
540.147	5.394	video	n/a	n/a	likeability	n/a	task-shortvideos/ses-03_run-01_order-19_content-beatbox.mp4
545.621	1.07	rating	59.25	Strong	likeability	n/a	n/a
545.971	0.72	rating_mouse_trajectory	59.25	Strong	likeability	n/a	n/a
550.733	5.326	video	n/a	n/a	likeability	n/a	task-shortvideos/ses-03_run-01_order-18_content-angrygrandpa.mp4
556.125	2.068	rating	65.44	Very strong	likeability	n/a	n/a
556.458	1.734	rating_mouse_trajectory	65.44	Very strong	likeability	n/a	n/a
561.144	3.176	cue	n/a	n/a	similarity	n/a	n/a
564.319	5.122	video	n/a	n/a	similarity	n/a	task-shortvideos/ses-03_run-01_order-06_content-war.mp4
569.497	3.111	rating	4.4	Weak	similarity	n/a	n/a
570.58	2.027	rating_mouse_trajectory	4.4	Weak	similarity	n/a	n/a
574.601	6.84	video	n/a	n/a	similarity	n/a	task-shortvideos/ses-03_run-01_order-04_content-unefille.mp4
581.501	1.656	rating	5.55	Weak	similarity	n/a	n/a
582.001	1.156	rating_mouse_trajectory	5.55	Weak	similarity	n/a	n/a
586.638	6.669	video	n/a	n/a	similarity	n/a	task-shortvideos/ses-03_run-01_order-02_content-HB.mp4
593.372	1.568	rating	0.0	No sensation	similarity	n/a	n/a
593.872	1.068	rating_mouse_trajectory	0.0	No sensation	similarity	n/a	n/a
598.391	3.112	cue	n/a	n/a	mentalizing	calm	n/a
601.503	5.791	video	n/a	n/a	mentalizing	calm	task-shortvideos/ses-03_run-01_order-16_content-huggingpets.mp4
607.344	2.101	rating	146.17	Strongest possible	mentalizing	calm	n/a
607.544	1.901	rating_mouse_trajectory	146.17	Strongest possible	mentalizing	calm	n/a
612.437	6.845	video	n/a	n/a	mentalizing	calm	task-shortvideos/ses-03_run-01_order-04_content-unefille.mp4
619.349	2.818	rating	55.89	Strong	mentalizing	calm	n/a
619.632	2.535	rating_mouse_trajectory	55.89	Strong	mentalizing	calm	n/a
624.453	5.049	video	n/a	n/a	mentalizing	calm	task-shortvideos/ses-03_run-01_order-01_content-visswar.mp4
629.552	0.905	rating	2.1	Barely detectable	mentalizing	calm	n/a
629.752	0.705	rating_mouse_trajectory	2.1	Barely detectable	mentalizing	calm	n/a
634.588	3.149	cue	n/a	n/a	similarity	n/a	n/a
637.737	5.021	video	n/a	n/a	similarity	n/a	task-shortvideos/ses-03_run-01_order-21_content-iceblock.mp4
642.824	2.118	rating	41.31	Strong	similarity	n/a	n/a
643.691	1.251	rating_mouse_trajectory	41.31	Strong	similarity	n/a	n/a
647.89	5.505	video	n/a	n/a	similarity	n/a	task-shortvideos/ses-03_run-01_order-15_content-giving.mp4
653.461	1.151	rating	9.89	Weak	similarity	n/a	n/a
653.978	0.634	rating_mouse_trajectory	9.89	Weak	similarity	n/a	n/a
658.569	6.122	video	n/a	n/a	similarity	n/a	task-shortvideos/ses-03_run-01_order-14_content-alwaysafamily.mp4
664.766	1.551	rating	0.0	No sensation	similarity	n/a	n/a
665.232	1.084	rating_mouse_trajectory	0.0	No sensation	similarity	n/a	n/a
669.801	3.145	cue	n/a	n/a	likeability	n/a	n/a
672.945	6.845	video	n/a	n/a	likeability	n/a	task-shortvideos/ses-03_run-01_order-04_content-unefille.mp4
679.855	1.92	rating	57.14	Strong	likeability	n/a	n/a
680.205	1.57	rating_mouse_trajectory	57.14	Strong	likeability	n/a	n/a
684.953	5.189	video	n/a	n/a	likeability	n/a	task-shortvideos/ses-03_run-01_order-09_content-knifegame.mp4
690.208	1.651	rating	2.9	Barely detectable	likeability	n/a	n/a
690.642	1.218	rating_mouse_trajectory	2.9	Barely detectable	likeability	n/a	n/a
695.288	5.792	video	n/a	n/a	likeability	n/a	task-shortvideos/ses-03_run-01_order-16_content-huggingpets.mp4
701.146	1.784	rating	60.38	Strong	likeability	n/a	n/a
701.446	1.484	rating_mouse_trajectory	60.38	Strong	likeability	n/a	n/a
706.164	3.115	cue	n/a	n/a	mentalizing	enjoy	n/a
709.279	5.395	video	n/a	n/a	mentalizing	enjoy	task-shortvideos/ses-03_run-01_order-19_content-beatbox.mp4
714.734	2.573	rating	109.64	Strongest possible	mentalizing	enjoy	n/a
715.484	1.823	rating_mouse_trajectory	109.64	Strongest possible	mentalizing	enjoy	n/a
719.849	5.325	video	n/a	n/a	mentalizing	enjoy	task-shortvideos/ses-03_run-01_order-18_content-angrygrandpa.mp4
725.238	2.053	rating	4.21	Weak	mentalizing	enjoy	n/a
725.571	1.719	rating_mouse_trajectory	4.21	Weak	mentalizing	enjoy	n/a
730.344	6.115	video	n/a	n/a	mentalizing	enjoy	task-shortvideos/ses-03_run-01_order-14_content-alwaysafamily.mp4
736.526	1.768	rating	1.16	Barely detectable	mentalizing	enjoy	n/a
736.792	1.501	rating_mouse_trajectory	1.16	Barely detectable	mentalizing	enjoy	n/a
