onset	duration	run_type	trial_type	trial_index	cue	stimulusintensity	rating_value	rating_glmslabel	rating_value_fillna	rating_glmslabel_fillna	rating_mouseonset	rating_mousedur	stim_file	pain_onset_ttl1	pain_onset_ttl2	pain_onset_ttl3	pain_onset_ttl4	pain_stimulus_delivery_success	cognitive_correct_response	cognitive_participant_response	cognitive_response_accuracy
4.09	0.98	cognitive	cue	1	high_cue	n/a	n/a	n/a	n/a	n/a	n/a	n/a	task-social/cue/runtype-cognitive/sch/h021.png	n/a	n/a	n/a	n/a	n/a	n/a	n/a	n/a
7.19	1.75	cognitive	expectrating	1	high_cue	n/a	31.42	Strong	31.42	Strong	0.2	1.55	task-social/cue/runtype-cognitive/sch/h021.png	n/a	n/a	n/a	n/a	n/a	n/a	n/a	n/a
14.49	5.0	cognitive	stimulus	1	high_cue	med_stim	n/a	n/a	n/a	n/a	n/a	n/a	task-social/stim/runtype-cognitive/12_100_R.jpg	n/a	n/a	n/a	n/a	n/a	diff	diff	True
23.68	2.07	cognitive	outcomerating	1	high_cue	med_stim	9.81	Weak	9.81	Weak	0.2	1.55	task-social/outcomerating/task-cognitive_scale.png	n/a	n/a	n/a	n/a	n/a	n/a	n/a	n/a
33.48	0.98	cognitive	cue	2	low_cue	n/a	n/a	n/a	n/a	n/a	n/a	n/a	task-social/cue/runtype-cognitive/scl/l041.png	n/a	n/a	n/a	n/a	n/a	n/a	n/a	n/a
36.59	1.59	cognitive	expectrating	2	low_cue	n/a	10.18	Moderate	10.18	Moderate	0.05	1.54	task-social/cue/runtype-cognitive/scl/l041.png	n/a	n/a	n/a	n/a	n/a	n/a	n/a	n/a
49.49	5.0	cognitive	stimulus	2	low_cue	low_stim	n/a	n/a	n/a	n/a	n/a	n/a	task-social/stim/runtype-cognitive/34_50_R.jpg	n/a	n/a	n/a	n/a	n/a	diff	diff	True
62.38	1.68	cognitive	outcomerating	2	low_cue	low_stim	14.37	Moderate	14.37	Moderate	0.05	1.54	task-social/outcomerating/task-cognitive_scale.png	n/a	n/a	n/a	n/a	n/a	n/a	n/a	n/a
71.58	0.99	cognitive	cue	3	high_cue	n/a	n/a	n/a	n/a	n/a	n/a	n/a	task-social/cue/runtype-cognitive/sch/h026.png	n/a	n/a	n/a	n/a	n/a	n/a	n/a	n/a
73.58	1.57	cognitive	expectrating	3	high_cue	n/a	11.67	Moderate	11.67	Moderate	0.7	0.87	task-social/cue/runtype-cognitive/sch/h026.png	n/a	n/a	n/a	n/a	n/a	n/a	n/a	n/a
86.49	5.0	cognitive	stimulus	3	high_cue	low_stim	n/a	n/a	n/a	n/a	n/a	n/a	task-social/stim/runtype-cognitive/12_50_R.jpg	n/a	n/a	n/a	n/a	n/a	diff	diff	True
97.09	1.1	cognitive	outcomerating	3	high_cue	low_stim	9.85	Weak	9.85	Weak	0.7	0.87	task-social/outcomerating/task-cognitive_scale.png	n/a	n/a	n/a	n/a	n/a	n/a	n/a	n/a
105.58	0.99	cognitive	cue	4	high_cue	n/a	n/a	n/a	n/a	n/a	n/a	n/a	task-social/cue/runtype-cognitive/sch/h053.png	n/a	n/a	n/a	n/a	n/a	n/a	n/a	n/a
108.68	2.73	cognitive	expectrating	4	high_cue	n/a	15.21	Moderate	15.21	Moderate	0.83	1.9	task-social/cue/runtype-cognitive/sch/h053.png	n/a	n/a	n/a	n/a	n/a	n/a	n/a	n/a
119.88	5.0	cognitive	stimulus	4	high_cue	high_stim	n/a	n/a	n/a	n/a	n/a	n/a	task-social/stim/runtype-cognitive/34_150.jpg	n/a	n/a	n/a	n/a	n/a	same	same	True
127.49	1.74	cognitive	outcomerating	4	high_cue	high_stim	10.9	Moderate	10.9	Moderate	0.83	1.9	task-social/outcomerating/task-cognitive_scale.png	n/a	n/a	n/a	n/a	n/a	n/a	n/a	n/a
132.79	0.98	cognitive	cue	5	high_cue	n/a	n/a	n/a	n/a	n/a	n/a	n/a	task-social/cue/runtype-cognitive/sch/h008.png	n/a	n/a	n/a	n/a	n/a	n/a	n/a	n/a
135.89	1.33	cognitive	expectrating	5	high_cue	n/a	11.13	Moderate	11.13	Moderate	0.33	1.0	task-social/cue/runtype-cognitive/sch/h008.png	n/a	n/a	n/a	n/a	n/a	n/a	n/a	n/a
143.18	5.0	cognitive	stimulus	5	high_cue	low_stim	n/a	n/a	n/a	n/a	n/a	n/a	task-social/stim/runtype-cognitive/43_50_R.jpg	n/a	n/a	n/a	n/a	n/a	diff	diff	True
152.4	2.27	cognitive	outcomerating	5	high_cue	low_stim	7.9	Weak	7.9	Weak	0.33	1.0	task-social/outcomerating/task-cognitive_scale.png	n/a	n/a	n/a	n/a	n/a	n/a	n/a	n/a
163.28	0.99	cognitive	cue	6	high_cue	n/a	n/a	n/a	n/a	n/a	n/a	n/a	task-social/cue/runtype-cognitive/sch/h024.png	n/a	n/a	n/a	n/a	n/a	n/a	n/a	n/a
165.28	1.67	cognitive	expectrating	6	high_cue	n/a	11.08	Moderate	11.08	Moderate	0.05	1.62	task-social/cue/runtype-cognitive/sch/h024.png	n/a	n/a	n/a	n/a	n/a	n/a	n/a	n/a
176.49	5.0	cognitive	stimulus	6	high_cue	med_stim	n/a	n/a	n/a	n/a	n/a	n/a	task-social/stim/runtype-cognitive/27_100.jpg	n/a	n/a	n/a	n/a	n/a	same	same	True
184.49	2.7	cognitive	outcomerating	6	high_cue	med_stim	8.16	Weak	8.16	Weak	0.05	1.62	task-social/outcomerating/task-cognitive_scale.png	n/a	n/a	n/a	n/a	n/a	n/a	n/a	n/a
196.88	0.99	cognitive	cue	7	low_cue	n/a	n/a	n/a	n/a	n/a	n/a	n/a	task-social/cue/runtype-cognitive/scl/l021.png	n/a	n/a	n/a	n/a	n/a	n/a	n/a	n/a
199.28	1.44	cognitive	expectrating	7	low_cue	n/a	12.3	Moderate	12.3	Moderate	0.45	0.99	task-social/cue/runtype-cognitive/scl/l021.png	n/a	n/a	n/a	n/a	n/a	n/a	n/a	n/a
207.88	5.0	cognitive	stimulus	7	low_cue	high_stim	n/a	n/a	n/a	n/a	n/a	n/a	task-social/stim/runtype-cognitive/31_150_R.jpg	n/a	n/a	n/a	n/a	n/a	diff	same	False
224.39	1.85	cognitive	outcomerating	7	low_cue	high_stim	15.85	Moderate	15.85	Moderate	0.45	0.99	task-social/outcomerating/task-cognitive_scale.png	n/a	n/a	n/a	n/a	n/a	n/a	n/a	n/a
231.38	0.99	cognitive	cue	8	low_cue	n/a	n/a	n/a	n/a	n/a	n/a	n/a	task-social/cue/runtype-cognitive/scl/l027.png	n/a	n/a	n/a	n/a	n/a	n/a	n/a	n/a
234.28	2.45	cognitive	expectrating	8	low_cue	n/a	14.2	Moderate	14.2	Moderate	0.15	2.3	task-social/cue/runtype-cognitive/scl/l027.png	n/a	n/a	n/a	n/a	n/a	n/a	n/a	n/a
242.88	5.0	cognitive	stimulus	8	low_cue	med_stim	n/a	n/a	n/a	n/a	n/a	n/a	task-social/stim/runtype-cognitive/29_100_R.jpg	n/a	n/a	n/a	n/a	n/a	diff	same	False
256.98	1.84	cognitive	outcomerating	8	low_cue	med_stim	9.08	Weak	9.08	Weak	0.15	2.3	task-social/outcomerating/task-cognitive_scale.png	n/a	n/a	n/a	n/a	n/a	n/a	n/a	n/a
270.37	1.0	cognitive	cue	9	high_cue	n/a	n/a	n/a	n/a	n/a	n/a	n/a	task-social/cue/runtype-cognitive/sch/h031.png	n/a	n/a	n/a	n/a	n/a	n/a	n/a	n/a
272.19	1.55	cognitive	expectrating	9	high_cue	n/a	20.89	Moderate	20.89	Moderate	0.48	1.07	task-social/cue/runtype-cognitive/sch/h031.png	n/a	n/a	n/a	n/a	n/a	n/a	n/a	n/a
280.78	5.0	cognitive	stimulus	9	high_cue	high_stim	n/a	n/a	n/a	n/a	n/a	n/a	task-social/stim/runtype-cognitive/41_150_R.jpg	n/a	n/a	n/a	n/a	n/a	diff	diff	True
292.38	1.88	cognitive	outcomerating	9	high_cue	high_stim	12.75	Moderate	12.75	Moderate	0.48	1.07	task-social/outcomerating/task-cognitive_scale.png	n/a	n/a	n/a	n/a	n/a	n/a	n/a	n/a
297.68	0.99	cognitive	cue	10	low_cue	n/a	n/a	n/a	n/a	n/a	n/a	n/a	task-social/cue/runtype-cognitive/scl/l053.png	n/a	n/a	n/a	n/a	n/a	n/a	n/a	n/a
300.18	2.89	cognitive	expectrating	10	low_cue	n/a	10.41	Moderate	10.41	Moderate	0.45	2.44	task-social/cue/runtype-cognitive/scl/l053.png	n/a	n/a	n/a	n/a	n/a	n/a	n/a	n/a
308.29	5.0	cognitive	stimulus	10	low_cue	med_stim	n/a	n/a	n/a	n/a	n/a	n/a	task-social/stim/runtype-cognitive/8_100.jpg	n/a	n/a	n/a	n/a	n/a	same	same	True
317.99	2.88	cognitive	outcomerating	10	low_cue	med_stim	9.91	Weak	9.91	Weak	0.45	2.44	task-social/outcomerating/task-cognitive_scale.png	n/a	n/a	n/a	n/a	n/a	n/a	n/a	n/a
327.18	0.99	cognitive	cue	11	low_cue	n/a	n/a	n/a	n/a	n/a	n/a	n/a	task-social/cue/runtype-cognitive/scl/l003.png	n/a	n/a	n/a	n/a	n/a	n/a	n/a	n/a
329.08	1.63	cognitive	expectrating	11	low_cue	n/a	9.5	Weak	9.5	Weak	0.05	1.58	task-social/cue/runtype-cognitive/scl/l003.png	n/a	n/a	n/a	n/a	n/a	n/a	n/a	n/a
346.59	5.0	cognitive	stimulus	11	low_cue	low_stim	n/a	n/a	n/a	n/a	n/a	n/a	task-social/stim/runtype-cognitive/41_50.jpg	n/a	n/a	n/a	n/a	n/a	same	same	True
366.98	1.55	cognitive	outcomerating	11	low_cue	low_stim	2.76	Barely detectable	2.76	Barely detectable	0.05	1.58	task-social/outcomerating/task-cognitive_scale.png	n/a	n/a	n/a	n/a	n/a	n/a	n/a	n/a
372.58	0.99	cognitive	cue	12	low_cue	n/a	n/a	n/a	n/a	n/a	n/a	n/a	task-social/cue/runtype-cognitive/scl/l028.png	n/a	n/a	n/a	n/a	n/a	n/a	n/a	n/a
374.58	1.97	cognitive	expectrating	12	low_cue	n/a	10.49	Moderate	10.49	Moderate	0.45	1.52	task-social/cue/runtype-cognitive/scl/l028.png	n/a	n/a	n/a	n/a	n/a	n/a	n/a	n/a
386.38	5.0	cognitive	stimulus	12	low_cue	high_stim	n/a	n/a	n/a	n/a	n/a	n/a	task-social/stim/runtype-cognitive/8_150.jpg	n/a	n/a	n/a	n/a	n/a	same	same	True
394.39	1.72	cognitive	outcomerating	12	low_cue	high_stim	0.0	n/a	0.0	n/a	0.45	1.52	task-social/outcomerating/task-cognitive_scale.png	n/a	n/a	n/a	n/a	n/a	n/a	n/a	n/a
