onset	duration	subtask_type	event_type	response_accuracy	cue_location	target_location	button_press	trial_index
8.185	0.2	posner	invalid_cue	correct	right	n/a	n/a	1
8.385	0.556	posner	target_response	correct	right	left	left	1
12.603	0.2	posner	valid_cue	correct	left	n/a	n/a	2
12.803	0.55	posner	target_response	correct	left	left	left	2
20.089	0.2	posner	valid_cue	correct	left	n/a	n/a	3
20.289	0.421	posner	target_response	correct	left	left	left	3
27.575	0.2	posner	invalid_cue	correct	left	n/a	n/a	4
27.775	0.43	posner	target_response	correct	left	right	right	4
30.743	0.2	posner	valid_cue	correct	left	n/a	n/a	5
30.943	0.45	posner	target_response	correct	left	left	left	5
34.628	0.2	posner	invalid_cue	correct	left	n/a	n/a	6
34.828	0.455	posner	target_response	correct	left	right	right	6
38.196	0.2	posner	invalid_cue	correct	right	n/a	n/a	7
38.396	0.492	posner	target_response	correct	right	left	left	7
41.564	0.2	posner	valid_cue	correct	left	n/a	n/a	8
41.764	0.362	posner	target_response	correct	left	left	left	8
45.432	0.2	posner	invalid_cue	correct	right	n/a	n/a	9
45.632	0.455	posner	target_response	correct	right	left	left	9
52.901	0.2	posner	invalid_cue	correct	right	n/a	n/a	10
53.101	0.395	posner	target_response	correct	right	left	left	10
56.069	0.2	posner	invalid_cue	correct	left	n/a	n/a	11
56.269	0.508	posner	target_response	correct	left	right	right	11
63.538	0.2	posner	invalid_cue	correct	right	n/a	n/a	12
63.739	0.421	posner	target_response	correct	right	left	left	12
66.706	0.2	posner	invalid_cue	correct	right	n/a	n/a	13
66.906	0.398	posner	target_response	correct	right	left	left	13
69.974	0.2	posner	invalid_cue	correct	right	n/a	n/a	14
70.174	0.404	posner	target_response	correct	right	left	left	14
77.244	0.2	posner	invalid_cue	correct	left	n/a	n/a	15
77.444	0.39	posner	target_response	correct	left	right	right	15
84.713	0.2	posner	valid_cue	correct	left	n/a	n/a	16
84.913	0.389	posner	target_response	correct	left	left	left	16
88.581	0.2	posner	valid_cue	correct	left	n/a	n/a	17
88.781	0.414	posner	target_response	correct	left	left	left	17
96.051	0.2	posner	invalid_cue	correct	right	n/a	n/a	18
96.251	0.409	posner	target_response	correct	right	left	left	18
103.52	0.2	posner	invalid_cue	correct	right	n/a	n/a	19
103.72	0.401	posner	target_response	correct	right	left	left	19
110.089	0.2	posner	valid_cue	correct	right	n/a	n/a	20
110.289	0.481	posner	target_response	correct	right	right	right	20
118.459	0.2	posner	invalid_cue	correct	right	n/a	n/a	21
118.659	0.409	posner	target_response	correct	right	left	left	21
122.227	0.2	posner	invalid_cue	correct	left	n/a	n/a	22
122.427	0.428	posner	target_response	correct	left	right	right	22
125.995	0.2	posner	invalid_cue	correct	left	n/a	n/a	23
126.195	0.488	posner	target_response	correct	left	right	right	23
129.063	0.2	posner	valid_cue	correct	right	n/a	n/a	24
129.263	0.477	posner	target_response	correct	right	right	right	24
136.132	0.2	posner	valid_cue	correct	left	n/a	n/a	25
136.332	0.369	posner	target_response	correct	left	left	left	25
140.901	0.2	posner	valid_cue	correct	left	n/a	n/a	26
141.101	0.481	posner	target_response	correct	left	left	left	26
145.069	0.2	posner	valid_cue	correct	left	n/a	n/a	27
145.269	0.346	posner	target_response	correct	left	left	left	27
151.938	0.2	posner	valid_cue	correct	right	n/a	n/a	28
152.138	0.389	posner	target_response	correct	right	right	right	28
155.406	0.2	posner	valid_cue	correct	left	n/a	n/a	29
155.606	0.329	posner	target_response	correct	left	left	left	29
160.975	0.2	posner	valid_cue	correct	left	n/a	n/a	30
161.175	0.312	posner	target_response	correct	left	left	left	30
164.443	0.2	posner	invalid_cue	correct	left	n/a	n/a	31
164.643	0.384	posner	target_response	correct	left	right	right	31
167.711	0.2	posner	invalid_cue	correct	left	n/a	n/a	32
167.911	0.403	posner	target_response	correct	left	right	right	32
171.879	0.2	posner	invalid_cue	correct	right	n/a	n/a	33
172.079	0.359	posner	target_response	correct	right	left	left	33
179.048	0.2	posner	invalid_cue	correct	right	n/a	n/a	34
179.248	0.41	posner	target_response	correct	right	left	left	34
182.099	0.2	posner	invalid_cue	correct	left	n/a	n/a	35
182.299	0.462	posner	target_response	correct	left	right	right	35
185.567	0.2	posner	invalid_cue	correct	left	n/a	n/a	36
185.767	0.409	posner	target_response	correct	left	right	right	36
188.535	0.2	posner	invalid_cue	correct	right	n/a	n/a	37
188.735	0.428	posner	target_response	correct	right	left	left	37
193.204	0.2	posner	invalid_cue	correct	right	n/a	n/a	38
193.404	0.404	posner	target_response	correct	right	left	left	38
200.673	0.2	posner	invalid_cue	correct	left	n/a	n/a	39
200.873	0.418	posner	target_response	correct	left	right	right	39
207.542	0.2	posner	invalid_cue	correct	right	n/a	n/a	40
207.742	0.425	posner	target_response	correct	right	left	left	40
211.71	0.2	posner	valid_cue	correct	left	n/a	n/a	41
211.91	0.352	posner	target_response	correct	left	left	left	41
218.063	0.2	posner	invalid_cue	correct	left	n/a	n/a	42
218.263	0.442	posner	target_response	correct	left	right	right	42
225.532	0.2	posner	invalid_cue	correct	right	n/a	n/a	43
225.732	0.42	posner	target_response	correct	right	left	left	43
228.8	0.2	posner	invalid_cue	correct	right	n/a	n/a	44
229.0	0.419	posner	target_response	correct	right	left	left	44
233.168	0.2	posner	valid_cue	correct	right	n/a	n/a	45
233.368	0.365	posner	target_response	correct	right	right	right	45
241.438	0.2	posner	invalid_cue	correct	left	n/a	n/a	46
241.638	0.466	posner	target_response	correct	left	right	right	46
246.607	0.2	posner	valid_cue	correct	right	n/a	n/a	47
246.807	0.322	posner	target_response	correct	right	right	right	47
249.575	0.2	posner	valid_cue	correct	right	n/a	n/a	48
249.775	0.381	posner	target_response	correct	right	right	right	48
254.743	0.2	posner	valid_cue	correct	right	n/a	n/a	49
254.943	0.421	posner	target_response	correct	right	right	right	49
261.912	0.2	posner	valid_cue	correct	right	n/a	n/a	50
262.113	0.367	posner	target_response	correct	right	right	right	50
267.881	0.2	posner	invalid_cue	correct	right	n/a	n/a	51
268.081	0.435	posner	target_response	correct	right	left	left	51
275.351	0.2	posner	invalid_cue	correct	right	n/a	n/a	52
275.551	0.46	posner	target_response	correct	right	left	left	52
280.82	0.2	posner	valid_cue	correct	left	n/a	n/a	53
281.02	0.4	posner	target_response	correct	left	left	left	53
288.289	0.2	posner	valid_cue	correct	left	n/a	n/a	54
288.489	0.361	posner	target_response	correct	left	left	left	54
291.857	0.2	posner	invalid_cue	correct	right	n/a	n/a	55
292.057	0.392	posner	target_response	correct	right	left	left	55
295.325	0.2	posner	valid_cue	correct	left	n/a	n/a	56
295.525	0.345	posner	target_response	correct	left	left	left	56
301.494	0.2	posner	invalid_cue	correct	right	n/a	n/a	57
301.694	0.413	posner	target_response	correct	right	left	left	57
306.662	0.2	posner	invalid_cue	correct	left	n/a	n/a	58
306.863	0.499	posner	target_response	correct	left	right	right	58
309.73	0.2	posner	valid_cue	correct	left	n/a	n/a	59
309.93	0.34	posner	target_response	correct	left	left	left	59
313.598	0.2	posner	valid_cue	correct	right	n/a	n/a	60
313.798	0.422	posner	target_response	correct	right	right	right	60
317.967	0.2	posner	invalid_cue	correct	right	n/a	n/a	61
318.167	0.447	posner	target_response	correct	right	left	left	61
321.435	0.2	posner	valid_cue	correct	right	n/a	n/a	62
321.635	0.427	posner	target_response	correct	right	right	right	62
328.904	0.2	posner	valid_cue	correct	left	n/a	n/a	63
329.104	0.427	posner	target_response	correct	left	left	left	63
331.972	0.2	posner	invalid_cue	correct	left	n/a	n/a	64
332.172	0.533	posner	target_response	correct	left	right	right	64
339.441	0.2	posner	invalid_cue	correct	right	n/a	n/a	65
339.641	0.411	posner	target_response	correct	right	left	left	65
345.61	0.2	posner	valid_cue	correct	left	n/a	n/a	66
345.81	0.305	posner	target_response	correct	left	left	left	66
348.678	0.2	posner	invalid_cue	correct	left	n/a	n/a	67
348.878	0.638	posner	target_response	correct	left	right	right	67
352.446	0.2	posner	invalid_cue	correct	right	n/a	n/a	68
352.646	0.45	posner	target_response	correct	right	left	left	68
356.815	0.2	posner	valid_cue	correct	left	n/a	n/a	69
357.015	0.356	posner	target_response	correct	left	left	left	69
360.883	0.2	posner	valid_cue	correct	right	n/a	n/a	70
361.083	0.321	posner	target_response	correct	right	right	right	70
364.551	0.2	posner	valid_cue	correct	right	n/a	n/a	71
364.751	0.407	posner	target_response	correct	right	right	right	71
369.919	0.2	posner	invalid_cue	correct	left	n/a	n/a	72
370.119	0.498	posner	target_response	correct	left	right	right	72
378.289	0.2	posner	invalid_cue	correct	left	n/a	n/a	73
378.489	0.556	posner	target_response	correct	left	right	right	73
381.557	0.2	posner	valid_cue	correct	left	n/a	n/a	74
381.757	0.375	posner	target_response	correct	left	left	left	74
385.425	0.2	posner	invalid_cue	correct	left	n/a	n/a	75
385.625	0.476	posner	target_response	correct	left	right	right	75
391.394	0.2	posner	invalid_cue	correct	left	n/a	n/a	76
391.594	0.447	posner	target_response	correct	left	right	right	76
394.362	0.2	posner	valid_cue	correct	right	n/a	n/a	77
394.562	0.406	posner	target_response	correct	right	right	right	77
397.43	0.2	posner	valid_cue	correct	right	n/a	n/a	78
397.63	0.512	posner	target_response	correct	right	right	right	78
401.398	0.2	posner	valid_cue	correct	right	n/a	n/a	79
401.598	0.358	posner	target_response	correct	right	right	right	79
406.366	0.2	posner	invalid_cue	correct	left	n/a	n/a	80
406.566	0.443	posner	target_response	correct	left	right	right	80
409.534	0.2	posner	valid_cue	correct	right	n/a	n/a	81
409.734	0.39	posner	target_response	correct	right	right	right	81
412.702	0.2	posner	invalid_cue	correct	right	n/a	n/a	82
412.902	0.585	posner	target_response	correct	right	left	left	82
416.17	0.2	posner	invalid_cue	correct	right	n/a	n/a	83
416.37	0.428	posner	target_response	correct	right	left	left	83
420.438	0.2	posner	valid_cue	correct	right	n/a	n/a	84
420.638	0.435	posner	target_response	correct	right	right	right	84
427.908	0.2	posner	invalid_cue	correct	right	n/a	n/a	85
428.108	0.461	posner	target_response	correct	right	left	left	85
434.377	0.2	posner	invalid_cue	correct	left	n/a	n/a	86
434.577	0.496	posner	target_response	correct	left	right	right	86
437.445	0.2	posner	invalid_cue	correct	right	n/a	n/a	87
437.645	0.435	posner	target_response	correct	right	left	left	87
444.914	0.2	posner	invalid_cue	correct	left	n/a	n/a	88
445.114	0.428	posner	target_response	correct	left	right	right	88
449.482	0.2	posner	invalid_cue	correct	left	n/a	n/a	89
449.682	0.679	posner	target_response	correct	left	right	right	89
455.651	0.2	posner	invalid_cue	correct	left	n/a	n/a	90
455.851	0.479	posner	target_response	correct	left	right	right	90
460.82	0.2	posner	valid_cue	correct	left	n/a	n/a	91
461.02	0.52	posner	target_response	correct	left	left	left	91
465.889	0.2	posner	valid_cue	correct	right	n/a	n/a	92
466.089	0.562	posner	target_response	correct	right	right	right	92
469.156	0.2	posner	valid_cue	correct	left	n/a	n/a	93
469.356	0.372	posner	target_response	correct	left	left	left	93
475.525	0.2	posner	valid_cue	correct	left	n/a	n/a	94
475.726	0.429	posner	target_response	correct	left	left	left	94
482.095	0.2	posner	invalid_cue	correct	left	n/a	n/a	95
482.295	0.492	posner	target_response	correct	left	right	right	95
485.362	0.2	posner	valid_cue	correct	left	n/a	n/a	96
485.563	0.437	posner	target_response	correct	left	left	left	96
489.931	0.2	posner	invalid_cue	correct	left	n/a	n/a	97
490.131	0.495	posner	target_response	correct	left	right	right	97
493.199	0.2	posner	valid_cue	correct	right	n/a	n/a	98
493.399	0.401	posner	target_response	correct	right	right	right	98
500.668	0.2	posner	valid_cue	correct	right	n/a	n/a	99
500.868	0.456	posner	target_response	correct	right	right	right	99
506.237	0.2	posner	invalid_cue	correct	left	n/a	n/a	100
506.437	0.468	posner	target_response	correct	left	right	right	100
509.605	0.2	posner	valid_cue	correct	right	n/a	n/a	101
509.805	0.434	posner	target_response	correct	right	right	right	101
512.773	0.2	posner	valid_cue	correct	right	n/a	n/a	102
512.973	0.456	posner	target_response	correct	right	right	right	102
516.741	0.2	posner	valid_cue	correct	left	n/a	n/a	103
516.941	0.357	posner	target_response	correct	left	left	left	103
520.309	0.2	posner	valid_cue	correct	right	n/a	n/a	104
520.509	0.626	posner	target_response	correct	right	right	right	104
523.877	0.2	posner	valid_cue	correct	right	n/a	n/a	105
524.077	0.338	posner	target_response	correct	right	right	right	105
527.245	0.2	posner	invalid_cue	correct	left	n/a	n/a	106
527.445	0.486	posner	target_response	correct	left	right	right	106
530.413	0.2	posner	invalid_cue	correct	left	n/a	n/a	107
530.613	0.529	posner	target_response	correct	left	right	right	107
534.381	0.2	posner	invalid_cue	correct	left	n/a	n/a	108
534.581	0.502	posner	target_response	correct	left	right	right	108
538.049	0.2	posner	valid_cue	correct	right	n/a	n/a	109
538.249	0.34	posner	target_response	correct	right	right	right	109
545.518	0.2	posner	invalid_cue	correct	right	n/a	n/a	110
545.718	0.476	posner	target_response	correct	right	left	left	110
550.087	0.2	posner	valid_cue	correct	right	n/a	n/a	111
550.287	0.423	posner	target_response	correct	right	right	right	111
554.655	0.2	posner	invalid_cue	correct	right	n/a	n/a	112
554.855	0.483	posner	target_response	correct	right	left	left	112
557.923	0.2	posner	valid_cue	correct	left	n/a	n/a	113
558.123	0.336	posner	target_response	correct	left	left	left	113
561.191	0.2	posner	valid_cue	correct	right	n/a	n/a	114
561.391	0.48	posner	target_response	correct	right	right	right	114
567.36	0.2	posner	valid_cue	correct	right	n/a	n/a	115
567.56	0.435	posner	target_response	correct	right	right	right	115
574.229	0.2	posner	valid_cue	correct	left	n/a	n/a	116
574.429	0.306	posner	target_response	correct	left	left	left	116
581.698	0.2	posner	valid_cue	correct	left	n/a	n/a	117
581.898	0.411	posner	target_response	correct	left	left	left	117
588.668	0.2	posner	valid_cue	correct	left	n/a	n/a	118
588.868	0.372	posner	target_response	correct	left	left	left	118
596.137	0.2	posner	invalid_cue	correct	right	n/a	n/a	119
596.337	0.541	posner	target_response	correct	right	left	left	119
599.305	0.2	posner	valid_cue	correct	right	n/a	n/a	120
599.505	0.617	posner	target_response	correct	right	right	right	120
