onset	duration	trial_type	response_x	response_y	situation	context	modality	stim_file
5.826	10.392	narrative_presentation	n/a	n/a	Supplication	hospital	Text	task-narratives/Narrative1Situation1.txt
16.218	1.443	rating_feeling	962	692	Supplication	hospital	Text	task-narratives/Narrative1Situation1.txt
17.251	0.41	feeling_mouse_trajectory	962	692	Supplication	hospital	Text	task-narratives/Narrative1Situation1.txt
20.25	2.075	rating_expectation	830	584	Supplication	hospital	Text	task-narratives/Narrative1Situation1.txt
21.833	0.492	expectation_mouse_trajectory	830	584	Supplication	hospital	Text	task-narratives/Narrative1Situation1.txt
26.317	14.409	narrative_presentation	n/a	n/a	Enmity of kin	forest	Text	task-narratives/Narrative1Situation2.txt
40.726	1.984	rating_feeling	962	692	Enmity of kin	forest	Text	task-narratives/Narrative1Situation2.txt
41.46	1.251	feeling_mouse_trajectory	962	692	Enmity of kin	forest	Text	task-narratives/Narrative1Situation2.txt
44.742	1.051	rating_expectation	830	584	Enmity of kin	forest	Text	task-narratives/Narrative1Situation2.txt
44.759	1.034	expectation_mouse_trajectory	830	584	Enmity of kin	forest	Text	task-narratives/Narrative1Situation2.txt
49.809	20.778	narrative_presentation	n/a	n/a	Murderous adultury	hospital	Text	task-narratives/Narrative1Situation3.txt
70.587	2.456	rating_feeling	962	692	Murderous adultury	hospital	Text	task-narratives/Narrative1Situation3.txt
71.42	1.623	feeling_mouse_trajectory	962	692	Murderous adultury	hospital	Text	task-narratives/Narrative1Situation3.txt
74.608	2.055	rating_expectation	830	584	Murderous adultury	hospital	Text	task-narratives/Narrative1Situation3.txt
75.541	1.121	expectation_mouse_trajectory	830	584	Murderous adultury	hospital	Text	task-narratives/Narrative1Situation3.txt
81.687	18.427	narrative_presentation	n/a	n/a	Murderous adultury	town	Text	task-narratives/Narrative1Situation4.txt
100.114	2.418	rating_feeling	962	692	Murderous adultury	town	Text	task-narratives/Narrative1Situation4.txt
100.898	1.635	feeling_mouse_trajectory	962	692	Murderous adultury	town	Text	task-narratives/Narrative1Situation4.txt
104.131	1.244	rating_expectation	830	584	Murderous adultury	town	Text	task-narratives/Narrative1Situation4.txt
104.398	0.977	expectation_mouse_trajectory	830	584	Murderous adultury	town	Text	task-narratives/Narrative1Situation4.txt
111.198	11.062	narrative_presentation	n/a	n/a	Slaying of kin unrecognized	town	Text	task-narratives/Narrative1Situation5.txt
122.26	2.97	rating_feeling	962	692	Slaying of kin unrecognized	town	Text	task-narratives/Narrative1Situation5.txt
123.293	1.937	feeling_mouse_trajectory	962	692	Slaying of kin unrecognized	town	Text	task-narratives/Narrative1Situation5.txt
126.291	1.602	rating_expectation	830	584	Slaying of kin unrecognized	town	Text	task-narratives/Narrative1Situation5.txt
126.908	0.986	expectation_mouse_trajectory	830	584	Slaying of kin unrecognized	town	Text	task-narratives/Narrative1Situation5.txt
131.356	25.129	narrative_presentation	n/a	n/a	Ambition	town	Text	task-narratives/Narrative1Situation6.txt
156.485	1.008	rating_feeling	962	692	Ambition	town	Text	task-narratives/Narrative1Situation6.txt
156.885	0.608	feeling_mouse_trajectory	962	692	Ambition	town	Text	task-narratives/Narrative1Situation6.txt
160.508	1.189	rating_expectation	830	584	Ambition	town	Text	task-narratives/Narrative1Situation6.txt
160.825	0.873	expectation_mouse_trajectory	830	584	Ambition	town	Text	task-narratives/Narrative1Situation6.txt
167.586	22.111	narrative_presentation	n/a	n/a	Fatal imprudence	prison	Text	task-narratives/Narrative1Situation7.txt
189.697	2.912	rating_feeling	962	692	Fatal imprudence	prison	Text	task-narratives/Narrative1Situation7.txt
191.047	1.562	feeling_mouse_trajectory	962	692	Fatal imprudence	prison	Text	task-narratives/Narrative1Situation7.txt
193.715	2.127	rating_expectation	830	584	Fatal imprudence	prison	Text	task-narratives/Narrative1Situation7.txt
194.081	1.76	expectation_mouse_trajectory	830	584	Fatal imprudence	prison	Text	task-narratives/Narrative1Situation7.txt
198.781	12.396	narrative_presentation	n/a	n/a	Discovery of dishonour of loved one	hospital	Text	task-narratives/Narrative1Situation8.txt
211.177	2.954	rating_feeling	962	692	Discovery of dishonour of loved one	hospital	Text	task-narratives/Narrative1Situation8.txt
212.527	1.604	feeling_mouse_trajectory	962	692	Discovery of dishonour of loved one	hospital	Text	task-narratives/Narrative1Situation8.txt
215.208	1.969	rating_expectation	830	584	Discovery of dishonour of loved one	hospital	Text	task-narratives/Narrative1Situation8.txt
216.292	0.886	expectation_mouse_trajectory	830	584	Discovery of dishonour of loved one	hospital	Text	task-narratives/Narrative1Situation8.txt
227.275	29.48	narrative_presentation	n/a	n/a	Abduction	prison	Text	task-narratives/Narrative1Situation9.txt
256.755	2.57	rating_feeling	962	692	Abduction	prison	Text	task-narratives/Narrative1Situation9.txt
257.505	1.82	feeling_mouse_trajectory	962	692	Abduction	prison	Text	task-narratives/Narrative1Situation9.txt
260.775	3.785	rating_expectation	830	584	Abduction	prison	Text	task-narratives/Narrative1Situation9.txt
262.375	2.185	expectation_mouse_trajectory	830	584	Abduction	prison	Text	task-narratives/Narrative1Situation9.txt
273.842	22.111	narrative_presentation	n/a	n/a	Supplication	hospital	Text	task-narratives/Narrative2Situation1.txt
295.954	1.856	rating_feeling	962	692	Supplication	hospital	Text	task-narratives/Narrative2Situation1.txt
297.52	0.289	feeling_mouse_trajectory	962	692	Supplication	hospital	Text	task-narratives/Narrative2Situation1.txt
299.975	1.604	rating_expectation	830	584	Supplication	hospital	Text	task-narratives/Narrative2Situation1.txt
300.308	1.271	expectation_mouse_trajectory	830	584	Supplication	hospital	Text	task-narratives/Narrative2Situation1.txt
306.038	36.182	narrative_presentation	n/a	n/a	Enmity of kin	forest	Text	task-narratives/Narrative2Situation2.txt
342.22	1.655	rating_feeling	962	692	Enmity of kin	forest	Text	task-narratives/Narrative2Situation2.txt
342.887	0.988	feeling_mouse_trajectory	962	692	Enmity of kin	forest	Text	task-narratives/Narrative2Situation2.txt
346.242	0.987	rating_expectation	830	584	Enmity of kin	forest	Text	task-narratives/Narrative2Situation2.txt
346.492	0.737	expectation_mouse_trajectory	830	584	Enmity of kin	forest	Text	task-narratives/Narrative2Situation2.txt
354.306	9.373	narrative_presentation	n/a	n/a	Murderous adultury	hospital	Text	task-narratives/Narrative2Situation3.txt
363.679	2.168	rating_feeling	962	692	Murderous adultury	hospital	Text	task-narratives/Narrative2Situation3.txt
364.812	1.034	feeling_mouse_trajectory	962	692	Murderous adultury	hospital	Text	task-narratives/Narrative2Situation3.txt
367.696	2.318	rating_expectation	830	584	Murderous adultury	hospital	Text	task-narratives/Narrative2Situation3.txt
368.78	1.234	expectation_mouse_trajectory	830	584	Murderous adultury	hospital	Text	task-narratives/Narrative2Situation3.txt
374.763	18.43	narrative_presentation	n/a	n/a	Murderous adultury	town	Text	task-narratives/Narrative2Situation4.txt
393.193	2.236	rating_feeling	962	692	Murderous adultury	town	Text	task-narratives/Narrative2Situation4.txt
394.16	1.269	feeling_mouse_trajectory	962	692	Murderous adultury	town	Text	task-narratives/Narrative2Situation4.txt
397.208	0.951	rating_expectation	830	584	Murderous adultury	town	Text	task-narratives/Narrative2Situation4.txt
397.492	0.668	expectation_mouse_trajectory	830	584	Murderous adultury	town	Text	task-narratives/Narrative2Situation4.txt
404.274	16.743	narrative_presentation	n/a	n/a	Slaying of kin unrecognized	town	Text	task-narratives/Narrative2Situation5.txt
421.017	2.142	rating_feeling	962	692	Slaying of kin unrecognized	town	Text	task-narratives/Narrative2Situation5.txt
421.984	1.176	feeling_mouse_trajectory	962	692	Slaying of kin unrecognized	town	Text	task-narratives/Narrative2Situation5.txt
425.034	2.074	rating_expectation	830	584	Slaying of kin unrecognized	town	Text	task-narratives/Narrative2Situation5.txt
426.018	1.091	expectation_mouse_trajectory	830	584	Slaying of kin unrecognized	town	Text	task-narratives/Narrative2Situation5.txt
431.118	5.693	narrative_presentation	n/a	n/a	Ambition	town	Text	task-narratives/Narrative2Situation6.txt
436.81	2.87	rating_feeling	962	692	Ambition	town	Text	task-narratives/Narrative2Situation6.txt
437.677	2.003	feeling_mouse_trajectory	962	692	Ambition	town	Text	task-narratives/Narrative2Situation6.txt
440.842	1.985	rating_expectation	830	584	Ambition	town	Text	task-narratives/Narrative2Situation6.txt
441.275	1.552	expectation_mouse_trajectory	830	584	Ambition	town	Text	task-narratives/Narrative2Situation6.txt
445.907	19.094	narrative_presentation	n/a	n/a	Fatal imprudence	prison	Text	task-narratives/Narrative2Situation7.txt
465.001	2.976	rating_feeling	962	692	Fatal imprudence	prison	Text	task-narratives/Narrative2Situation7.txt
465.751	2.226	feeling_mouse_trajectory	962	692	Fatal imprudence	prison	Text	task-narratives/Narrative2Situation7.txt
469.017	3.224	rating_expectation	830	584	Fatal imprudence	prison	Text	task-narratives/Narrative2Situation7.txt
469.784	2.458	expectation_mouse_trajectory	830	584	Fatal imprudence	prison	Text	task-narratives/Narrative2Situation7.txt
476.085	18.094	narrative_presentation	n/a	n/a	Discovery of dishonour of loved one	hospital	Text	task-narratives/Narrative2Situation8.txt
494.178	2.768	rating_feeling	962	692	Discovery of dishonour of loved one	hospital	Text	task-narratives/Narrative2Situation8.txt
494.445	2.501	feeling_mouse_trajectory	962	692	Discovery of dishonour of loved one	hospital	Text	task-narratives/Narrative2Situation8.txt
498.195	1.901	rating_expectation	830	584	Discovery of dishonour of loved one	hospital	Text	task-narratives/Narrative2Situation8.txt
498.945	1.151	expectation_mouse_trajectory	830	584	Discovery of dishonour of loved one	hospital	Text	task-narratives/Narrative2Situation8.txt
505.262	15.409	narrative_presentation	n/a	n/a	Abduction	prison	Text	task-narratives/Narrative2Situation9.txt
520.671	1.005	rating_feeling	962	692	Abduction	prison	Text	task-narratives/Narrative2Situation9.txt
520.721	0.955	feeling_mouse_trajectory	962	692	Abduction	prison	Text	task-narratives/Narrative2Situation9.txt
524.693	0.887	rating_expectation	830	584	Abduction	prison	Text	task-narratives/Narrative2Situation9.txt
525.026	0.554	expectation_mouse_trajectory	830	584	Abduction	prison	Text	task-narratives/Narrative2Situation9.txt
