onset	duration	run_type	trial_type	trial_index	cue	stimulusintensity	rating_value	rating_glmslabel	rating_value_fillna	rating_glmslabel_fillna	rating_mouseonset	rating_mousedur	stim_file_TODO	pain_onset_ttl1	pain_onset_ttl2	pain_onset_ttl3	pain_onset_ttl4	pain_stimulus_delivery_success	cognitive_correct_response	cognitive_participant_response	cognitive_response_accuracy
5.68	1.0	cognitive	cue	1	low_cue	n/a	n/a	n/a	n/a	n/a	n/a	n/a	task-social/cue/runtype-cognitive/scl/l044.png	n/a	n/a	n/a	n/a	n/a	n/a	n/a	n/a
9.02	n/a	cognitive	expectrating	1	low_cue	n/a	n/a	n/a	12.06	Moderate	0.07	3.65	task-social/cue/runtype-cognitive/scl/l044.png	n/a	n/a	n/a	n/a	n/a	n/a	n/a	n/a
19.41	5.0	cognitive	stimulus	1	low_cue	med_stim	n/a	n/a	n/a	n/a	n/a	n/a	task-social/stim/runtype-cognitive/22_100.jpg	n/a	n/a	n/a	n/a	n/a	same	n/a	False
28.09	n/a	cognitive	outcomerating	1	low_cue	med_stim	n/a	n/a	8.33	Weak	0.07	3.65	task-social/outcomerating/task-cognitive_scale.png	n/a	n/a	n/a	n/a	n/a	n/a	n/a	n/a
34.99	0.98	cognitive	cue	2	high_cue	n/a	n/a	n/a	n/a	n/a	n/a	n/a	task-social/cue/runtype-cognitive/sch/h034.png	n/a	n/a	n/a	n/a	n/a	n/a	n/a	n/a
37.7	2.55	cognitive	expectrating	2	high_cue	n/a	37.01	Strong	37.01	Strong	0.27	2.29	task-social/cue/runtype-cognitive/sch/h034.png	n/a	n/a	n/a	n/a	n/a	n/a	n/a	n/a
44.7	5.0	cognitive	stimulus	2	high_cue	low_stim	n/a	n/a	n/a	n/a	n/a	n/a	task-social/stim/runtype-cognitive/24_50.jpg	n/a	n/a	n/a	n/a	n/a	same	same	True
58.2	2.88	cognitive	outcomerating	2	high_cue	low_stim	8.07	Weak	8.07	Weak	0.27	2.29	task-social/outcomerating/task-cognitive_scale.png	n/a	n/a	n/a	n/a	n/a	n/a	n/a	n/a
62.69	0.99	cognitive	cue	3	low_cue	n/a	n/a	n/a	n/a	n/a	n/a	n/a	task-social/cue/runtype-cognitive/scl/l050.png	n/a	n/a	n/a	n/a	n/a	n/a	n/a	n/a
65.91	2.61	cognitive	expectrating	3	low_cue	n/a	7.38	Weak	7.38	Weak	0.57	2.04	task-social/cue/runtype-cognitive/scl/l050.png	n/a	n/a	n/a	n/a	n/a	n/a	n/a	n/a
78.39	5.0	cognitive	stimulus	3	low_cue	high_stim	n/a	n/a	n/a	n/a	n/a	n/a	task-social/stim/runtype-cognitive/24_150_R.jpg	n/a	n/a	n/a	n/a	n/a	diff	diff	True
91.6	2.92	cognitive	outcomerating	3	low_cue	high_stim	4.38	Weak	4.38	Weak	0.57	2.04	task-social/outcomerating/task-cognitive_scale.png	n/a	n/a	n/a	n/a	n/a	n/a	n/a	n/a
96.08	0.99	cognitive	cue	4	high_cue	n/a	n/a	n/a	n/a	n/a	n/a	n/a	task-social/cue/runtype-cognitive/sch/h003.png	n/a	n/a	n/a	n/a	n/a	n/a	n/a	n/a
98.4	2.07	cognitive	expectrating	4	high_cue	n/a	49.11	Strong	49.11	Strong	0.23	1.83	task-social/cue/runtype-cognitive/sch/h003.png	n/a	n/a	n/a	n/a	n/a	n/a	n/a	n/a
106.59	5.0	cognitive	stimulus	4	high_cue	med_stim	n/a	n/a	n/a	n/a	n/a	n/a	task-social/stim/runtype-cognitive/9_100_R.jpg	n/a	n/a	n/a	n/a	n/a	diff	diff	True
114.79	1.99	cognitive	outcomerating	4	high_cue	med_stim	17.71	Moderate	17.71	Moderate	0.23	1.83	task-social/outcomerating/task-cognitive_scale.png	n/a	n/a	n/a	n/a	n/a	n/a	n/a	n/a
131.6	0.98	cognitive	cue	5	low_cue	n/a	n/a	n/a	n/a	n/a	n/a	n/a	task-social/cue/runtype-cognitive/scl/l055.png	n/a	n/a	n/a	n/a	n/a	n/a	n/a	n/a
134.3	2.3	cognitive	expectrating	5	low_cue	n/a	5.98	Weak	5.98	Weak	0.38	1.92	task-social/cue/runtype-cognitive/scl/l055.png	n/a	n/a	n/a	n/a	n/a	n/a	n/a	n/a
143.0	5.0	cognitive	stimulus	5	low_cue	med_stim	n/a	n/a	n/a	n/a	n/a	n/a	task-social/stim/runtype-cognitive/23_100_R.jpg	n/a	n/a	n/a	n/a	n/a	diff	n/a	False
156.19	2.1	cognitive	outcomerating	5	low_cue	med_stim	2.55	Barely detectable	2.55	Barely detectable	0.38	1.92	task-social/outcomerating/task-cognitive_scale.png	n/a	n/a	n/a	n/a	n/a	n/a	n/a	n/a
163.39	0.98	cognitive	cue	6	low_cue	n/a	n/a	n/a	n/a	n/a	n/a	n/a	task-social/cue/runtype-cognitive/scl/l013.png	n/a	n/a	n/a	n/a	n/a	n/a	n/a	n/a
165.69	2.07	cognitive	expectrating	6	low_cue	n/a	6.01	Weak	6.01	Weak	0.27	1.81	task-social/cue/runtype-cognitive/scl/l013.png	n/a	n/a	n/a	n/a	n/a	n/a	n/a	n/a
180.8	5.0	cognitive	stimulus	6	low_cue	high_stim	n/a	n/a	n/a	n/a	n/a	n/a	task-social/stim/runtype-cognitive/43_150_R.jpg	n/a	n/a	n/a	n/a	n/a	diff	diff	True
188.59	3.27	cognitive	outcomerating	6	low_cue	high_stim	3.92	Weak	3.92	Weak	0.27	1.81	task-social/outcomerating/task-cognitive_scale.png	n/a	n/a	n/a	n/a	n/a	n/a	n/a	n/a
193.39	0.99	cognitive	cue	7	high_cue	n/a	n/a	n/a	n/a	n/a	n/a	n/a	task-social/cue/runtype-cognitive/sch/h022.png	n/a	n/a	n/a	n/a	n/a	n/a	n/a	n/a
195.0	1.95	cognitive	expectrating	7	high_cue	n/a	40.45	Strong	40.45	Strong	0.28	1.67	task-social/cue/runtype-cognitive/sch/h022.png	n/a	n/a	n/a	n/a	n/a	n/a	n/a	n/a
203.19	5.0	cognitive	stimulus	7	high_cue	high_stim	n/a	n/a	n/a	n/a	n/a	n/a	task-social/stim/runtype-cognitive/10_150.jpg	n/a	n/a	n/a	n/a	n/a	same	diff	False
227.9	n/a	cognitive	outcomerating	7	high_cue	high_stim	n/a	n/a	36.5	Strong	0.28	1.67	task-social/outcomerating/task-cognitive_scale.png	n/a	n/a	n/a	n/a	n/a	n/a	n/a	n/a
234.39	0.99	cognitive	cue	8	low_cue	n/a	n/a	n/a	n/a	n/a	n/a	n/a	task-social/cue/runtype-cognitive/scl/l030.png	n/a	n/a	n/a	n/a	n/a	n/a	n/a	n/a
235.99	2.57	cognitive	expectrating	8	low_cue	n/a	1.64	Barely detectable	1.64	Barely detectable	0.05	2.52	task-social/cue/runtype-cognitive/scl/l030.png	n/a	n/a	n/a	n/a	n/a	n/a	n/a	n/a
243.89	5.0	cognitive	stimulus	8	low_cue	low_stim	n/a	n/a	n/a	n/a	n/a	n/a	task-social/stim/runtype-cognitive/17_50.jpg	n/a	n/a	n/a	n/a	n/a	same	same	True
252.89	2.74	cognitive	outcomerating	8	low_cue	low_stim	0.74	No sensation	0.74	No sensation	0.05	2.52	task-social/outcomerating/task-cognitive_scale.png	n/a	n/a	n/a	n/a	n/a	n/a	n/a	n/a
259.1	0.98	cognitive	cue	9	low_cue	n/a	n/a	n/a	n/a	n/a	n/a	n/a	task-social/cue/runtype-cognitive/scl/l046.png	n/a	n/a	n/a	n/a	n/a	n/a	n/a	n/a
261.0	3.7	cognitive	expectrating	9	low_cue	n/a	6.93	Weak	6.93	Weak	0.35	3.35	task-social/cue/runtype-cognitive/scl/l046.png	n/a	n/a	n/a	n/a	n/a	n/a	n/a	n/a
276.09	5.0	cognitive	stimulus	9	low_cue	low_stim	n/a	n/a	n/a	n/a	n/a	n/a	task-social/stim/runtype-cognitive/34_50.jpg	n/a	n/a	n/a	n/a	n/a	same	same	True
290.99	2.51	cognitive	outcomerating	9	low_cue	low_stim	1.62	Barely detectable	1.62	Barely detectable	0.35	3.35	task-social/outcomerating/task-cognitive_scale.png	n/a	n/a	n/a	n/a	n/a	n/a	n/a	n/a
307.78	1.0	cognitive	cue	10	high_cue	n/a	n/a	n/a	n/a	n/a	n/a	n/a	task-social/cue/runtype-cognitive/sch/h040.png	n/a	n/a	n/a	n/a	n/a	n/a	n/a	n/a
311.0	2.25	cognitive	expectrating	10	high_cue	n/a	18.07	Moderate	18.07	Moderate	0.43	1.82	task-social/cue/runtype-cognitive/sch/h040.png	n/a	n/a	n/a	n/a	n/a	n/a	n/a	n/a
318.9	5.0	cognitive	stimulus	10	high_cue	low_stim	n/a	n/a	n/a	n/a	n/a	n/a	task-social/stim/runtype-cognitive/23_50.jpg	n/a	n/a	n/a	n/a	n/a	same	same	True
327.59	3.9	cognitive	outcomerating	10	high_cue	low_stim	7.21	Weak	7.21	Weak	0.43	1.82	task-social/outcomerating/task-cognitive_scale.png	n/a	n/a	n/a	n/a	n/a	n/a	n/a	n/a
340.69	0.98	cognitive	cue	11	high_cue	n/a	n/a	n/a	n/a	n/a	n/a	n/a	task-social/cue/runtype-cognitive/sch/h046.png	n/a	n/a	n/a	n/a	n/a	n/a	n/a	n/a
342.59	2.16	cognitive	expectrating	11	high_cue	n/a	30.88	Strong	30.88	Strong	0.07	2.09	task-social/cue/runtype-cognitive/sch/h046.png	n/a	n/a	n/a	n/a	n/a	n/a	n/a	n/a
355.3	5.0	cognitive	stimulus	11	high_cue	med_stim	n/a	n/a	n/a	n/a	n/a	n/a	task-social/stim/runtype-cognitive/17_100_R.jpg	n/a	n/a	n/a	n/a	n/a	diff	diff	True
363.79	2.9	cognitive	outcomerating	11	high_cue	med_stim	12.75	Moderate	12.75	Moderate	0.07	2.09	task-social/outcomerating/task-cognitive_scale.png	n/a	n/a	n/a	n/a	n/a	n/a	n/a	n/a
371.49	0.99	cognitive	cue	12	high_cue	n/a	n/a	n/a	n/a	n/a	n/a	n/a	task-social/cue/runtype-cognitive/sch/h008.png	n/a	n/a	n/a	n/a	n/a	n/a	n/a	n/a
374.79	1.66	cognitive	expectrating	12	high_cue	n/a	40.78	Strong	40.78	Strong	0.05	1.61	task-social/cue/runtype-cognitive/sch/h008.png	n/a	n/a	n/a	n/a	n/a	n/a	n/a	n/a
387.29	5.0	cognitive	stimulus	12	high_cue	high_stim	n/a	n/a	n/a	n/a	n/a	n/a	task-social/stim/runtype-cognitive/34_150_R.jpg	n/a	n/a	n/a	n/a	n/a	diff	diff	True
395.1	2.72	cognitive	outcomerating	12	high_cue	high_stim	15.88	Moderate	15.88	Moderate	0.05	1.61	task-social/outcomerating/task-cognitive_scale.png	n/a	n/a	n/a	n/a	n/a	n/a	n/a	n/a
