onset	duration	run_type	trial_type	trial_index	cue	stimulusintensity	rating_value	rating_glmslabel	rating_value_fillna	rating_glmslabel_fillna	rating_mouseonset	rating_mousedur	stim_file_TODO	pain_onset_ttl1	pain_onset_ttl2	pain_onset_ttl3	pain_onset_ttl4	pain_stimulus_delivery_success	cognitive_correct_response	cognitive_participant_response	cognitive_response_accuracy
4.81	0.99	vicarious	cue	1	high_cue	n/a	n/a	n/a	n/a	n/a	n/a	n/a	task-social/cue/runtype-vicarious/sch/h021.png	n/a	n/a	n/a	n/a	n/a	n/a	n/a	n/a
7.22	1.5	vicarious	expectrating	1	high_cue	n/a	21.72	Moderate	21.72	Moderate	0.42	1.08	task-social/cue/runtype-vicarious/sch/h021.png	n/a	n/a	n/a	n/a	n/a	n/a	n/a	n/a
17.8	5.0	vicarious	stimulus	1	high_cue	low_stim	n/a	n/a	n/a	n/a	n/a	n/a	task-social/stim/runtype-vicarious/jh043t2aaunaff_L.mp4	n/a	n/a	n/a	n/a	n/a	n/a	n/a	n/a
27.21	2.95	vicarious	outcomerating	1	high_cue	low_stim	18.22	Moderate	18.22	Moderate	0.42	1.08	task-social/outcomerating/task-vicarious_scale.png	n/a	n/a	n/a	n/a	n/a	n/a	n/a	n/a
33.1	0.99	vicarious	cue	2	low_cue	n/a	n/a	n/a	n/a	n/a	n/a	n/a	task-social/cue/runtype-vicarious/scl/l008.png	n/a	n/a	n/a	n/a	n/a	n/a	n/a	n/a
34.9	1.57	vicarious	expectrating	2	low_cue	n/a	20.39	Moderate	20.39	Moderate	0.47	1.11	task-social/cue/runtype-vicarious/scl/l008.png	n/a	n/a	n/a	n/a	n/a	n/a	n/a	n/a
46.19	5.0	vicarious	stimulus	2	low_cue	low_stim	n/a	n/a	n/a	n/a	n/a	n/a	task-social/stim/runtype-vicarious/nm106t1aaunaff_L.mp4	n/a	n/a	n/a	n/a	n/a	n/a	n/a	n/a
56.11	2.55	vicarious	outcomerating	2	low_cue	low_stim	14.2	Moderate	14.2	Moderate	0.47	1.11	task-social/outcomerating/task-vicarious_scale.png	n/a	n/a	n/a	n/a	n/a	n/a	n/a	n/a
61.11	0.98	vicarious	cue	3	low_cue	n/a	n/a	n/a	n/a	n/a	n/a	n/a	task-social/cue/runtype-vicarious/scl/l042.png	n/a	n/a	n/a	n/a	n/a	n/a	n/a	n/a
63.21	1.87	vicarious	expectrating	3	low_cue	n/a	8.23	Weak	8.23	Weak	0.47	1.4	task-social/cue/runtype-vicarious/scl/l042.png	n/a	n/a	n/a	n/a	n/a	n/a	n/a	n/a
71.79	5.0	vicarious	stimulus	3	low_cue	med_stim	n/a	n/a	n/a	n/a	n/a	n/a	task-social/stim/runtype-vicarious/nm106t2aaunaff_M.mp4	n/a	n/a	n/a	n/a	n/a	n/a	n/a	n/a
81.42	3.09	vicarious	outcomerating	3	low_cue	med_stim	11.17	Moderate	11.17	Moderate	0.47	1.4	task-social/outcomerating/task-vicarious_scale.png	n/a	n/a	n/a	n/a	n/a	n/a	n/a	n/a
86.5	0.99	vicarious	cue	4	low_cue	n/a	n/a	n/a	n/a	n/a	n/a	n/a	task-social/cue/runtype-vicarious/scl/l043.png	n/a	n/a	n/a	n/a	n/a	n/a	n/a	n/a
89.6	2.4	vicarious	expectrating	4	low_cue	n/a	41.1	Strong	41.1	Strong	0.6	1.8	task-social/cue/runtype-vicarious/scl/l043.png	n/a	n/a	n/a	n/a	n/a	n/a	n/a	n/a
100.79	5.0	vicarious	stimulus	4	low_cue	high_stim	n/a	n/a	n/a	n/a	n/a	n/a	task-social/stim/runtype-vicarious/nm106t1afaff_H.mp4	n/a	n/a	n/a	n/a	n/a	n/a	n/a	n/a
110.11	2.33	vicarious	outcomerating	4	low_cue	high_stim	53.7	Strong	53.7	Strong	0.6	1.8	task-social/outcomerating/task-vicarious_scale.png	n/a	n/a	n/a	n/a	n/a	n/a	n/a	n/a
114.8	0.99	vicarious	cue	5	high_cue	n/a	n/a	n/a	n/a	n/a	n/a	n/a	task-social/cue/runtype-vicarious/sch/h004.png	n/a	n/a	n/a	n/a	n/a	n/a	n/a	n/a
117.21	n/a	vicarious	expectrating	5	high_cue	n/a	n/a	n/a	33.05	Strong	3.37	3.97	task-social/cue/runtype-vicarious/sch/h004.png	n/a	n/a	n/a	n/a	n/a	n/a	n/a	n/a
124.59	5.0	vicarious	stimulus	5	high_cue	med_stim	n/a	n/a	n/a	n/a	n/a	n/a	task-social/stim/runtype-vicarious/hs107t2aaaff_M.mp4	n/a	n/a	n/a	n/a	n/a	n/a	n/a	n/a
133.9	2.25	vicarious	outcomerating	5	high_cue	med_stim	28.21	Moderate	28.21	Moderate	3.37	3.97	task-social/outcomerating/task-vicarious_scale.png	n/a	n/a	n/a	n/a	n/a	n/a	n/a	n/a
138.51	0.99	vicarious	cue	6	high_cue	n/a	n/a	n/a	n/a	n/a	n/a	n/a	task-social/cue/runtype-vicarious/sch/h017.png	n/a	n/a	n/a	n/a	n/a	n/a	n/a	n/a
140.61	2.03	vicarious	expectrating	6	high_cue	n/a	38.91	Strong	38.91	Strong	0.93	1.1	task-social/cue/runtype-vicarious/sch/h017.png	n/a	n/a	n/a	n/a	n/a	n/a	n/a	n/a
147.89	5.0	vicarious	stimulus	6	high_cue	high_stim	n/a	n/a	n/a	n/a	n/a	n/a	task-social/stim/runtype-vicarious/ch092t2aiaff_H.mp4	n/a	n/a	n/a	n/a	n/a	n/a	n/a	n/a
157.61	2.35	vicarious	outcomerating	6	high_cue	high_stim	32.58	Strong	32.58	Strong	0.93	1.1	task-social/outcomerating/task-vicarious_scale.png	n/a	n/a	n/a	n/a	n/a	n/a	n/a	n/a
163.5	0.99	vicarious	cue	7	high_cue	n/a	n/a	n/a	n/a	n/a	n/a	n/a	task-social/cue/runtype-vicarious/sch/h046.png	n/a	n/a	n/a	n/a	n/a	n/a	n/a	n/a
165.6	2.26	vicarious	expectrating	7	high_cue	n/a	31.4	Strong	31.4	Strong	0.7	1.56	task-social/cue/runtype-vicarious/sch/h046.png	n/a	n/a	n/a	n/a	n/a	n/a	n/a	n/a
178.39	5.0	vicarious	stimulus	7	high_cue	low_stim	n/a	n/a	n/a	n/a	n/a	n/a	task-social/stim/runtype-vicarious/kz120t2aaunaff_L.mp4	n/a	n/a	n/a	n/a	n/a	n/a	n/a	n/a
197.61	1.95	vicarious	outcomerating	7	high_cue	low_stim	25.63	Moderate	25.63	Moderate	0.7	1.56	task-social/outcomerating/task-vicarious_scale.png	n/a	n/a	n/a	n/a	n/a	n/a	n/a	n/a
209.4	0.99	vicarious	cue	8	high_cue	n/a	n/a	n/a	n/a	n/a	n/a	n/a	task-social/cue/runtype-vicarious/sch/h003.png	n/a	n/a	n/a	n/a	n/a	n/a	n/a	n/a
211.5	n/a	vicarious	expectrating	8	high_cue	n/a	n/a	n/a	27.6	Moderate	3.03	3.78	task-social/cue/runtype-vicarious/sch/h003.png	n/a	n/a	n/a	n/a	n/a	n/a	n/a	n/a
218.39	5.0	vicarious	stimulus	8	high_cue	high_stim	n/a	n/a	n/a	n/a	n/a	n/a	task-social/stim/runtype-vicarious/bg096t1aeaff_H.mp4	n/a	n/a	n/a	n/a	n/a	n/a	n/a	n/a
229.71	1.98	vicarious	outcomerating	8	high_cue	high_stim	75.07	Very Strong	75.07	Very Strong	3.03	3.78	task-social/outcomerating/task-vicarious_scale.png	n/a	n/a	n/a	n/a	n/a	n/a	n/a	n/a
234.61	0.98	vicarious	cue	9	low_cue	n/a	n/a	n/a	n/a	n/a	n/a	n/a	task-social/cue/runtype-vicarious/scl/l053.png	n/a	n/a	n/a	n/a	n/a	n/a	n/a	n/a
237.71	1.93	vicarious	expectrating	9	low_cue	n/a	39.75	Strong	39.75	Strong	0.83	1.1	task-social/cue/runtype-vicarious/scl/l053.png	n/a	n/a	n/a	n/a	n/a	n/a	n/a	n/a
252.49	5.0	vicarious	stimulus	9	low_cue	low_stim	n/a	n/a	n/a	n/a	n/a	n/a	task-social/stim/runtype-vicarious/ch092t2aeaff_L.mp4	n/a	n/a	n/a	n/a	n/a	n/a	n/a	n/a
265.12	n/a	vicarious	outcomerating	9	low_cue	low_stim	n/a	n/a	n/a	n/a	0.83	1.1	task-social/outcomerating/task-vicarious_scale.png	n/a	n/a	n/a	n/a	n/a	n/a	n/a	n/a
271.01	0.99	vicarious	cue	10	low_cue	n/a	n/a	n/a	n/a	n/a	n/a	n/a	task-social/cue/runtype-vicarious/scl/l022.png	n/a	n/a	n/a	n/a	n/a	n/a	n/a	n/a
274.11	1.92	vicarious	expectrating	10	low_cue	n/a	37.87	Strong	37.87	Strong	0.58	1.33	task-social/cue/runtype-vicarious/scl/l022.png	n/a	n/a	n/a	n/a	n/a	n/a	n/a	n/a
285.39	5.0	vicarious	stimulus	10	low_cue	med_stim	n/a	n/a	n/a	n/a	n/a	n/a	task-social/stim/runtype-vicarious/jh043t2aeunaff_M.mp4	n/a	n/a	n/a	n/a	n/a	n/a	n/a	n/a
296.61	1.97	vicarious	outcomerating	10	low_cue	med_stim	6.44	Weak	6.44	Weak	0.58	1.33	task-social/outcomerating/task-vicarious_scale.png	n/a	n/a	n/a	n/a	n/a	n/a	n/a	n/a
317.61	0.99	vicarious	cue	11	low_cue	n/a	n/a	n/a	n/a	n/a	n/a	n/a	task-social/cue/runtype-vicarious/scl/l029.png	n/a	n/a	n/a	n/a	n/a	n/a	n/a	n/a
320.01	2.85	vicarious	expectrating	11	low_cue	n/a	50.43	Strong	50.43	Strong	1.22	1.63	task-social/cue/runtype-vicarious/scl/l029.png	n/a	n/a	n/a	n/a	n/a	n/a	n/a	n/a
327.39	5.0	vicarious	stimulus	11	low_cue	high_stim	n/a	n/a	n/a	n/a	n/a	n/a	task-social/stim/runtype-vicarious/jh043t2aeaff_H.mp4	n/a	n/a	n/a	n/a	n/a	n/a	n/a	n/a
337.11	3.57	vicarious	outcomerating	11	low_cue	high_stim	41.38	Strong	41.38	Strong	1.22	1.63	task-social/outcomerating/task-vicarious_scale.png	n/a	n/a	n/a	n/a	n/a	n/a	n/a	n/a
358.1	0.99	vicarious	cue	12	high_cue	n/a	n/a	n/a	n/a	n/a	n/a	n/a	task-social/cue/runtype-vicarious/sch/h042.png	n/a	n/a	n/a	n/a	n/a	n/a	n/a	n/a
361.21	2.17	vicarious	expectrating	12	high_cue	n/a	12.91	Moderate	12.91	Moderate	0.9	1.27	task-social/cue/runtype-vicarious/sch/h042.png	n/a	n/a	n/a	n/a	n/a	n/a	n/a	n/a
377.49	5.0	vicarious	stimulus	12	high_cue	med_stim	n/a	n/a	n/a	n/a	n/a	n/a	task-social/stim/runtype-vicarious/ch092t2aaaff_M.mp4	n/a	n/a	n/a	n/a	n/a	n/a	n/a	n/a
394.12	2.34	vicarious	outcomerating	12	high_cue	med_stim	29.55	Strong	29.55	Strong	0.9	1.27	task-social/outcomerating/task-vicarious_scale.png	n/a	n/a	n/a	n/a	n/a	n/a	n/a	n/a
