onset	duration	run_type	trial_type	trial_index	cue	stimulusintensity	rating_value	rating_glmslabel	rating_value_fillna	rating_glmslabel_fillna	rating_mouseonset	rating_mousedur	stim_file_TODO	pain_onset_ttl1	pain_onset_ttl2	pain_onset_ttl3	pain_onset_ttl4	pain_stimulus_delivery_success	cognitive_correct_response	cognitive_participant_response	cognitive_response_accuracy
7.99	0.99	vicarious	cue	1	low_cue	n/a	n/a	n/a	n/a	n/a	n/a	n/a	task-social/cue/runtype-vicarious/scl/l044.png	n/a	n/a	n/a	n/a	n/a	n/a	n/a	n/a
11.21	2.66	vicarious	expectrating	1	low_cue	n/a	26.77	Moderate	26.77	Moderate	0.97	1.69	task-social/cue/runtype-vicarious/scl/l044.png	n/a	n/a	n/a	n/a	n/a	n/a	n/a	n/a
21.29	5.0	vicarious	stimulus	1	low_cue	med_stim	n/a	n/a	n/a	n/a	n/a	n/a	task-social/stim/runtype-vicarious/jh043t2aeunaff_M.mp4	n/a	n/a	n/a	n/a	n/a	n/a	n/a	n/a
33.4	2.53	vicarious	outcomerating	1	low_cue	med_stim	12.08	Moderate	12.08	Moderate	0.97	1.69	task-social/outcomerating/task-vicarious_scale.png	n/a	n/a	n/a	n/a	n/a	n/a	n/a	n/a
40.7	0.98	vicarious	cue	2	high_cue	n/a	n/a	n/a	n/a	n/a	n/a	n/a	task-social/cue/runtype-vicarious/sch/h032.png	n/a	n/a	n/a	n/a	n/a	n/a	n/a	n/a
43.6	2.0	vicarious	expectrating	2	high_cue	n/a	41.4	Strong	41.4	Strong	0.2	1.8	task-social/cue/runtype-vicarious/sch/h032.png	n/a	n/a	n/a	n/a	n/a	n/a	n/a	n/a
53.69	5.0	vicarious	stimulus	2	high_cue	low_stim	n/a	n/a	n/a	n/a	n/a	n/a	task-social/stim/runtype-vicarious/jh043t2aaunaff_L.mp4	n/a	n/a	n/a	n/a	n/a	n/a	n/a	n/a
61.61	2.54	vicarious	outcomerating	2	high_cue	low_stim	16.83	Moderate	16.83	Moderate	0.2	1.8	task-social/outcomerating/task-vicarious_scale.png	n/a	n/a	n/a	n/a	n/a	n/a	n/a	n/a
70.8	0.99	vicarious	cue	3	high_cue	n/a	n/a	n/a	n/a	n/a	n/a	n/a	task-social/cue/runtype-vicarious/sch/h015.png	n/a	n/a	n/a	n/a	n/a	n/a	n/a	n/a
73.7	3.85	vicarious	expectrating	3	high_cue	n/a	14.2	Moderate	14.2	Moderate	0.17	3.68	task-social/cue/runtype-vicarious/sch/h015.png	n/a	n/a	n/a	n/a	n/a	n/a	n/a	n/a
90.89	5.0	vicarious	stimulus	3	high_cue	high_stim	n/a	n/a	n/a	n/a	n/a	n/a	task-social/stim/runtype-vicarious/vw121t1aaaff_H.mp4	n/a	n/a	n/a	n/a	n/a	n/a	n/a	n/a
102.91	2.51	vicarious	outcomerating	3	high_cue	high_stim	102.58	Strongest sensation of any kind	102.58	Strongest sensation of any kind	0.17	3.68	task-social/outcomerating/task-vicarious_scale.png	n/a	n/a	n/a	n/a	n/a	n/a	n/a	n/a
108.79	0.99	vicarious	cue	4	low_cue	n/a	n/a	n/a	n/a	n/a	n/a	n/a	task-social/cue/runtype-vicarious/scl/l036.png	n/a	n/a	n/a	n/a	n/a	n/a	n/a	n/a
111.6	1.72	vicarious	expectrating	4	low_cue	n/a	38.34	Strong	38.34	Strong	0.05	1.67	task-social/cue/runtype-vicarious/scl/l036.png	n/a	n/a	n/a	n/a	n/a	n/a	n/a	n/a
119.29	5.0	vicarious	stimulus	4	low_cue	med_stim	n/a	n/a	n/a	n/a	n/a	n/a	task-social/stim/runtype-vicarious/vw121t1aiaff_M.mp4	n/a	n/a	n/a	n/a	n/a	n/a	n/a	n/a
126.8	2.02	vicarious	outcomerating	4	low_cue	med_stim	36.87	Strong	36.87	Strong	0.05	1.67	task-social/outcomerating/task-vicarious_scale.png	n/a	n/a	n/a	n/a	n/a	n/a	n/a	n/a
134.1	0.98	vicarious	cue	5	high_cue	n/a	n/a	n/a	n/a	n/a	n/a	n/a	task-social/cue/runtype-vicarious/sch/h022.png	n/a	n/a	n/a	n/a	n/a	n/a	n/a	n/a
135.7	2.37	vicarious	expectrating	5	high_cue	n/a	47.11	Strong	47.11	Strong	0.82	1.55	task-social/cue/runtype-vicarious/sch/h022.png	n/a	n/a	n/a	n/a	n/a	n/a	n/a	n/a
145.79	5.0	vicarious	stimulus	5	high_cue	low_stim	n/a	n/a	n/a	n/a	n/a	n/a	task-social/stim/runtype-vicarious/hs107t2aeunaff_L.mp4	n/a	n/a	n/a	n/a	n/a	n/a	n/a	n/a
153.41	n/a	vicarious	outcomerating	5	high_cue	low_stim	n/a	n/a	9.55	Weak	0.82	1.55	task-social/outcomerating/task-vicarious_scale.png	n/a	n/a	n/a	n/a	n/a	n/a	n/a	n/a
164.6	0.98	vicarious	cue	6	low_cue	n/a	n/a	n/a	n/a	n/a	n/a	n/a	task-social/cue/runtype-vicarious/scl/l052.png	n/a	n/a	n/a	n/a	n/a	n/a	n/a	n/a
166.9	2.58	vicarious	expectrating	6	low_cue	n/a	30.56	Strong	30.56	Strong	0.9	1.68	task-social/cue/runtype-vicarious/scl/l052.png	n/a	n/a	n/a	n/a	n/a	n/a	n/a	n/a
173.88	5.0	vicarious	stimulus	6	low_cue	high_stim	n/a	n/a	n/a	n/a	n/a	n/a	task-social/stim/runtype-vicarious/hs107t1afaff_H.mp4	n/a	n/a	n/a	n/a	n/a	n/a	n/a	n/a
189.71	2.36	vicarious	outcomerating	6	low_cue	high_stim	62.08	Strong	62.08	Strong	0.9	1.68	task-social/outcomerating/task-vicarious_scale.png	n/a	n/a	n/a	n/a	n/a	n/a	n/a	n/a
196.99	0.99	vicarious	cue	7	low_cue	n/a	n/a	n/a	n/a	n/a	n/a	n/a	task-social/cue/runtype-vicarious/scl/l013.png	n/a	n/a	n/a	n/a	n/a	n/a	n/a	n/a
199.0	3.15	vicarious	expectrating	7	low_cue	n/a	50.22	Strong	50.22	Strong	0.17	2.99	task-social/cue/runtype-vicarious/scl/l013.png	n/a	n/a	n/a	n/a	n/a	n/a	n/a	n/a
208.48	5.0	vicarious	stimulus	7	low_cue	low_stim	n/a	n/a	n/a	n/a	n/a	n/a	task-social/stim/runtype-vicarious/dn124t1aaunaff_L.mp4	n/a	n/a	n/a	n/a	n/a	n/a	n/a	n/a
220.7	2.05	vicarious	outcomerating	7	low_cue	low_stim	0.0	n/a	0.0	n/a	0.17	2.99	task-social/outcomerating/task-vicarious_scale.png	n/a	n/a	n/a	n/a	n/a	n/a	n/a	n/a
225.49	0.99	vicarious	cue	8	high_cue	n/a	n/a	n/a	n/a	n/a	n/a	n/a	task-social/cue/runtype-vicarious/sch/h010.png	n/a	n/a	n/a	n/a	n/a	n/a	n/a	n/a
227.91	2.38	vicarious	expectrating	8	high_cue	n/a	29.23	Strong	29.23	Strong	1.07	1.32	task-social/cue/runtype-vicarious/sch/h010.png	n/a	n/a	n/a	n/a	n/a	n/a	n/a	n/a
237.39	5.0	vicarious	stimulus	8	high_cue	med_stim	n/a	n/a	n/a	n/a	n/a	n/a	task-social/stim/runtype-vicarious/ak064t1aiaff_M.mp4	n/a	n/a	n/a	n/a	n/a	n/a	n/a	n/a
247.51	2.85	vicarious	outcomerating	8	high_cue	med_stim	26.36	Moderate	26.36	Moderate	1.07	1.32	task-social/outcomerating/task-vicarious_scale.png	n/a	n/a	n/a	n/a	n/a	n/a	n/a	n/a
255.1	0.98	vicarious	cue	9	low_cue	n/a	n/a	n/a	n/a	n/a	n/a	n/a	task-social/cue/runtype-vicarious/scl/l025.png	n/a	n/a	n/a	n/a	n/a	n/a	n/a	n/a
257.1	3.08	vicarious	expectrating	9	low_cue	n/a	31.64	Strong	31.64	Strong	1.37	1.72	task-social/cue/runtype-vicarious/scl/l025.png	n/a	n/a	n/a	n/a	n/a	n/a	n/a	n/a
264.79	5.0	vicarious	stimulus	9	low_cue	high_stim	n/a	n/a	n/a	n/a	n/a	n/a	task-social/stim/runtype-vicarious/jh043t2aeaff_H.mp4	n/a	n/a	n/a	n/a	n/a	n/a	n/a	n/a
278.31	2.92	vicarious	outcomerating	9	low_cue	high_stim	35.35	Strong	35.35	Strong	1.37	1.72	task-social/outcomerating/task-vicarious_scale.png	n/a	n/a	n/a	n/a	n/a	n/a	n/a	n/a
288.6	0.99	vicarious	cue	10	high_cue	n/a	n/a	n/a	n/a	n/a	n/a	n/a	task-social/cue/runtype-vicarious/sch/h033.png	n/a	n/a	n/a	n/a	n/a	n/a	n/a	n/a
291.5	2.85	vicarious	expectrating	10	high_cue	n/a	37.79	Strong	37.79	Strong	0.25	2.6	task-social/cue/runtype-vicarious/sch/h033.png	n/a	n/a	n/a	n/a	n/a	n/a	n/a	n/a
301.68	5.0	vicarious	stimulus	10	high_cue	med_stim	n/a	n/a	n/a	n/a	n/a	n/a	task-social/stim/runtype-vicarious/hs107t2aaaff_M.mp4	n/a	n/a	n/a	n/a	n/a	n/a	n/a	n/a
311.9	n/a	vicarious	outcomerating	10	high_cue	med_stim	n/a	n/a	111.46	Strongest sensation of any kind	0.25	2.6	task-social/outcomerating/task-vicarious_scale.png	n/a	n/a	n/a	n/a	n/a	n/a	n/a	n/a
319.19	0.99	vicarious	cue	11	low_cue	n/a	n/a	n/a	n/a	n/a	n/a	n/a	task-social/cue/runtype-vicarious/scl/l005.png	n/a	n/a	n/a	n/a	n/a	n/a	n/a	n/a
321.99	2.07	vicarious	expectrating	11	low_cue	n/a	51.41	Strong	51.41	Strong	0.58	1.49	task-social/cue/runtype-vicarious/scl/l005.png	n/a	n/a	n/a	n/a	n/a	n/a	n/a	n/a
332.18	5.0	vicarious	stimulus	11	low_cue	low_stim	n/a	n/a	n/a	n/a	n/a	n/a	task-social/stim/runtype-vicarious/kz120t2aaunaff_L.mp4	n/a	n/a	n/a	n/a	n/a	n/a	n/a	n/a
348.0	2.27	vicarious	outcomerating	11	low_cue	low_stim	0.23	No sensation	0.23	No sensation	0.58	1.49	task-social/outcomerating/task-vicarious_scale.png	n/a	n/a	n/a	n/a	n/a	n/a	n/a	n/a
362.49	0.99	vicarious	cue	12	high_cue	n/a	n/a	n/a	n/a	n/a	n/a	n/a	task-social/cue/runtype-vicarious/sch/h044.png	n/a	n/a	n/a	n/a	n/a	n/a	n/a	n/a
364.89	3.04	vicarious	expectrating	12	high_cue	n/a	60.45	Strong	60.45	Strong	0.38	2.66	task-social/cue/runtype-vicarious/sch/h044.png	n/a	n/a	n/a	n/a	n/a	n/a	n/a	n/a
381.58	5.0	vicarious	stimulus	12	high_cue	high_stim	n/a	n/a	n/a	n/a	n/a	n/a	task-social/stim/runtype-vicarious/jh123t1aeaff_H.mp4	n/a	n/a	n/a	n/a	n/a	n/a	n/a	n/a
394.8	n/a	vicarious	outcomerating	12	high_cue	high_stim	n/a	n/a	88.84	Very Strong	0.38	2.66	task-social/outcomerating/task-vicarious_scale.png	n/a	n/a	n/a	n/a	n/a	n/a	n/a	n/a
