onset	duration	run_type	trial_type	trial_index	cue	stimulusintensity	rating_value	rating_glmslabel	rating_value_fillna	rating_glmslabel_fillna	rating_mouseonset	rating_mousedur	stim_file	pain_onset_ttl1	pain_onset_ttl2	pain_onset_ttl3	pain_onset_ttl4	pain_stimulus_delivery_success	cognitive_correct_response	cognitive_participant_response	cognitive_response_accuracy
11.31	0.98	pain	cue	1	high_cue	n/a	n/a	n/a	n/a	n/a	n/a	n/a	task-social/cue/runtype-pain/sch/h037.png	n/a	n/a	n/a	n/a	n/a	n/a	n/a	n/a
14.21	1.52	pain	expectrating	1	high_cue	n/a	49.4	Strong	49.4	Strong	0.42	1.1	task-social/cue/runtype-pain/sch/h037.png	n/a	n/a	n/a	n/a	n/a	n/a	n/a	n/a
19.37	12.819999999999997	pain	stimulus	1	high_cue	high_stim	n/a	n/a	n/a	n/a	n/a	n/a	n/a	19.37	23.38	28.38	32.19	success	n/a	n/a	n/a
32.7	2.52	pain	outcomerating	1	high_cue	high_stim	53.36	Strong	53.36	Strong	0.42	1.1	task-social/outcomerating/task-pain_scale.png	n/a	n/a	n/a	n/a	success	n/a	n/a	n/a
44.3	1.0	pain	cue	2	low_cue	n/a	n/a	n/a	n/a	n/a	n/a	n/a	task-social/cue/runtype-pain/scl/l044.png	n/a	n/a	n/a	n/a	n/a	n/a	n/a	n/a
47.21	2.02	pain	expectrating	2	low_cue	n/a	27.81	Moderate	27.81	Moderate	0.38	1.63	task-social/cue/runtype-pain/scl/l044.png	n/a	n/a	n/a	n/a	n/a	n/a	n/a	n/a
59.42	12.829999999999998	pain	stimulus	2	low_cue	high_stim	n/a	n/a	n/a	n/a	n/a	n/a	n/a	59.42	63.43	68.43	72.24	success	n/a	n/a	n/a
70.7	1.93	pain	outcomerating	2	low_cue	high_stim	42.72	Strong	42.72	Strong	0.38	1.63	task-social/outcomerating/task-pain_scale.png	n/a	n/a	n/a	n/a	success	n/a	n/a	n/a
80.7	1.0	pain	cue	3	high_cue	n/a	n/a	n/a	n/a	n/a	n/a	n/a	task-social/cue/runtype-pain/sch/h049.png	n/a	n/a	n/a	n/a	n/a	n/a	n/a	n/a
83.7	1.47	pain	expectrating	3	high_cue	n/a	49.63	Strong	49.63	Strong	0.4	1.07	task-social/cue/runtype-pain/sch/h049.png	n/a	n/a	n/a	n/a	n/a	n/a	n/a	n/a
90.02	12.820000000000007	pain	stimulus	3	high_cue	high_stim	n/a	n/a	n/a	n/a	n/a	n/a	n/a	90.02	94.03	99.03	102.84	success	n/a	n/a	n/a
100.61	2.45	pain	outcomerating	3	high_cue	high_stim	58.75	Strong	58.75	Strong	0.4	1.07	task-social/outcomerating/task-pain_scale.png	n/a	n/a	n/a	n/a	success	n/a	n/a	n/a
105.59	1.0	pain	cue	4	low_cue	n/a	n/a	n/a	n/a	n/a	n/a	n/a	task-social/cue/runtype-pain/scl/l035.png	n/a	n/a	n/a	n/a	n/a	n/a	n/a	n/a
107.41	2.37	pain	expectrating	4	low_cue	n/a	26.98	Moderate	26.98	Moderate	0.57	1.8	task-social/cue/runtype-pain/scl/l035.png	n/a	n/a	n/a	n/a	n/a	n/a	n/a	n/a
112.52	12.370000000000005	pain	stimulus	4	low_cue	med_stim	n/a	n/a	n/a	n/a	n/a	n/a	n/a	112.52	116.28	121.28	124.89	success	n/a	n/a	n/a
126.1	1.59	pain	outcomerating	4	low_cue	med_stim	26.77	Moderate	26.77	Moderate	0.57	1.8	task-social/outcomerating/task-pain_scale.png	n/a	n/a	n/a	n/a	success	n/a	n/a	n/a
133.8	1.0	pain	cue	5	high_cue	n/a	n/a	n/a	n/a	n/a	n/a	n/a	task-social/cue/runtype-pain/sch/h009.png	n/a	n/a	n/a	n/a	n/a	n/a	n/a	n/a
135.61	2.09	pain	expectrating	5	high_cue	n/a	53.31	Strong	53.31	Strong	0.78	1.3	task-social/cue/runtype-pain/sch/h009.png	n/a	n/a	n/a	n/a	n/a	n/a	n/a	n/a
145.96	11.900000000000006	pain	stimulus	5	high_cue	low_stim	n/a	n/a	n/a	n/a	n/a	n/a	n/a	145.96	149.46	154.46	157.86	success	n/a	n/a	n/a
159.51	1.94	pain	outcomerating	5	high_cue	low_stim	47.63	Strong	47.63	Strong	0.78	1.3	task-social/outcomerating/task-pain_scale.png	n/a	n/a	n/a	n/a	success	n/a	n/a	n/a
169.5	1.0	pain	cue	6	high_cue	n/a	n/a	n/a	n/a	n/a	n/a	n/a	task-social/cue/runtype-pain/sch/h054.png	n/a	n/a	n/a	n/a	n/a	n/a	n/a	n/a
172.4	1.17	pain	expectrating	6	high_cue	n/a	61.28	Strong	61.28	Strong	0.32	0.85	task-social/cue/runtype-pain/sch/h054.png	n/a	n/a	n/a	n/a	n/a	n/a	n/a	n/a
184.94	12.360000000000014	pain	stimulus	6	high_cue	med_stim	n/a	n/a	n/a	n/a	n/a	n/a	n/a	184.94	188.7	193.7	197.31	success	n/a	n/a	n/a
196.71	1.38	pain	outcomerating	6	high_cue	med_stim	55.6	Strong	55.6	Strong	0.32	0.85	task-social/outcomerating/task-pain_scale.png	n/a	n/a	n/a	n/a	success	n/a	n/a	n/a
204.4	1.0	pain	cue	7	low_cue	n/a	n/a	n/a	n/a	n/a	n/a	n/a	task-social/cue/runtype-pain/scl/l022.png	n/a	n/a	n/a	n/a	n/a	n/a	n/a	n/a
207.3	1.9	pain	expectrating	7	low_cue	n/a	30.57	Strong	30.57	Strong	0.33	1.57	task-social/cue/runtype-pain/scl/l022.png	n/a	n/a	n/a	n/a	n/a	n/a	n/a	n/a
216.42	12.820000000000022	pain	stimulus	7	low_cue	high_stim	n/a	n/a	n/a	n/a	n/a	n/a	n/a	216.42	220.43	225.43	229.24	success	n/a	n/a	n/a
228.41	1.9	pain	outcomerating	7	low_cue	high_stim	59.43	Strong	59.43	Strong	0.33	1.57	task-social/outcomerating/task-pain_scale.png	n/a	n/a	n/a	n/a	success	n/a	n/a	n/a
234.29	1.0	pain	cue	8	high_cue	n/a	n/a	n/a	n/a	n/a	n/a	n/a	task-social/cue/runtype-pain/sch/h016.png	n/a	n/a	n/a	n/a	n/a	n/a	n/a	n/a
236.21	1.13	pain	expectrating	8	high_cue	n/a	90.97	Very Strong	90.97	Very Strong	0.35	0.78	task-social/cue/runtype-pain/sch/h016.png	n/a	n/a	n/a	n/a	n/a	n/a	n/a	n/a
242.94	11.900000000000006	pain	stimulus	8	high_cue	low_stim	n/a	n/a	n/a	n/a	n/a	n/a	n/a	242.94	246.44	251.44	254.84	success	n/a	n/a	n/a
255.7	1.39	pain	outcomerating	8	high_cue	low_stim	40.39	Strong	40.39	Strong	0.35	0.78	task-social/outcomerating/task-pain_scale.png	n/a	n/a	n/a	n/a	success	n/a	n/a	n/a
266.7	1.0	pain	cue	9	low_cue	n/a	n/a	n/a	n/a	n/a	n/a	n/a	task-social/cue/runtype-pain/scl/l056.png	n/a	n/a	n/a	n/a	n/a	n/a	n/a	n/a
268.51	1.5	pain	expectrating	9	low_cue	n/a	5.13	Weak	5.13	Weak	0.12	1.39	task-social/cue/runtype-pain/scl/l056.png	n/a	n/a	n/a	n/a	n/a	n/a	n/a	n/a
278.86	11.909999999999968	pain	stimulus	9	low_cue	low_stim	n/a	n/a	n/a	n/a	n/a	n/a	n/a	278.86	282.36	287.36	290.76	success	n/a	n/a	n/a
289.0	2.02	pain	outcomerating	9	low_cue	low_stim	34.07	Strong	34.07	Strong	0.12	1.39	task-social/outcomerating/task-pain_scale.png	n/a	n/a	n/a	n/a	success	n/a	n/a	n/a
294.8	1.0	pain	cue	10	high_cue	n/a	n/a	n/a	n/a	n/a	n/a	n/a	task-social/cue/runtype-pain/sch/h004.png	n/a	n/a	n/a	n/a	n/a	n/a	n/a	n/a
297.3	1.42	pain	expectrating	10	high_cue	n/a	46.46	Strong	46.46	Strong	0.22	1.2	task-social/cue/runtype-pain/sch/h004.png	n/a	n/a	n/a	n/a	n/a	n/a	n/a	n/a
305.93	12.360000000000014	pain	stimulus	10	high_cue	med_stim	n/a	n/a	n/a	n/a	n/a	n/a	n/a	305.93	309.69	314.69	318.3	success	n/a	n/a	n/a
317.21	1.55	pain	outcomerating	10	high_cue	med_stim	73.86	Very Strong	73.86	Very Strong	0.22	1.2	task-social/outcomerating/task-pain_scale.png	n/a	n/a	n/a	n/a	success	n/a	n/a	n/a
327.09	1.0	pain	cue	11	low_cue	n/a	n/a	n/a	n/a	n/a	n/a	n/a	task-social/cue/runtype-pain/scl/l047.png	n/a	n/a	n/a	n/a	n/a	n/a	n/a	n/a
330.0	2.55	pain	expectrating	11	low_cue	n/a	40.93	Strong	40.93	Strong	0.05	2.5	task-social/cue/runtype-pain/scl/l047.png	n/a	n/a	n/a	n/a	n/a	n/a	n/a	n/a
340.94	12.370000000000005	pain	stimulus	11	low_cue	med_stim	n/a	n/a	n/a	n/a	n/a	n/a	n/a	340.94	344.7	349.7	353.31	success	n/a	n/a	n/a
361.51	1.68	pain	outcomerating	11	low_cue	med_stim	50.83	Strong	50.83	Strong	0.05	2.5	task-social/outcomerating/task-pain_scale.png	n/a	n/a	n/a	n/a	success	n/a	n/a	n/a
366.51	0.98	pain	cue	12	low_cue	n/a	n/a	n/a	n/a	n/a	n/a	n/a	task-social/cue/runtype-pain/scl/l015.png	n/a	n/a	n/a	n/a	n/a	n/a	n/a	n/a
369.41	1.23	pain	expectrating	12	low_cue	n/a	29.48	Strong	29.48	Strong	0.32	0.92	task-social/cue/runtype-pain/scl/l015.png	n/a	n/a	n/a	n/a	n/a	n/a	n/a	n/a
374.22	11.909999999999968	pain	stimulus	12	low_cue	low_stim	n/a	n/a	n/a	n/a	n/a	n/a	n/a	374.22	377.72	382.72	386.12	success	n/a	n/a	n/a
394.8	2.16	pain	outcomerating	12	low_cue	low_stim	45.0	Strong	45.0	Strong	0.32	0.92	task-social/outcomerating/task-pain_scale.png	n/a	n/a	n/a	n/a	success	n/a	n/a	n/a
