onset	duration	trial_type	response_x	response_y	situation	context	modality	stim_file
8.849	32.168	narrative_presentation	n/a	n/a	Slaying of kin unrecognized	town	Text	task-narratives/Narrative3Situation1.txt
41.017	3.3	rating_feeling	659	452	Slaying of kin unrecognized	town	Text	n/a
41.967	2.35	feeling_mouse_trajectory	659	452	Slaying of kin unrecognized	town	Text	n/a
45.134	2.4	rating_expectation	622	418	Slaying of kin unrecognized	town	Text	n/a
46.084	1.45	expectation_mouse_trajectory	622	418	Slaying of kin unrecognized	town	Text	n/a
53.215	17.095	narrative_presentation	n/a	n/a	Erroneous judgement	town	Text	task-narratives/Narrative3Situation2.txt
70.311	3.983	rating_feeling	812	553	Erroneous judgement	town	Text	n/a
71.477	2.817	feeling_mouse_trajectory	812	553	Erroneous judgement	town	Text	n/a
74.327	3.75	rating_expectation	1044	566	Erroneous judgement	town	Text	n/a
75.76	2.317	expectation_mouse_trajectory	1044	566	Erroneous judgement	town	Text	n/a
80.392	10.393	narrative_presentation	n/a	n/a	Revolt	town	Text	task-narratives/Narrative3Situation3.txt
90.785	3.9	rating_feeling	881	487	Revolt	town	Text	n/a
91.769	2.917	feeling_mouse_trajectory	881	487	Revolt	town	Text	n/a
94.801	2.95	rating_expectation	806	520	Revolt	town	Text	n/a
95.635	2.117	expectation_mouse_trajectory	806	520	Revolt	town	Text	n/a
99.883	28.149	narrative_presentation	n/a	n/a	The enigma	city	Text	task-narratives/Narrative3Situation4.txt
128.031	3.75	rating_feeling	846	524	The enigma	city	Text	n/a
129.381	2.4	feeling_mouse_trajectory	846	524	The enigma	city	Text	n/a
132.048	0.933	rating_expectation	845	535	The enigma	city	Text	n/a
132.098	0.883	expectation_mouse_trajectory	845	535	The enigma	city	Text	n/a
139.147	15.08	narrative_presentation	n/a	n/a	Deliverance	city	Text	task-narratives/Narrative3Situation5.txt
154.228	2.233	rating_feeling	732	507	Deliverance	city	Text	n/a
155.095	1.367	feeling_mouse_trajectory	732	507	Deliverance	city	Text	n/a
158.243	2.567	rating_expectation	703	440	Deliverance	city	Text	n/a
159.143	1.667	expectation_mouse_trajectory	703	440	Deliverance	city	Text	n/a
165.307	15.076	narrative_presentation	n/a	n/a	Remorse	city	Text	task-narratives/Narrative3Situation6.txt
180.384	2.75	rating_feeling	1065	564	Remorse	city	Text	n/a
181.717	1.417	feeling_mouse_trajectory	1065	564	Remorse	city	Text	n/a
184.402	1.517	rating_expectation	1128	533	Remorse	city	Text	n/a
184.835	1.083	expectation_mouse_trajectory	1128	533	Remorse	city	Text	n/a
192.467	36.851	narrative_presentation	n/a	n/a	Loss of loved one	forest	Text	task-narratives/Narrative3Situation7.txt
229.318	3.95	rating_feeling	793	566	Loss of loved one	forest	Text	n/a
230.385	2.883	feeling_mouse_trajectory	793	566	Loss of loved one	forest	Text	n/a
233.336	1.883	rating_expectation	805	522	Loss of loved one	forest	Text	n/a
233.452	1.767	expectation_mouse_trajectory	805	522	Loss of loved one	forest	Text	n/a
239.418	9.707	narrative_presentation	n/a	n/a	All sacrificed for passion	forest	Text	task-narratives/Narrative3Situation8.txt
249.125	3.15	rating_feeling	788	487	All sacrificed for passion	forest	Text	n/a
249.691	2.583	feeling_mouse_trajectory	788	487	All sacrificed for passion	forest	Text	n/a
253.144	2.6	rating_expectation	734	479	All sacrificed for passion	forest	Text	n/a
254.21	1.533	expectation_mouse_trajectory	734	479	All sacrificed for passion	forest	Text	n/a
258.225	27.483	narrative_presentation	n/a	n/a	Discovery of dishonour of loved one	forest	Text	task-narratives/Narrative3Situation9.txt
285.708	1.9	rating_feeling	629	420	Discovery of dishonour of loved one	forest	Text	n/a
286.608	1.0	feeling_mouse_trajectory	629	420	Discovery of dishonour of loved one	forest	Text	n/a
289.724	2.467	rating_expectation	592	460	Discovery of dishonour of loved one	forest	Text	n/a
291.257	0.933	expectation_mouse_trajectory	592	460	Discovery of dishonour of loved one	forest	Text	n/a
295.806	22.446	narrative_presentation	n/a	n/a	Conflict with a god	swamp	Text	task-narratives/Narrative4Situation1.txt
318.252	3.45	rating_feeling	773	558	Conflict with a god	swamp	Text	n/a
320.819	0.883	feeling_mouse_trajectory	773	558	Conflict with a god	swamp	Text	n/a
322.269	2.367	rating_expectation	837	538	Conflict with a god	swamp	Text	n/a
323.403	1.233	expectation_mouse_trajectory	837	538	Conflict with a god	swamp	Text	n/a
331.352	24.797	narrative_presentation	n/a	n/a	Adultery	swamp	Text	task-narratives/Narrative4Situation2.txt
356.15	2.083	rating_feeling	560	458	Adultery	swamp	Text	n/a
356.9	1.333	feeling_mouse_trajectory	560	458	Adultery	swamp	Text	n/a
360.167	2.583	rating_expectation	564	425	Adultery	swamp	Text	n/a
361.184	1.567	expectation_mouse_trajectory	564	425	Adultery	swamp	Text	n/a
366.249	21.113	narrative_presentation	n/a	n/a	Slaying of kin unrecognized	swamp	Text	task-narratives/Narrative4Situation3.txt
387.361	1.867	rating_feeling	613	391	Slaying of kin unrecognized	swamp	Text	n/a
388.278	0.95	feeling_mouse_trajectory	613	391	Slaying of kin unrecognized	swamp	Text	n/a
391.378	1.75	rating_expectation	601	402	Slaying of kin unrecognized	swamp	Text	n/a
392.395	0.733	expectation_mouse_trajectory	601	402	Slaying of kin unrecognized	swamp	Text	n/a
396.443	21.113	narrative_presentation	n/a	n/a	Fatal imprudence	hospital	Text	task-narratives/Narrative4Situation4.txt
417.556	1.583	rating_feeling	625	447	Fatal imprudence	hospital	Text	n/a
418.09	1.05	feeling_mouse_trajectory	625	447	Fatal imprudence	hospital	Text	n/a
421.573	2.633	rating_expectation	553	421	Fatal imprudence	hospital	Text	n/a
422.306	1.9	expectation_mouse_trajectory	553	421	Fatal imprudence	hospital	Text	n/a
426.638	25.797	narrative_presentation	n/a	n/a	Erroneous judgement	hospital	Text	task-narratives/Narrative4Situation5.txt
452.435	1.617	rating_feeling	645	411	Erroneous judgement	hospital	Text	n/a
452.835	1.217	feeling_mouse_trajectory	645	411	Erroneous judgement	hospital	Text	n/a
456.453	1.717	rating_expectation	624	444	Erroneous judgement	hospital	Text	n/a
457.47	0.7	expectation_mouse_trajectory	624	444	Erroneous judgement	hospital	Text	n/a
461.534	23.446	narrative_presentation	n/a	n/a	Necessity of sacrificing loved ones	hospital	Text	task-narratives/Narrative4Situation6.txt
484.98	3.917	rating_feeling	715	465	Necessity of sacrificing loved ones	hospital	Text	n/a
485.997	2.9	feeling_mouse_trajectory	715	465	Necessity of sacrificing loved ones	hospital	Text	n/a
488.999	2.25	rating_expectation	786	534	Necessity of sacrificing loved ones	hospital	Text	n/a
489.066	2.183	expectation_mouse_trajectory	786	534	Necessity of sacrificing loved ones	hospital	Text	n/a
494.063	19.094	narrative_presentation	n/a	n/a	Recovery of a lost one	prison	Text	task-narratives/Narrative4Situation7.txt
513.157	3.217	rating_feeling	842	540	Recovery of a lost one	prison	Text	n/a
514.157	2.217	feeling_mouse_trajectory	842	540	Recovery of a lost one	prison	Text	n/a
517.176	2.433	rating_expectation	879	486	Recovery of a lost one	prison	Text	n/a
517.642	1.967	expectation_mouse_trajectory	879	486	Recovery of a lost one	prison	Text	n/a
522.24	38.536	narrative_presentation	n/a	n/a	Crimes of love	prison	Text	task-narratives/Narrative4Situation8.txt
560.776	2.217	rating_feeling	599	391	Crimes of love	prison	Text	n/a
561.759	1.233	feeling_mouse_trajectory	599	391	Crimes of love	prison	Text	n/a
564.793	2.067	rating_expectation	578	385	Crimes of love	prison	Text	n/a
565.51	1.35	expectation_mouse_trajectory	578	385	Crimes of love	prison	Text	n/a
573.86	12.392	narrative_presentation	n/a	n/a	Abduction	prison	Text	task-narratives/Narrative4Situation9.txt
586.251	2.733	rating_feeling	660	384	Abduction	prison	Text	n/a
587.035	1.95	feeling_mouse_trajectory	660	384	Abduction	prison	Text	n/a
590.27	2.95	rating_expectation	568	409	Abduction	prison	Text	n/a
591.153	2.067	expectation_mouse_trajectory	568	409	Abduction	prison	Text	n/a
