onset	duration	trial_type	response_x	response_y	situation	context	modality	stim_file
4.819	54.295	narrative_presentation	n/a	n/a	Deliverance	prison	Audio	task-narratives/Narrative7Situation1.mp3
59.114	3.417	rating_feeling	665.0	486.0	Deliverance	prison	Audio	task-narratives/Narrative7Situation1.mp3
60.531	2.0	feeling_mouse_trajectory	665.0	486.0	Deliverance	prison	Audio	task-narratives/Narrative7Situation1.mp3
63.171	3.983	rating_expectation	988.0	592.0	Deliverance	prison	Audio	task-narratives/Narrative7Situation1.mp3
64.871	2.283	expectation_mouse_trajectory	988.0	592.0	Deliverance	prison	Audio	task-narratives/Narrative7Situation1.mp3
70.375	5.942	narrative_presentation	n/a	n/a	Abduction	town	Audio	task-narratives/Narrative7Situation2.mp3
76.318	3.9	rating_feeling	665.0	486.0	Abduction	town	Audio	task-narratives/Narrative7Situation2.mp3
77.768	2.45	feeling_mouse_trajectory	665.0	486.0	Abduction	town	Audio	task-narratives/Narrative7Situation2.mp3
80.344	2.733	rating_expectation	988.0	592.0	Abduction	town	Audio	task-narratives/Narrative7Situation2.mp3
81.777	1.3	expectation_mouse_trajectory	988.0	592.0	Abduction	town	Audio	task-narratives/Narrative7Situation2.mp3
92.418	7.458	narrative_presentation	n/a	n/a	Pursuit	prison	Audio	task-narratives/Narrative7Situation3.mp3
99.876	3.983	rating_feeling	665.0	486.0	Pursuit	prison	Audio	task-narratives/Narrative7Situation3.mp3
101.676	2.183	feeling_mouse_trajectory	665.0	486.0	Pursuit	prison	Audio	task-narratives/Narrative7Situation3.mp3
103.903	2.283	rating_expectation	988.0	592.0	Pursuit	prison	Audio	task-narratives/Narrative7Situation3.mp3
103.936	2.25	expectation_mouse_trajectory	988.0	592.0	Pursuit	prison	Audio	task-narratives/Narrative7Situation3.mp3
110.991	11.477	narrative_presentation	n/a	n/a	Obtaining	city	Audio	task-narratives/Narrative7Situation4.mp3
122.469	3.233	rating_feeling	665.0	486.0	Obtaining	city	Audio	task-narratives/Narrative7Situation4.mp3
123.535	2.167	feeling_mouse_trajectory	665.0	486.0	Obtaining	city	Audio	task-narratives/Narrative7Situation4.mp3
126.499	2.683	rating_expectation	988.0	592.0	Obtaining	city	Audio	task-narratives/Narrative7Situation4.mp3
127.749	1.433	expectation_mouse_trajectory	988.0	592.0	Obtaining	city	Audio	task-narratives/Narrative7Situation4.mp3
135.568	7.989	narrative_presentation	n/a	n/a	Recovery of a lost one	park	Audio	task-narratives/Narrative7Situation5.mp3
143.558	3.933	rating_feeling	665.0	486.0	Recovery of a lost one	park	Audio	task-narratives/Narrative7Situation5.mp3
144.658	2.833	feeling_mouse_trajectory	665.0	486.0	Recovery of a lost one	park	Audio	task-narratives/Narrative7Situation5.mp3
147.588	2.567	rating_expectation	988.0	592.0	Recovery of a lost one	park	Audio	task-narratives/Narrative7Situation5.mp3
148.588	1.567	expectation_mouse_trajectory	988.0	592.0	Recovery of a lost one	park	Audio	task-narratives/Narrative7Situation5.mp3
154.673	8.777	narrative_presentation	n/a	n/a	Rivalry of kin	city	Audio	task-narratives/Narrative7Situation6.mp3
163.45	3.733	rating_feeling	665.0	486.0	Rivalry of kin	city	Audio	task-narratives/Narrative7Situation6.mp3
164.467	2.717	feeling_mouse_trajectory	665.0	486.0	Rivalry of kin	city	Audio	task-narratives/Narrative7Situation6.mp3
167.476	3.767	rating_expectation	988.0	592.0	Rivalry of kin	city	Audio	task-narratives/Narrative7Situation6.mp3
168.876	2.367	expectation_mouse_trajectory	988.0	592.0	Rivalry of kin	city	Audio	task-narratives/Narrative7Situation6.mp3
176.549	16.666	narrative_presentation	n/a	n/a	Involuntary crimes of love	hospital	Audio	task-narratives/Narrative7Situation7.mp3
193.215	n/a	rating_feeling	665.0	486.0	Involuntary crimes of love	hospital	Audio	task-narratives/Narrative7Situation7.mp3
n/a	n/a	feeling_mouse_trajectory	665.0	486.0	Involuntary crimes of love	hospital	Audio	task-narratives/Narrative7Situation7.mp3
197.237	2.083	rating_expectation	988.0	592.0	Involuntary crimes of love	hospital	Audio	task-narratives/Narrative7Situation7.mp3
197.87	1.45	expectation_mouse_trajectory	988.0	592.0	Involuntary crimes of love	hospital	Audio	task-narratives/Narrative7Situation7.mp3
203.292	8.783	narrative_presentation	n/a	n/a	Rivalry of superior versus inferior	beach	Audio	task-narratives/Narrative7Situation8.mp3
212.075	1.267	rating_feeling	665.0	486.0	Rivalry of superior versus inferior	beach	Audio	task-narratives/Narrative7Situation8.mp3
212.658	0.683	feeling_mouse_trajectory	665.0	486.0	Rivalry of superior versus inferior	beach	Audio	task-narratives/Narrative7Situation8.mp3
216.094	3.533	rating_expectation	988.0	592.0	Rivalry of superior versus inferior	beach	Audio	task-narratives/Narrative7Situation8.mp3
217.327	2.3	expectation_mouse_trajectory	988.0	592.0	Rivalry of superior versus inferior	beach	Audio	task-narratives/Narrative7Situation8.mp3
222.148	7.976	narrative_presentation	n/a	n/a	Ambition	hospital	Audio	task-narratives/Narrative7Situation9.mp3
230.124	3.55	rating_feeling	665.0	486.0	Ambition	hospital	Audio	task-narratives/Narrative7Situation9.mp3
230.557	3.117	feeling_mouse_trajectory	665.0	486.0	Ambition	hospital	Audio	task-narratives/Narrative7Situation9.mp3
234.15	3.333	rating_expectation	988.0	592.0	Ambition	hospital	Audio	task-narratives/Narrative7Situation9.mp3
235.267	2.217	expectation_mouse_trajectory	988.0	592.0	Ambition	hospital	Audio	task-narratives/Narrative7Situation9.mp3
243.223	15.312	narrative_presentation	n/a	n/a	Deliverance	prison	Audio	task-narratives/Narrative8Situation1.mp3
258.534	1.917	rating_feeling	665.0	486.0	Deliverance	prison	Audio	task-narratives/Narrative8Situation1.mp3
259.418	1.033	feeling_mouse_trajectory	665.0	486.0	Deliverance	prison	Audio	task-narratives/Narrative8Situation1.mp3
262.561	2.117	rating_expectation	988.0	592.0	Deliverance	prison	Audio	task-narratives/Narrative8Situation1.mp3
264.278	0.4	expectation_mouse_trajectory	988.0	592.0	Deliverance	prison	Audio	task-narratives/Narrative8Situation1.mp3
269.615	8.779	narrative_presentation	n/a	n/a	Abduction	town	Audio	task-narratives/Narrative8Situation2.mp3
278.394	2.75	rating_feeling	665.0	486.0	Abduction	town	Audio	task-narratives/Narrative8Situation2.mp3
279.711	1.433	feeling_mouse_trajectory	665.0	486.0	Abduction	town	Audio	task-narratives/Narrative8Situation2.mp3
282.419	3.633	rating_expectation	988.0	592.0	Abduction	town	Audio	task-narratives/Narrative8Situation2.mp3
283.785	2.267	expectation_mouse_trajectory	988.0	592.0	Abduction	town	Audio	task-narratives/Narrative8Situation2.mp3
290.475	22.15	narrative_presentation	n/a	n/a	Pursuit	prison	Audio	task-narratives/Narrative8Situation3.mp3
312.624	3.133	rating_feeling	665.0	486.0	Pursuit	prison	Audio	task-narratives/Narrative8Situation3.mp3
313.158	2.6	feeling_mouse_trajectory	665.0	486.0	Pursuit	prison	Audio	task-narratives/Narrative8Situation3.mp3
316.648	1.9	rating_expectation	988.0	592.0	Pursuit	prison	Audio	task-narratives/Narrative8Situation3.mp3
316.815	1.733	expectation_mouse_trajectory	988.0	592.0	Pursuit	prison	Audio	task-narratives/Narrative8Situation3.mp3
323.703	12.611	narrative_presentation	n/a	n/a	Obtaining	city	Audio	task-narratives/Narrative8Situation4.mp3
336.314	3.433	rating_feeling	665.0	486.0	Obtaining	city	Audio	task-narratives/Narrative8Situation4.mp3
336.931	2.817	feeling_mouse_trajectory	665.0	486.0	Obtaining	city	Audio	task-narratives/Narrative8Situation4.mp3
340.34	2.617	rating_expectation	988.0	592.0	Obtaining	city	Audio	task-narratives/Narrative8Situation4.mp3
341.24	1.717	expectation_mouse_trajectory	988.0	592.0	Obtaining	city	Audio	task-narratives/Narrative8Situation4.mp3
346.394	6.61	narrative_presentation	n/a	n/a	Recovery of a lost one	park	Audio	task-narratives/Narrative8Situation5.mp3
353.004	2.883	rating_feeling	665.0	486.0	Recovery of a lost one	park	Audio	task-narratives/Narrative8Situation5.mp3
354.621	1.267	feeling_mouse_trajectory	665.0	486.0	Recovery of a lost one	park	Audio	task-narratives/Narrative8Situation5.mp3
357.029	3.417	rating_expectation	988.0	592.0	Recovery of a lost one	park	Audio	task-narratives/Narrative8Situation5.mp3
357.963	2.483	expectation_mouse_trajectory	988.0	592.0	Recovery of a lost one	park	Audio	task-narratives/Narrative8Situation5.mp3
363.085	5.977	narrative_presentation	n/a	n/a	Rivalry of kin	city	Audio	task-narratives/Narrative8Situation6.mp3
369.061	3.95	rating_feeling	665.0	486.0	Rivalry of kin	city	Audio	task-narratives/Narrative8Situation6.mp3
370.878	2.133	feeling_mouse_trajectory	665.0	486.0	Rivalry of kin	city	Audio	task-narratives/Narrative8Situation6.mp3
373.085	3.417	rating_expectation	988.0	592.0	Rivalry of kin	city	Audio	task-narratives/Narrative8Situation6.mp3
373.152	3.35	expectation_mouse_trajectory	988.0	592.0	Rivalry of kin	city	Audio	task-narratives/Narrative8Situation6.mp3
380.14	10.779	narrative_presentation	n/a	n/a	Involuntary crimes of love	hospital	Audio	task-narratives/Narrative8Situation7.mp3
390.919	3.767	rating_feeling	665.0	486.0	Involuntary crimes of love	hospital	Audio	task-narratives/Narrative8Situation7.mp3
391.619	3.067	feeling_mouse_trajectory	665.0	486.0	Involuntary crimes of love	hospital	Audio	task-narratives/Narrative8Situation7.mp3
394.944	2.3	rating_expectation	988.0	592.0	Involuntary crimes of love	hospital	Audio	task-narratives/Narrative8Situation7.mp3
395.844	1.4	expectation_mouse_trajectory	988.0	592.0	Involuntary crimes of love	hospital	Audio	task-narratives/Narrative8Situation7.mp3
401.999	11.3	narrative_presentation	n/a	n/a	Rivalry of superior versus inferior	beach	Audio	task-narratives/Narrative8Situation8.mp3
413.299	3.667	rating_feeling	665.0	486.0	Rivalry of superior versus inferior	beach	Audio	task-narratives/Narrative8Situation8.mp3
414.065	2.9	feeling_mouse_trajectory	665.0	486.0	Rivalry of superior versus inferior	beach	Audio	task-narratives/Narrative8Situation8.mp3
417.319	2.85	rating_expectation	988.0	592.0	Rivalry of superior versus inferior	beach	Audio	task-narratives/Narrative8Situation8.mp3
418.519	1.65	expectation_mouse_trajectory	988.0	592.0	Rivalry of superior versus inferior	beach	Audio	task-narratives/Narrative8Situation8.mp3
424.373	10.114	narrative_presentation	n/a	n/a	Ambition	hospital	Audio	task-narratives/Narrative8Situation9.mp3
434.487	2.967	rating_feeling	665.0	486.0	Ambition	hospital	Audio	task-narratives/Narrative8Situation9.mp3
435.72	1.733	feeling_mouse_trajectory	665.0	486.0	Ambition	hospital	Audio	task-narratives/Narrative8Situation9.mp3
438.51	2.033	rating_expectation	988.0	592.0	Ambition	hospital	Audio	task-narratives/Narrative8Situation9.mp3
439.127	1.417	expectation_mouse_trajectory	988.0	592.0	Ambition	hospital	Audio	task-narratives/Narrative8Situation9.mp3
