onset	duration	trial_type	response_x	response_y	situation	context	modality	stim_file
5.833	10.392	narrative_presentation	n/a	n/a	Supplication	hospital	Text	task-narratives/Narrative1Situation1.txt
16.226	3.285	rating_feeling	946	595	Supplication	hospital	Text	task-narratives/Narrative1Situation1.txt
18.509	1.001	feeling_mouse_trajectory	946	595	Supplication	hospital	Text	task-narratives/Narrative1Situation1.txt
20.274	3.968	rating_expectation	842	527	Supplication	hospital	Text	task-narratives/Narrative1Situation1.txt
22.124	2.118	expectation_mouse_trajectory	842	527	Supplication	hospital	Text	task-narratives/Narrative1Situation1.txt
26.341	14.413	narrative_presentation	n/a	n/a	Enmity of kin	forest	Text	task-narratives/Narrative1Situation2.txt
40.754	3.304	rating_feeling	946	595	Enmity of kin	forest	Text	task-narratives/Narrative1Situation2.txt
42.404	1.654	feeling_mouse_trajectory	946	595	Enmity of kin	forest	Text	task-narratives/Narrative1Situation2.txt
44.786	1.819	rating_expectation	842	527	Enmity of kin	forest	Text	task-narratives/Narrative1Situation2.txt
45.436	1.169	expectation_mouse_trajectory	842	527	Enmity of kin	forest	Text	task-narratives/Narrative1Situation2.txt
49.85	20.778	narrative_presentation	n/a	n/a	Murderous adultury	hospital	Text	task-narratives/Narrative1Situation3.txt
70.628	2.01	rating_feeling	946	595	Murderous adultury	hospital	Text	task-narratives/Narrative1Situation3.txt
71.361	1.276	feeling_mouse_trajectory	946	595	Murderous adultury	hospital	Text	task-narratives/Narrative1Situation3.txt
74.645	1.892	rating_expectation	842	527	Murderous adultury	hospital	Text	task-narratives/Narrative1Situation3.txt
75.045	1.492	expectation_mouse_trajectory	842	527	Murderous adultury	hospital	Text	task-narratives/Narrative1Situation3.txt
81.712	18.426	narrative_presentation	n/a	n/a	Murderous adultury	town	Text	task-narratives/Narrative1Situation4.txt
100.138	1.918	rating_feeling	946	595	Murderous adultury	town	Text	task-narratives/Narrative1Situation4.txt
100.555	1.501	feeling_mouse_trajectory	946	595	Murderous adultury	town	Text	task-narratives/Narrative1Situation4.txt
104.156	2.034	rating_expectation	842	527	Murderous adultury	town	Text	task-narratives/Narrative1Situation4.txt
104.572	1.618	expectation_mouse_trajectory	842	527	Murderous adultury	town	Text	task-narratives/Narrative1Situation4.txt
111.239	11.057	narrative_presentation	n/a	n/a	Slaying of kin unrecognized	town	Text	task-narratives/Narrative1Situation5.txt
122.297	2.874	rating_feeling	946	595	Slaying of kin unrecognized	town	Text	task-narratives/Narrative1Situation5.txt
122.98	2.19	feeling_mouse_trajectory	946	595	Slaying of kin unrecognized	town	Text	task-narratives/Narrative1Situation5.txt
126.314	1.872	rating_expectation	842	527	Slaying of kin unrecognized	town	Text	task-narratives/Narrative1Situation5.txt
126.631	1.556	expectation_mouse_trajectory	842	527	Slaying of kin unrecognized	town	Text	task-narratives/Narrative1Situation5.txt
131.397	25.129	narrative_presentation	n/a	n/a	Ambition	town	Text	task-narratives/Narrative1Situation6.txt
156.526	3.983	rating_feeling	946	595	Ambition	town	Text	task-narratives/Narrative1Situation6.txt
157.26	3.25	feeling_mouse_trajectory	946	595	Ambition	town	Text	task-narratives/Narrative1Situation6.txt
160.552	3.218	rating_expectation	842	527	Ambition	town	Text	task-narratives/Narrative1Situation6.txt
160.586	3.185	expectation_mouse_trajectory	842	527	Ambition	town	Text	task-narratives/Narrative1Situation6.txt
167.627	22.111	narrative_presentation	n/a	n/a	Fatal imprudence	prison	Text	task-narratives/Narrative1Situation7.txt
189.738	3.185	rating_feeling	946	595	Fatal imprudence	prison	Text	task-narratives/Narrative1Situation7.txt
190.672	2.251	feeling_mouse_trajectory	946	595	Fatal imprudence	prison	Text	task-narratives/Narrative1Situation7.txt
193.756	2.001	rating_expectation	842	527	Fatal imprudence	prison	Text	task-narratives/Narrative1Situation7.txt
194.506	1.251	expectation_mouse_trajectory	842	527	Fatal imprudence	prison	Text	task-narratives/Narrative1Situation7.txt
198.822	12.391	narrative_presentation	n/a	n/a	Discovery of dishonour of loved one	hospital	Text	task-narratives/Narrative1Situation8.txt
211.213	2.207	rating_feeling	946	595	Discovery of dishonour of loved one	hospital	Text	task-narratives/Narrative1Situation8.txt
211.83	1.591	feeling_mouse_trajectory	946	595	Discovery of dishonour of loved one	hospital	Text	task-narratives/Narrative1Situation8.txt
215.23	1.339	rating_expectation	842	527	Discovery of dishonour of loved one	hospital	Text	task-narratives/Narrative1Situation8.txt
215.48	1.089	expectation_mouse_trajectory	842	527	Discovery of dishonour of loved one	hospital	Text	task-narratives/Narrative1Situation8.txt
227.316	29.48	narrative_presentation	n/a	n/a	Abduction	prison	Text	task-narratives/Narrative1Situation9.txt
256.796	2.074	rating_feeling	946	595	Abduction	prison	Text	task-narratives/Narrative1Situation9.txt
257.13	1.74	feeling_mouse_trajectory	946	595	Abduction	prison	Text	task-narratives/Narrative1Situation9.txt
260.819	3.883	rating_expectation	842	527	Abduction	prison	Text	task-narratives/Narrative1Situation9.txt
261.269	3.433	expectation_mouse_trajectory	842	527	Abduction	prison	Text	task-narratives/Narrative1Situation9.txt
273.917	22.111	narrative_presentation	n/a	n/a	Supplication	hospital	Text	task-narratives/Narrative2Situation1.txt
296.028	2.442	rating_feeling	946	595	Supplication	hospital	Text	task-narratives/Narrative2Situation1.txt
296.745	1.726	feeling_mouse_trajectory	946	595	Supplication	hospital	Text	task-narratives/Narrative2Situation1.txt
300.045	1.857	rating_expectation	842	527	Supplication	hospital	Text	task-narratives/Narrative2Situation1.txt
300.112	1.791	expectation_mouse_trajectory	842	527	Supplication	hospital	Text	task-narratives/Narrative2Situation1.txt
306.129	36.183	narrative_presentation	n/a	n/a	Enmity of kin	forest	Text	task-narratives/Narrative2Situation2.txt
342.311	2.658	rating_feeling	946	595	Enmity of kin	forest	Text	task-narratives/Narrative2Situation2.txt
343.111	1.858	feeling_mouse_trajectory	946	595	Enmity of kin	forest	Text	task-narratives/Narrative2Situation2.txt
346.329	2.707	rating_expectation	842	527	Enmity of kin	forest	Text	task-narratives/Narrative2Situation2.txt
346.713	2.324	expectation_mouse_trajectory	842	527	Enmity of kin	forest	Text	task-narratives/Narrative2Situation2.txt
354.413	9.374	narrative_presentation	n/a	n/a	Murderous adultury	hospital	Text	task-narratives/Narrative2Situation3.txt
363.787	3.101	rating_feeling	946	595	Murderous adultury	hospital	Text	task-narratives/Narrative2Situation3.txt
365.671	1.218	feeling_mouse_trajectory	946	595	Murderous adultury	hospital	Text	task-narratives/Narrative2Situation3.txt
367.804	1.667	rating_expectation	842	527	Murderous adultury	hospital	Text	task-narratives/Narrative2Situation3.txt
367.837	1.634	expectation_mouse_trajectory	842	527	Murderous adultury	hospital	Text	task-narratives/Narrative2Situation3.txt
374.871	18.427	narrative_presentation	n/a	n/a	Murderous adultury	town	Text	task-narratives/Narrative2Situation4.txt
393.298	2.189	rating_feeling	946	595	Murderous adultury	town	Text	task-narratives/Narrative2Situation4.txt
393.698	1.789	feeling_mouse_trajectory	946	595	Murderous adultury	town	Text	task-narratives/Narrative2Situation4.txt
397.319	2.488	rating_expectation	842	527	Murderous adultury	town	Text	task-narratives/Narrative2Situation4.txt
397.803	2.005	expectation_mouse_trajectory	842	527	Murderous adultury	town	Text	task-narratives/Narrative2Situation4.txt
404.382	16.742	narrative_presentation	n/a	n/a	Slaying of kin unrecognized	town	Text	task-narratives/Narrative2Situation5.txt
421.124	2.601	rating_feeling	946	595	Slaying of kin unrecognized	town	Text	task-narratives/Narrative2Situation5.txt
421.808	1.918	feeling_mouse_trajectory	946	595	Slaying of kin unrecognized	town	Text	task-narratives/Narrative2Situation5.txt
425.142	1.811	rating_expectation	842	527	Slaying of kin unrecognized	town	Text	task-narratives/Narrative2Situation5.txt
425.309	1.644	expectation_mouse_trajectory	842	527	Slaying of kin unrecognized	town	Text	task-narratives/Narrative2Situation5.txt
431.209	5.696	narrative_presentation	n/a	n/a	Ambition	town	Text	task-narratives/Narrative2Situation6.txt
436.904	1.907	rating_feeling	946	595	Ambition	town	Text	task-narratives/Narrative2Situation6.txt
437.654	1.157	feeling_mouse_trajectory	946	595	Ambition	town	Text	task-narratives/Narrative2Situation6.txt
440.936	1.705	rating_expectation	842	527	Ambition	town	Text	task-narratives/Narrative2Situation6.txt
440.969	1.672	expectation_mouse_trajectory	842	527	Ambition	town	Text	task-narratives/Narrative2Situation6.txt
445.998	19.094	narrative_presentation	n/a	n/a	Fatal imprudence	prison	Text	task-narratives/Narrative2Situation7.txt
465.091	3.867	rating_feeling	946	595	Fatal imprudence	prison	Text	task-narratives/Narrative2Situation7.txt
467.025	1.933	feeling_mouse_trajectory	946	595	Fatal imprudence	prison	Text	task-narratives/Narrative2Situation7.txt
469.108	1.851	rating_expectation	842	527	Fatal imprudence	prison	Text	task-narratives/Narrative2Situation7.txt
469.158	1.801	expectation_mouse_trajectory	842	527	Fatal imprudence	prison	Text	task-narratives/Narrative2Situation7.txt
476.176	18.095	narrative_presentation	n/a	n/a	Discovery of dishonour of loved one	hospital	Text	task-narratives/Narrative2Situation8.txt
494.271	3.8	rating_feeling	946	595	Discovery of dishonour of loved one	hospital	Text	task-narratives/Narrative2Situation8.txt
494.921	3.15	feeling_mouse_trajectory	946	595	Discovery of dishonour of loved one	hospital	Text	task-narratives/Narrative2Situation8.txt
498.286	2.885	rating_expectation	842	527	Discovery of dishonour of loved one	hospital	Text	task-narratives/Narrative2Situation8.txt
498.386	2.785	expectation_mouse_trajectory	842	527	Discovery of dishonour of loved one	hospital	Text	task-narratives/Narrative2Situation8.txt
505.353	15.409	narrative_presentation	n/a	n/a	Abduction	prison	Text	task-narratives/Narrative2Situation9.txt
520.762	1.992	rating_feeling	946	595	Abduction	prison	Text	task-narratives/Narrative2Situation9.txt
521.329	1.425	feeling_mouse_trajectory	946	595	Abduction	prison	Text	task-narratives/Narrative2Situation9.txt
524.779	2.324	rating_expectation	842	527	Abduction	prison	Text	task-narratives/Narrative2Situation9.txt
525.029	2.074	expectation_mouse_trajectory	842	527	Abduction	prison	Text	task-narratives/Narrative2Situation9.txt
