onset	duration	run_type	trial_type	trial_index	cue	stimulusintensity	rating_value	rating_glmslabel	rating_value_fillna	rating_glmslabel_fillna	rating_mouseonset	rating_mousedur	stim_file	pain_onset_ttl1	pain_onset_ttl2	pain_onset_ttl3	pain_onset_ttl4	pain_stimulus_delivery_success	cognitive_correct_response	cognitive_participant_response	cognitive_response_accuracy
8.11	0.99	cognitive	cue	1	high_cue	n/a	n/a	n/a	n/a	n/a	n/a	n/a	task-social/cue/runtype-cognitive/sch/h002.png	n/a	n/a	n/a	n/a	n/a	n/a	n/a	n/a
10.02	1.97	cognitive	expectrating	1	high_cue	n/a	46.3	Strong	46.3	Strong	0.88	1.09	task-social/cue/runtype-cognitive/sch/h002.png	n/a	n/a	n/a	n/a	n/a	n/a	n/a	n/a
23.31	5.0	cognitive	stimulus	1	high_cue	low_stim	n/a	n/a	n/a	n/a	n/a	n/a	task-social/stim/runtype-cognitive/14_50.jpg	n/a	n/a	n/a	n/a	n/a	same	same	True
39.62	2.47	cognitive	outcomerating	1	high_cue	low_stim	18.73	Moderate	18.73	Moderate	0.88	1.09	task-social/outcomerating/task-cognitive_scale.png	n/a	n/a	n/a	n/a	n/a	n/a	n/a	n/a
52.41	0.99	cognitive	cue	2	low_cue	n/a	n/a	n/a	n/a	n/a	n/a	n/a	task-social/cue/runtype-cognitive/scl/l010.png	n/a	n/a	n/a	n/a	n/a	n/a	n/a	n/a
55.01	2.19	cognitive	expectrating	2	low_cue	n/a	21.76	Moderate	21.76	Moderate	0.77	1.42	task-social/cue/runtype-cognitive/scl/l010.png	n/a	n/a	n/a	n/a	n/a	n/a	n/a	n/a
69.01	5.0	cognitive	stimulus	2	low_cue	med_stim	n/a	n/a	n/a	n/a	n/a	n/a	task-social/stim/runtype-cognitive/22_100_R.jpg	n/a	n/a	n/a	n/a	n/a	diff	diff	True
83.92	2.26	cognitive	outcomerating	2	low_cue	med_stim	32.54	Strong	32.54	Strong	0.77	1.42	task-social/outcomerating/task-cognitive_scale.png	n/a	n/a	n/a	n/a	n/a	n/a	n/a	n/a
93.21	0.99	cognitive	cue	3	high_cue	n/a	n/a	n/a	n/a	n/a	n/a	n/a	task-social/cue/runtype-cognitive/sch/h031.png	n/a	n/a	n/a	n/a	n/a	n/a	n/a	n/a
96.11	3.7	cognitive	expectrating	3	high_cue	n/a	44.67	Strong	44.67	Strong	0.77	2.94	task-social/cue/runtype-cognitive/sch/h031.png	n/a	n/a	n/a	n/a	n/a	n/a	n/a	n/a
105.61	5.0	cognitive	stimulus	3	high_cue	high_stim	n/a	n/a	n/a	n/a	n/a	n/a	task-social/stim/runtype-cognitive/7_150_R.jpg	n/a	n/a	n/a	n/a	n/a	diff	diff	True
116.41	n/a	cognitive	outcomerating	3	high_cue	high_stim	n/a	n/a	40.6	Strong	0.77	2.94	task-social/outcomerating/task-cognitive_scale.png	n/a	n/a	n/a	n/a	n/a	n/a	n/a	n/a
123.42	0.98	cognitive	cue	4	low_cue	n/a	n/a	n/a	n/a	n/a	n/a	n/a	task-social/cue/runtype-cognitive/scl/l016.png	n/a	n/a	n/a	n/a	n/a	n/a	n/a	n/a
126.72	1.95	cognitive	expectrating	4	low_cue	n/a	16.32	Moderate	16.32	Moderate	0.13	1.82	task-social/cue/runtype-cognitive/scl/l016.png	n/a	n/a	n/a	n/a	n/a	n/a	n/a	n/a
134.72	5.0	cognitive	stimulus	4	low_cue	high_stim	n/a	n/a	n/a	n/a	n/a	n/a	task-social/stim/runtype-cognitive/44_150.jpg	n/a	n/a	n/a	n/a	n/a	same	n/a	False
143.01	1.9	cognitive	outcomerating	4	low_cue	high_stim	40.9	Strong	40.9	Strong	0.13	1.82	task-social/outcomerating/task-cognitive_scale.png	n/a	n/a	n/a	n/a	n/a	n/a	n/a	n/a
151.31	0.99	cognitive	cue	5	high_cue	n/a	n/a	n/a	n/a	n/a	n/a	n/a	task-social/cue/runtype-cognitive/sch/h011.png	n/a	n/a	n/a	n/a	n/a	n/a	n/a	n/a
153.11	3.1	cognitive	expectrating	5	high_cue	n/a	41.3	Strong	41.3	Strong	2.35	0.75	task-social/cue/runtype-cognitive/sch/h011.png	n/a	n/a	n/a	n/a	n/a	n/a	n/a	n/a
167.12	5.0	cognitive	stimulus	5	high_cue	low_stim	n/a	n/a	n/a	n/a	n/a	n/a	task-social/stim/runtype-cognitive/24_50_R.jpg	n/a	n/a	n/a	n/a	n/a	diff	n/a	False
177.72	1.93	cognitive	outcomerating	5	high_cue	low_stim	42.57	Strong	42.57	Strong	2.35	0.75	task-social/outcomerating/task-cognitive_scale.png	n/a	n/a	n/a	n/a	n/a	n/a	n/a	n/a
188.41	0.99	cognitive	cue	6	high_cue	n/a	n/a	n/a	n/a	n/a	n/a	n/a	task-social/cue/runtype-cognitive/sch/h033.png	n/a	n/a	n/a	n/a	n/a	n/a	n/a	n/a
190.52	1.9	cognitive	expectrating	6	high_cue	n/a	49.27	Strong	49.27	Strong	0.07	1.84	task-social/cue/runtype-cognitive/sch/h033.png	n/a	n/a	n/a	n/a	n/a	n/a	n/a	n/a
198.51	5.0	cognitive	stimulus	6	high_cue	med_stim	n/a	n/a	n/a	n/a	n/a	n/a	task-social/stim/runtype-cognitive/26_100.jpg	n/a	n/a	n/a	n/a	n/a	same	same	True
207.51	2.3	cognitive	outcomerating	6	high_cue	med_stim	30.37	Strong	30.37	Strong	0.07	1.84	task-social/outcomerating/task-cognitive_scale.png	n/a	n/a	n/a	n/a	n/a	n/a	n/a	n/a
218.2	1.0	cognitive	cue	7	low_cue	n/a	n/a	n/a	n/a	n/a	n/a	n/a	task-social/cue/runtype-cognitive/scl/l001.png	n/a	n/a	n/a	n/a	n/a	n/a	n/a	n/a
220.32	1.92	cognitive	expectrating	7	low_cue	n/a	25.95	Moderate	25.95	Moderate	0.22	1.7	task-social/cue/runtype-cognitive/scl/l001.png	n/a	n/a	n/a	n/a	n/a	n/a	n/a	n/a
230.21	5.0	cognitive	stimulus	7	low_cue	high_stim	n/a	n/a	n/a	n/a	n/a	n/a	task-social/stim/runtype-cognitive/27_150_R.jpg	n/a	n/a	n/a	n/a	n/a	diff	n/a	False
239.21	2.55	cognitive	outcomerating	7	low_cue	high_stim	51.52	Strong	51.52	Strong	0.22	1.7	task-social/outcomerating/task-cognitive_scale.png	n/a	n/a	n/a	n/a	n/a	n/a	n/a	n/a
246.21	0.99	cognitive	cue	8	high_cue	n/a	n/a	n/a	n/a	n/a	n/a	n/a	task-social/cue/runtype-cognitive/sch/h020.png	n/a	n/a	n/a	n/a	n/a	n/a	n/a	n/a
248.71	1.95	cognitive	expectrating	8	high_cue	n/a	42.55	Strong	42.55	Strong	1.08	0.87	task-social/cue/runtype-cognitive/sch/h020.png	n/a	n/a	n/a	n/a	n/a	n/a	n/a	n/a
257.72	5.0	cognitive	stimulus	8	high_cue	med_stim	n/a	n/a	n/a	n/a	n/a	n/a	task-social/stim/runtype-cognitive/28_100.jpg	n/a	n/a	n/a	n/a	n/a	same	same	True
268.32	2.67	cognitive	outcomerating	8	high_cue	med_stim	44.35	Strong	44.35	Strong	1.08	0.87	task-social/outcomerating/task-cognitive_scale.png	n/a	n/a	n/a	n/a	n/a	n/a	n/a	n/a
277.61	0.99	cognitive	cue	9	low_cue	n/a	n/a	n/a	n/a	n/a	n/a	n/a	task-social/cue/runtype-cognitive/scl/l056.png	n/a	n/a	n/a	n/a	n/a	n/a	n/a	n/a
280.71	1.29	cognitive	expectrating	9	low_cue	n/a	38.66	Strong	38.66	Strong	0.5	0.79	task-social/cue/runtype-cognitive/scl/l056.png	n/a	n/a	n/a	n/a	n/a	n/a	n/a	n/a
292.51	5.0	cognitive	stimulus	9	low_cue	low_stim	n/a	n/a	n/a	n/a	n/a	n/a	task-social/stim/runtype-cognitive/35_50.jpg	n/a	n/a	n/a	n/a	n/a	same	same	True
305.22	3.73	cognitive	outcomerating	9	low_cue	low_stim	24.6	Moderate	24.6	Moderate	0.5	0.79	task-social/outcomerating/task-cognitive_scale.png	n/a	n/a	n/a	n/a	n/a	n/a	n/a	n/a
309.7	1.0	cognitive	cue	10	low_cue	n/a	n/a	n/a	n/a	n/a	n/a	n/a	task-social/cue/runtype-cognitive/scl/l033.png	n/a	n/a	n/a	n/a	n/a	n/a	n/a	n/a
312.02	1.89	cognitive	expectrating	10	low_cue	n/a	31.71	Strong	31.71	Strong	0.72	1.17	task-social/cue/runtype-cognitive/scl/l033.png	n/a	n/a	n/a	n/a	n/a	n/a	n/a	n/a
320.01	5.0	cognitive	stimulus	10	low_cue	low_stim	n/a	n/a	n/a	n/a	n/a	n/a	task-social/stim/runtype-cognitive/14_50_R.jpg	n/a	n/a	n/a	n/a	n/a	diff	n/a	False
330.81	1.72	cognitive	outcomerating	10	low_cue	low_stim	45.82	Strong	45.82	Strong	0.72	1.17	task-social/outcomerating/task-cognitive_scale.png	n/a	n/a	n/a	n/a	n/a	n/a	n/a	n/a
339.21	0.98	cognitive	cue	11	high_cue	n/a	n/a	n/a	n/a	n/a	n/a	n/a	task-social/cue/runtype-cognitive/sch/h047.png	n/a	n/a	n/a	n/a	n/a	n/a	n/a	n/a
342.31	1.95	cognitive	expectrating	11	high_cue	n/a	45.33	Strong	45.33	Strong	0.17	1.78	task-social/cue/runtype-cognitive/sch/h047.png	n/a	n/a	n/a	n/a	n/a	n/a	n/a	n/a
354.6	5.0	cognitive	stimulus	11	high_cue	high_stim	n/a	n/a	n/a	n/a	n/a	n/a	task-social/stim/runtype-cognitive/1_150_R.jpg	n/a	n/a	n/a	n/a	n/a	diff	diff	True
366.91	2.2	cognitive	outcomerating	11	high_cue	high_stim	33.37	Strong	33.37	Strong	0.17	1.78	task-social/outcomerating/task-cognitive_scale.png	n/a	n/a	n/a	n/a	n/a	n/a	n/a	n/a
371.71	0.99	cognitive	cue	12	low_cue	n/a	n/a	n/a	n/a	n/a	n/a	n/a	task-social/cue/runtype-cognitive/scl/l045.png	n/a	n/a	n/a	n/a	n/a	n/a	n/a	n/a
374.01	3.58	cognitive	expectrating	12	low_cue	n/a	22.95	Moderate	22.95	Moderate	1.23	2.35	task-social/cue/runtype-cognitive/scl/l045.png	n/a	n/a	n/a	n/a	n/a	n/a	n/a	n/a
382.01	5.0	cognitive	stimulus	12	low_cue	med_stim	n/a	n/a	n/a	n/a	n/a	n/a	task-social/stim/runtype-cognitive/24_100.jpg	n/a	n/a	n/a	n/a	n/a	same	n/a	False
394.82	2.73	cognitive	outcomerating	12	low_cue	med_stim	43.22	Strong	43.22	Strong	1.23	2.35	task-social/outcomerating/task-cognitive_scale.png	n/a	n/a	n/a	n/a	n/a	n/a	n/a	n/a
