onset	duration	question	event_type	participant_response	normative_response	response_accuracy	stim_file
5.02662992477417	1.102220058441162	smiling?	how_face	yes	yes	correct	task-tomspunt/F_759.jpg
6.443819999694824	0.584820032119751	smiling?	how_face	no	no	correct	task-tomspunt/F_412.jpg
7.344160079956055	0.618649959564209	smiling?	how_face	yes	yes	correct	task-tomspunt/F_593.jpg
8.27783989906311	0.7183802127838135	smiling?	how_face	no	no	correct	task-tomspunt/F_712.jpg
9.311559915542603	1.1212401390075684	smiling?	how_face	yes	yes	correct	task-tomspunt/F_695.jpg
10.745429992675781	0.5352001190185547	smiling?	how_face	yes	yes	correct	task-tomspunt/F_139.jpg
11.59574007987976	0.6684098243713379	smiling?	how_face	yes	yes	correct	task-tomspunt/F_083.jpg
12.579449892044067	0.7520902156829834	smiling?	how_face	no	no	correct	task-tomspunt/F_758.jpg
24.133749961853027	1.1116399765014648	admiring?	why_face	yes	yes	correct	task-tomspunt/F_593.jpg
25.550950050354004	1.0518200397491455	admiring?	why_face	yes	no	incorrect	task-tomspunt/F_129.jpg
26.918129920959473	0.8440999984741211	admiring?	why_face	yes	yes	correct	task-tomspunt/F_759.jpg
28.06855010986328	0.9854798316955566	admiring?	why_face	no	no	correct	task-tomspunt/F_692.jpg
29.36904001235962	0.7597200870513916	admiring?	why_face	yes	yes	correct	task-tomspunt/F_779.jpg
30.436100006103516	0.8096599578857422	admiring?	why_face	yes	yes	correct	task-tomspunt/F_590.jpg
31.553189992904663	0.6423599720001221	admiring?	why_face	yes	yes	correct	task-tomspunt/F_648.jpg
32.5035400390625	0.6422998905181885	admiring?	why_face	no	no	correct	task-tomspunt/F_110.jpg
43.19086003303528	0.8381600379943848	competing?	why_hand	yes	yes	correct	task-tomspunt/H_261.jpg
44.34128999710083	0.6875200271606445	competing?	why_hand	yes	yes	correct	task-tomspunt/H_170.jpg
45.341660022735596	0.9037399291992188	competing?	why_hand	no	no	correct	task-tomspunt/H_483.jpg
46.55877995491028	0.6029200553894043	competing?	why_hand	yes	yes	correct	task-tomspunt/H_132.jpg
47.47579002380371	0.8692798614501953	competing?	why_hand	yes	yes	correct	task-tomspunt/H_136.jpg
48.65956997871399	0.7023499011993408	competing?	why_hand	yes	yes	correct	task-tomspunt/H_003.jpg
49.67660999298096	0.7519800662994385	competing?	why_hand	no	no	correct	task-tomspunt/H_126.jpg
50.743680000305176	0.951469898223877	competing?	why_hand	no	no	correct	task-tomspunt/H_502.jpg
65.66591000556946	0.6625499725341797	reaching?	how_hand	yes	yes	correct	task-tomspunt/H_003.jpg
66.63294005393982	0.8124799728393555	reaching?	how_hand	yes	yes	correct	task-tomspunt/H_364.jpg
67.75002002716064	0.8513100147247314	reaching?	how_hand	no	no	correct	task-tomspunt/H_532.jpg
68.9171199798584	0.7687199115753174	reaching?	how_hand	yes	yes	correct	task-tomspunt/H_006.jpg
70.00085997581482	1.051650047302246	reaching?	how_hand	no	no	correct	task-tomspunt/H_438.jpg
71.36804008483887	0.6109700202941895	reaching?	how_hand	yes	yes	correct	task-tomspunt/H_007.jpg
72.2850399017334	1.1606500148773193	reaching?	how_hand	yes	yes	correct	task-tomspunt/H_474.jpg
73.7522599697113	0.8103299140930176	reaching?	how_hand	no	no	correct	task-tomspunt/H_132.jpg
84.77303004264832	0.6345899105072021	open mouth?	how_face	yes	yes	correct	task-tomspunt/F_403.jpg
85.72339010238647	0.5222599506378174	open mouth?	how_face	no	no	correct	task-tomspunt/F_648.jpg
86.55702996253967	0.4844999313354492	open mouth?	how_face	yes	yes	correct	task-tomspunt/F_776.jpg
87.35733008384705	0.6050798892974854	open mouth?	how_face	no	no	correct	task-tomspunt/F_584.jpg
88.2743399143219	0.5881800651550293	open mouth?	how_face	yes	yes	correct	task-tomspunt/F_844.jpg
89.17467999458313	0.637470006942749	open mouth?	how_face	yes	yes	correct	task-tomspunt/F_692.jpg
90.12503004074097	0.5539500713348389	open mouth?	how_face	yes	yes	correct	task-tomspunt/F_086.jpg
90.99201989173889	0.6697201728820801	open mouth?	how_face	no	no	correct	task-tomspunt/F_544.jpg
106.24770998954773	0.7852499485015869	argument?	why_face	yes	yes	correct	task-tomspunt/F_403.jpg
107.34811997413635	0.6470301151275635	argument?	why_face	no	no	correct	task-tomspunt/F_844.jpg
108.29848003387451	0.7846899032592773	argument?	why_face	yes	yes	correct	task-tomspunt/F_712.jpg
109.39888000488281	0.8016500473022461	argument?	why_face	yes	yes	correct	task-tomspunt/F_758.jpg
110.51596999168396	0.7013499736785889	argument?	why_face	no	no	correct	task-tomspunt/F_433.jpg
111.53301000595093	0.8189098834991455	argument?	why_face	yes	yes	correct	task-tomspunt/F_716.jpg
112.66676998138428	0.6449699401855469	argument?	why_face	no	no	correct	task-tomspunt/F_139.jpg
113.61713004112244	0.6017799377441406	argument?	why_face	yes	yes	correct	task-tomspunt/F_743.jpg
128.7394299507141	0.8565101623535156	helping?	why_hand	no	yes	incorrect	task-tomspunt/H_024.jpg
129.90652990341187	0.7894001007080078	helping?	why_hand	yes	yes	correct	task-tomspunt/H_349.jpg
131.0069398880005	0.5683901309967041	helping?	why_hand	yes	yes	correct	task-tomspunt/H_077.jpg
131.89060997962952	0.9189300537109375	helping?	why_hand	yes	yes	correct	task-tomspunt/H_474.jpg
133.1243999004364	0.7685902118682861	helping?	why_hand	yes	no	incorrect	task-tomspunt/H_091.jpg
134.20813989639282	1.2042701244354248	helping?	why_hand	yes	no	incorrect	task-tomspunt/H_159.jpg
135.72536993026733	1.3031001091003418	helping?	why_hand	yes	yes	correct	task-tomspunt/H_111.jpg
137.3426399230957	0.9523601531982422	helping?	why_hand	no	no	correct	task-tomspunt/H_012.jpg
146.26262998580933	0.8846700191497803	both hands?	how_hand	yes	yes	correct	task-tomspunt/H_111.jpg
147.4630799293518	0.7346100807189941	both hands?	how_hand	yes	yes	correct	task-tomspunt/H_027.jpg
148.5134699344635	0.851250171661377	both hands?	how_hand	no	no	correct	task-tomspunt/H_091.jpg
149.68056988716125	1.1648402214050293	both hands?	how_hand	yes	yes	correct	task-tomspunt/H_167.jpg
151.14778995513916	0.9144899845123291	both hands?	how_hand	yes	yes	correct	task-tomspunt/H_581.jpg
152.36490988731384	0.8306100368499756	both hands?	how_hand	no	no	correct	task-tomspunt/H_159.jpg
153.49866008758545	0.5801799297332764	both hands?	how_hand	yes	yes	correct	task-tomspunt/H_349.jpg
154.3823299407959	0.8461101055145264	both hands?	how_hand	no	no	correct	task-tomspunt/H_627.jpg
163.80251002311707	1.0681400299072266	healthy?	why_hand	yes	yes	correct	task-tomspunt/H_438.jpg
165.18635988235474	0.8020801544189453	healthy?	why_hand	yes	yes	correct	task-tomspunt/H_364.jpg
166.30344009399414	0.8012998104095459	healthy?	why_hand	yes	yes	correct	task-tomspunt/H_362.jpg
167.42052006721497	0.8081998825073242	healthy?	why_hand	no	no	correct	task-tomspunt/H_019.jpg
168.5376100540161	0.641589879989624	healthy?	why_hand	yes	yes	correct	task-tomspunt/H_167.jpg
169.48796010017395	0.8241598606109619	healthy?	why_hand	no	no	correct	task-tomspunt/H_007.jpg
170.6217200756073	0.8406898975372314	healthy?	why_hand	yes	yes	correct	task-tomspunt/H_627.jpg
171.77214002609253	1.2396199703216553	healthy?	why_hand	yes	no	incorrect	task-tomspunt/H_130.jpg
182.47614002227783	0.7023599147796631	pressing button?	how_hand	yes	yes	correct	task-tomspunt/H_126.jpg
183.4931800365448	0.7186300754547119	pressing button?	how_hand	no	no	correct	task-tomspunt/H_130.jpg
184.5269000530243	0.5848100185394287	pressing button?	how_hand	yes	yes	correct	task-tomspunt/H_483.jpg
185.42723989486694	0.8854701519012451	pressing button?	how_hand	no	no	correct	task-tomspunt/H_024.jpg
186.62768006324768	0.868690013885498	pressing button?	how_hand	yes	yes	correct	task-tomspunt/H_332.jpg
187.81146001815796	0.8017599582672119	pressing button?	how_hand	yes	yes	correct	task-tomspunt/H_019.jpg
188.92853999137878	0.8832800388336182	pressing button?	how_hand	no	no	correct	task-tomspunt/H_261.jpg
190.11231994628906	0.5679500102996826	pressing button?	how_hand	yes	yes	correct	task-tomspunt/H_502.jpg
203.95080995559692	0.534980058670044	looking at camera?	how_face	yes	yes	correct	task-tomspunt/F_618.jpg
204.80113005638123	0.6682798862457275	looking at camera?	how_face	no	no	correct	task-tomspunt/F_754.jpg
205.7848300933838	0.4774899482727051	looking at camera?	how_face	yes	yes	correct	task-tomspunt/F_129.jpg
206.56844997406006	0.8351399898529053	looking at camera?	how_face	yes	yes	correct	task-tomspunt/F_598.jpg
207.7188799381256	0.726250171661377	looking at camera?	how_face	yes	yes	correct	task-tomspunt/F_128.jpg
208.7525999546051	0.8683600425720215	looking at camera?	how_face	no	no	correct	task-tomspunt/F_582.jpg
209.93637990951538	0.5686399936676025	looking at camera?	how_face	yes	yes	correct	task-tomspunt/F_774.jpg
210.8200399875641	0.6683599948883057	looking at camera?	how_face	no	no	correct	task-tomspunt/F_743.jpg
222.74114990234375	0.8206901550292969	self-doubt?	why_face	yes	yes	correct	task-tomspunt/F_798.jpg
223.8749098777771	0.7368700504302979	self-doubt?	why_face	no	no	correct	task-tomspunt/F_086.jpg
224.9252998828888	0.6364400386810303	self-doubt?	why_face	yes	yes	correct	task-tomspunt/F_544.jpg
225.87564992904663	1.0031700134277344	self-doubt?	why_face	yes	yes	correct	task-tomspunt/F_754.jpg
227.19281005859375	0.9530699253082275	self-doubt?	why_face	yes	yes	correct	task-tomspunt/F_111.jpg
228.45994997024536	0.8191800117492676	self-doubt?	why_face	no	yes	incorrect	task-tomspunt/F_584.jpg
229.5937099456787	0.934689998626709	self-doubt?	why_face	no	no	correct	task-tomspunt/F_128.jpg
230.84417009353638	1.0349597930908203	self-doubt?	why_face	no	no	correct	task-tomspunt/F_774.jpg
240.26434993743896	0.7145600318908691	self-protection?	why_hand	yes	yes	correct	task-tomspunt/H_581.jpg
241.28139996528625	1.2681801319122314	self-protection?	why_hand	no	yes	incorrect	task-tomspunt/H_443.jpg
242.8653199672699	0.9465601444244385	self-protection?	why_hand	no	no	correct	task-tomspunt/H_332.jpg
244.1157898902893	0.985069990158081	self-protection?	why_hand	yes	yes	correct	task-tomspunt/H_027.jpg
245.41628003120422	0.8124699592590332	self-protection?	why_hand	no	no	correct	task-tomspunt/H_532.jpg
246.53336000442505	1.2018499374389648	self-protection?	why_hand	yes	yes	correct	task-tomspunt/H_189.jpg
248.05059003829956	1.0351200103759766	self-protection?	why_hand	no	no	correct	task-tomspunt/H_006.jpg
249.40109992027283	1.1848599910736084	self-protection?	why_hand	yes	yes	correct	task-tomspunt/H_038.jpg
258.15436005592346	0.8413398265838623	lifting?	how_hand	yes	yes	correct	task-tomspunt/H_443.jpg
259.304790019989	1.1236999034881592	lifting?	how_hand	yes	no	incorrect	task-tomspunt/H_038.jpg
260.7386600971222	0.7564599514007568	lifting?	how_hand	yes	yes	correct	task-tomspunt/H_136.jpg
261.8057200908661	0.7730898857116699	lifting?	how_hand	no	no	correct	task-tomspunt/H_012.jpg
262.8894600868225	0.7723798751831055	lifting?	how_hand	yes	yes	correct	task-tomspunt/H_362.jpg
263.97320008277893	0.7391998767852783	lifting?	how_hand	yes	yes	correct	task-tomspunt/H_189.jpg
265.0235900878906	1.1215298175811768	lifting?	how_hand	no	yes	incorrect	task-tomspunt/H_170.jpg
266.4574499130249	1.187690019607544	lifting?	how_hand	no	no	correct	task-tomspunt/H_077.jpg
276.02768993377686	0.5679600238800049	looking to side?	how_face	yes	yes	correct	task-tomspunt/F_716.jpg
276.91135001182556	0.9687399864196777	looking to side?	how_face	no	no	correct	task-tomspunt/F_798.jpg
278.1951699256897	0.7346200942993164	looking to side?	how_face	yes	yes	correct	task-tomspunt/F_760.jpg
279.2455599308014	0.9014601707458496	looking to side?	how_face	yes	yes	correct	task-tomspunt/F_110.jpg
280.46268010139465	0.5179998874664307	looking to side?	how_face	yes	no	incorrect	task-tomspunt/F_779.jpg
281.29631996154785	1.0184900760650635	looking to side?	how_face	yes	yes	correct	task-tomspunt/F_590.jpg
282.6301500797272	0.7816298007965088	looking to side?	how_face	no	no	correct	task-tomspunt/F_111.jpg
283.7138900756836	0.6014900207519531	looking to side?	how_face	yes	yes	correct	task-tomspunt/F_433.jpg
293.55088996887207	0.7354300022125244	proud?	why_face	yes	yes	correct	task-tomspunt/F_083.jpg
294.60127997398376	0.6517200469970703	proud?	why_face	yes	yes	correct	task-tomspunt/F_582.jpg
295.5683100223541	0.6940798759460449	proud?	why_face	yes	yes	correct	task-tomspunt/F_618.jpg
296.5686800479889	0.9766800403594971	proud?	why_face	no	no	correct	task-tomspunt/F_776.jpg
297.852499961853	1.143470048904419	proud?	why_face	yes	yes	correct	task-tomspunt/F_598.jpg
299.3030400276184	0.742419958114624	proud?	why_face	no	no	correct	task-tomspunt/F_760.jpg
300.3534300327301	0.6850199699401855	proud?	why_face	no	no	correct	task-tomspunt/F_412.jpg
301.35380005836487	1.02485990524292	proud?	why_face	yes	yes	correct	task-tomspunt/F_695.jpg
311.34085988998413	0.6683001518249512	smiling?	how_face	yes	yes	correct	task-tomspunt/F_695.jpg
312.3245599269867	0.6379201412200928	smiling?	how_face	no	no	correct	task-tomspunt/F_412.jpg
313.27490997314453	0.5542600154876709	smiling?	how_face	yes	yes	correct	task-tomspunt/F_593.jpg
314.14190006256104	0.8035500049591064	smiling?	how_face	yes	yes	correct	task-tomspunt/F_139.jpg
315.2589900493622	0.6694798469543457	smiling?	how_face	no	no	correct	task-tomspunt/F_712.jpg
316.24269008636475	0.5690298080444336	smiling?	how_face	yes	yes	correct	task-tomspunt/F_759.jpg
317.1263499259949	0.8361899852752686	smiling?	how_face	no	no	correct	task-tomspunt/F_758.jpg
318.2767798900604	0.6022601127624512	smiling?	how_face	yes	yes	correct	task-tomspunt/F_083.jpg
330.3979699611664	0.7138500213623047	admiring?	why_face	yes	yes	correct	task-tomspunt/F_779.jpg
331.41500997543335	0.5352599620819092	admiring?	why_face	no	no	correct	task-tomspunt/F_110.jpg
332.26533007621765	0.9137299060821533	admiring?	why_face	yes	yes	correct	task-tomspunt/F_590.jpg
333.48245000839233	0.7126600742340088	admiring?	why_face	yes	yes	correct	task-tomspunt/F_648.jpg
334.4995000362396	0.5851600170135498	admiring?	why_face	yes	yes	correct	task-tomspunt/F_759.jpg
335.39983010292053	0.551379919052124	admiring?	why_face	yes	no	incorrect	task-tomspunt/F_129.jpg
336.26681995391846	0.5623500347137451	admiring?	why_face	yes	yes	correct	task-tomspunt/F_593.jpg
337.13381004333496	0.5949699878692627	admiring?	why_face	yes	no	incorrect	task-tomspunt/F_692.jpg
348.47136998176575	0.7071599960327148	healthy?	why_hand	yes	yes	correct	task-tomspunt/H_364.jpg
349.48842000961304	0.8404099941253662	healthy?	why_hand	no	no	correct	task-tomspunt/H_007.jpg
350.6388499736786	0.5899600982666016	healthy?	why_hand	yes	yes	correct	task-tomspunt/H_167.jpg
351.5391800403595	0.9226899147033691	healthy?	why_hand	yes	no	incorrect	task-tomspunt/H_130.jpg
352.7729799747467	0.9852399826049805	healthy?	why_hand	yes	yes	correct	task-tomspunt/H_438.jpg
354.0734601020813	0.8216598033905029	healthy?	why_hand	no	no	correct	task-tomspunt/H_019.jpg
355.20722007751465	0.6716299057006836	healthy?	why_hand	yes	yes	correct	task-tomspunt/H_362.jpg
356.1909201145172	0.7543399333953857	healthy?	why_hand	yes	yes	correct	task-tomspunt/H_627.jpg
365.97790002822876	0.5849699974060059	pressing button?	how_hand	yes	yes	correct	task-tomspunt/H_126.jpg
366.87824010849	0.5516297817230225	pressing button?	how_hand	yes	yes	correct	task-tomspunt/H_332.jpg
367.7452299594879	0.8013401031494141	pressing button?	how_hand	no	no	correct	task-tomspunt/H_261.jpg
368.86230993270874	0.9346401691436768	pressing button?	how_hand	no	no	correct	task-tomspunt/H_024.jpg
370.11278009414673	0.6346399784088135	pressing button?	how_hand	yes	yes	correct	task-tomspunt/H_502.jpg
371.063129901886	0.7519299983978271	pressing button?	how_hand	no	no	correct	task-tomspunt/H_130.jpg
372.1301999092102	0.6483500003814697	pressing button?	how_hand	yes	yes	correct	task-tomspunt/H_019.jpg
373.08054995536804	0.8147201538085938	pressing button?	how_hand	yes	yes	correct	task-tomspunt/H_483.jpg
383.8679099082947	0.8853001594543457	looking to side?	how_face	yes	yes	correct	task-tomspunt/F_590.jpg
385.0683500766754	0.9268298149108887	looking to side?	how_face	yes	yes	correct	task-tomspunt/F_110.jpg
386.3021500110626	0.7848999500274658	looking to side?	how_face	yes	yes	correct	task-tomspunt/F_760.jpg
387.40255999565125	1.5349400043487549	looking to side?	how_face	no	no	correct	task-tomspunt/F_779.jpg
389.25324988365173	0.7424700260162354	looking to side?	how_face	yes	yes	correct	task-tomspunt/F_433.jpg
390.3036398887634	0.8749101161956787	looking to side?	how_face	no	no	correct	task-tomspunt/F_798.jpg
391.48741006851196	0.6179099082946777	looking to side?	how_face	yes	yes	correct	task-tomspunt/F_716.jpg
392.42109990119934	0.7575302124023438	looking to side?	how_face	no	no	correct	task-tomspunt/F_111.jpg
401.7078900337219	0.6712398529052734	argument?	why_face	yes	yes	correct	task-tomspunt/F_403.jpg
402.6915900707245	0.7702598571777344	argument?	why_face	no	no	correct	task-tomspunt/F_139.jpg
403.7753300666809	0.5865199565887451	argument?	why_face	yes	yes	correct	task-tomspunt/F_743.jpg
404.67566990852356	0.7032999992370605	argument?	why_face	no	no	correct	task-tomspunt/F_433.jpg
405.6927099227905	0.7360999584197998	argument?	why_face	yes	yes	correct	task-tomspunt/F_716.jpg
406.7430999279022	0.8514201641082764	argument?	why_face	yes	yes	correct	task-tomspunt/F_758.jpg
407.9102098941803	0.7182600498199463	argument?	why_face	no	no	correct	task-tomspunt/F_844.jpg
408.94391989707947	0.8347201347351074	argument?	why_face	yes	yes	correct	task-tomspunt/F_712.jpg
419.5478799343109	0.8347799777984619	self-protection?	why_hand	yes	yes	correct	task-tomspunt/H_189.jpg
420.69830989837646	0.6351699829101562	self-protection?	why_hand	yes	yes	correct	task-tomspunt/H_038.jpg
421.6486599445343	1.3521101474761963	self-protection?	why_hand	no	yes	incorrect	task-tomspunt/H_581.jpg
423.3159499168396	0.9185001850128174	self-protection?	why_hand	no	no	correct	task-tomspunt/H_006.jpg
424.54974007606506	0.7458999156951904	self-protection?	why_hand	yes	yes	correct	task-tomspunt/H_027.jpg
425.6001400947571	1.1622798442840576	self-protection?	why_hand	no	no	correct	task-tomspunt/H_332.jpg
427.0673499107361	1.7189600467681885	self-protection?	why_hand	no	yes	incorrect	task-tomspunt/H_443.jpg
429.10143995285034	0.7346100807189941	self-protection?	why_hand	no	no	correct	task-tomspunt/H_532.jpg
437.0710799694061	0.8243000507354736	both hands?	how_hand	yes	yes	correct	task-tomspunt/H_581.jpg
438.2048399448395	0.5742101669311523	both hands?	how_hand	yes	yes	correct	task-tomspunt/H_349.jpg
439.0885000228882	0.6740200519561768	both hands?	how_hand	no	no	correct	task-tomspunt/H_159.jpg
440.07220005989075	0.6899700164794922	both hands?	how_hand	yes	yes	correct	task-tomspunt/H_111.jpg
441.0725700855255	0.8225798606872559	both hands?	how_hand	no	no	correct	task-tomspunt/H_627.jpg
442.20633006095886	0.9892599582672119	both hands?	how_hand	yes	yes	correct	task-tomspunt/H_167.jpg
443.5068099498749	0.8721301555633545	both hands?	how_hand	yes	yes	correct	task-tomspunt/H_027.jpg
444.69058990478516	0.8379101753234863	both hands?	how_hand	no	no	correct	task-tomspunt/H_091.jpg
454.8610498905182	0.7179000377655029	competing?	why_hand	yes	yes	correct	task-tomspunt/H_170.jpg
455.8947699069977	0.7846100330352783	competing?	why_hand	yes	yes	correct	task-tomspunt/H_132.jpg
456.9951798915863	0.8347201347351074	competing?	why_hand	no	no	correct	task-tomspunt/H_126.jpg
458.14561009407043	0.7511599063873291	competing?	why_hand	yes	yes	correct	task-tomspunt/H_003.jpg
459.21267008781433	0.8846898078918457	competing?	why_hand	no	no	correct	task-tomspunt/H_502.jpg
460.4131200313568	0.7513899803161621	competing?	why_hand	yes	yes	correct	task-tomspunt/H_136.jpg
461.4801800251007	0.9851100444793701	competing?	why_hand	no	no	correct	task-tomspunt/H_483.jpg
462.78066992759705	0.6317400932312012	competing?	why_hand	yes	yes	correct	task-tomspunt/H_261.jpg
472.75104999542236	0.6013898849487305	lifting?	how_hand	yes	yes	correct	task-tomspunt/H_362.jpg
473.6680600643158	0.7184000015258789	lifting?	how_hand	no	no	correct	task-tomspunt/H_012.jpg
474.7017800807953	0.5853798389434814	lifting?	how_hand	yes	yes	correct	task-tomspunt/H_136.jpg
475.60211992263794	0.8764901161193848	lifting?	how_hand	yes	yes	correct	task-tomspunt/H_189.jpg
476.7858901023865	0.9849998950958252	lifting?	how_hand	no	yes	incorrect	task-tomspunt/H_170.jpg
478.0863800048828	0.9087700843811035	lifting?	how_hand	no	no	correct	task-tomspunt/H_077.jpg
479.3034999370575	0.8922901153564453	lifting?	how_hand	yes	yes	correct	task-tomspunt/H_443.jpg
480.50394010543823	1.125199794769287	lifting?	how_hand	yes	no	incorrect	task-tomspunt/H_038.jpg
490.82446002960205	0.5209999084472656	open mouth?	how_face	yes	yes	correct	task-tomspunt/F_403.jpg
491.65809988975525	0.5037600994110107	open mouth?	how_face	yes	yes	correct	task-tomspunt/F_086.jpg
492.4750699996948	0.5373399257659912	open mouth?	how_face	yes	yes	correct	task-tomspunt/F_844.jpg
493.3253901004791	0.6697099208831787	open mouth?	how_face	no	no	correct	task-tomspunt/F_544.jpg
494.3090898990631	0.5519900321960449	open mouth?	how_face	yes	yes	correct	task-tomspunt/F_776.jpg
495.1760799884796	0.7020199298858643	open mouth?	how_face	no	no	correct	task-tomspunt/F_648.jpg
496.1931300163269	0.7519800662994385	open mouth?	how_face	yes	yes	correct	task-tomspunt/F_692.jpg
497.2601900100708	0.7686898708343506	open mouth?	how_face	no	no	correct	task-tomspunt/F_584.jpg
509.0479199886322	0.6845600605010986	proud?	why_face	yes	yes	correct	task-tomspunt/F_582.jpg
510.0483000278473	0.6307499408721924	proud?	why_face	no	no	correct	task-tomspunt/F_776.jpg
510.9819800853729	0.5518100261688232	proud?	why_face	yes	yes	correct	task-tomspunt/F_598.jpg
511.84896993637085	0.6133301258087158	proud?	why_face	no	no	correct	task-tomspunt/F_412.jpg
512.7659800052643	0.7353498935699463	proud?	why_face	yes	yes	correct	task-tomspunt/F_618.jpg
513.816370010376	0.6848800182342529	proud?	why_face	yes	yes	correct	task-tomspunt/F_083.jpg
514.8167400360107	0.6687798500061035	proud?	why_face	yes	yes	correct	task-tomspunt/F_695.jpg
515.8004400730133	0.7013299465179443	proud?	why_face	no	no	correct	task-tomspunt/F_760.jpg
528.0049901008606	1.0847499370574951	helping?	why_hand	yes	yes	correct	task-tomspunt/H_024.jpg
529.4055099487305	0.6737000942230225	helping?	why_hand	yes	yes	correct	task-tomspunt/H_474.jpg
530.389209985733	0.6229300498962402	helping?	why_hand	yes	yes	correct	task-tomspunt/H_349.jpg
531.322900056839	0.8222298622131348	helping?	why_hand	no	no	correct	task-tomspunt/H_091.jpg
532.456650018692	1.2884199619293213	helping?	why_hand	yes	no	incorrect	task-tomspunt/H_012.jpg
534.0572500228882	0.8219399452209473	helping?	why_hand	yes	yes	correct	task-tomspunt/H_077.jpg
535.1910099983215	0.8375198841094971	helping?	why_hand	no	no	correct	task-tomspunt/H_159.jpg
536.3414299488068	0.9187400341033936	helping?	why_hand	yes	yes	correct	task-tomspunt/H_111.jpg
546.2284500598907	0.834589958190918	reaching?	how_hand	yes	yes	correct	task-tomspunt/H_474.jpg
547.3788800239563	0.7182998657226562	reaching?	how_hand	yes	yes	correct	task-tomspunt/H_003.jpg
548.4126000404358	1.3186500072479248	reaching?	how_hand	no	no	correct	task-tomspunt/H_132.jpg
550.0465500354767	0.5853500366210938	reaching?	how_hand	yes	yes	correct	task-tomspunt/H_364.jpg
550.9468801021576	0.8513898849487305	reaching?	how_hand	yes	yes	correct	task-tomspunt/H_006.jpg
552.1139800548553	0.8020298480987549	reaching?	how_hand	no	no	correct	task-tomspunt/H_532.jpg
553.2310600280762	1.5016798973083496	reaching?	how_hand	no	no	correct	task-tomspunt/H_438.jpg
555.0484099388123	0.601639986038208	reaching?	how_hand	yes	yes	correct	task-tomspunt/H_007.jpg
565.1855199337006	0.5518600940704346	looking at camera?	how_face	yes	yes	correct	task-tomspunt/F_618.jpg
566.0525100231171	0.5592598915100098	looking at camera?	how_face	no	no	correct	task-tomspunt/F_743.jpg
566.9195001125336	0.5512199401855469	looking at camera?	how_face	yes	yes	correct	task-tomspunt/F_598.jpg
567.7864899635315	0.584630012512207	looking at camera?	how_face	yes	yes	correct	task-tomspunt/F_774.jpg
568.6868300437927	0.6582999229431152	looking at camera?	how_face	yes	yes	correct	task-tomspunt/F_129.jpg
569.6538600921631	0.741879940032959	looking at camera?	how_face	yes	yes	correct	task-tomspunt/F_128.jpg
570.7042500972748	0.87503981590271	looking at camera?	how_face	no	no	correct	task-tomspunt/F_582.jpg
571.8880200386047	0.6852400302886963	looking at camera?	how_face	no	no	correct	task-tomspunt/F_754.jpg
583.9758598804474	0.9180300235748291	self-doubt?	why_face	yes	yes	correct	task-tomspunt/F_798.jpg
585.2096600532532	0.9521498680114746	self-doubt?	why_face	no	no	correct	task-tomspunt/F_128.jpg
586.4767999649048	0.6855299472808838	self-doubt?	why_face	yes	yes	correct	task-tomspunt/F_754.jpg
587.4771699905396	0.6846499443054199	self-doubt?	why_face	yes	yes	correct	task-tomspunt/F_544.jpg
588.4775400161743	1.301990032196045	self-doubt?	why_face	yes	no	incorrect	task-tomspunt/F_086.jpg
590.0948100090027	0.634929895401001	self-doubt?	why_face	yes	yes	correct	task-tomspunt/F_111.jpg
591.0451700687408	0.8833599090576172	self-doubt?	why_face	no	no	correct	task-tomspunt/F_774.jpg
592.2289400100708	0.9186699390411377	self-doubt?	why_face	no	yes	incorrect	task-tomspunt/F_584.jpg
0.0491380596160886	2.06743884086609	smiling?	block_question_presentation	n/a	n/a	n/a	n/a
0.0491380596160886	0.3	smiling?	block_question_presentation	n/a	n/a	n/a	n/a
19.1229185962677	2.1007833480835	admiring?	block_question_presentation	n/a	n/a	n/a	n/a
19.1229185962677	0.3	admiring?	block_question_presentation	n/a	n/a	n/a	n/a
38.1800250911713	2.10078406333923	competing?	block_question_presentation	n/a	n/a	n/a	n/a
38.1800250911713	0.3	competing?	block_question_presentation	n/a	n/a	n/a	n/a
60.6550738716126	2.10078287124634	reaching?	block_question_presentation	n/a	n/a	n/a	n/a
60.6550738716126	0.3	reaching?	block_question_presentation	n/a	n/a	n/a	n/a
79.7621989154816	2.10078358650208	open mouth?	block_question_presentation	n/a	n/a	n/a	n/a
79.7621989154816	0.3	open mouth?	block_question_presentation	n/a	n/a	n/a	n/a
101.236873617172	2.10078406333923	argument?	block_question_presentation	n/a	n/a	n/a	n/a
101.236873617172	0.3	argument?	block_question_presentation	n/a	n/a	n/a	n/a
123.72859500885	2.10078382492065	helping?	block_question_presentation	n/a	n/a	n/a	n/a
123.72859500885	0.3	helping?	block_question_presentation	n/a	n/a	n/a	n/a
141.251796712875	2.10078263282776	both hands?	block_question_presentation	n/a	n/a	n/a	n/a
141.251796712875	0.3	both hands?	block_question_presentation	n/a	n/a	n/a	n/a
158.7916705513	2.10078430175781	healthy?	block_question_presentation	n/a	n/a	n/a	n/a
158.7916705513	0.3	healthy?	block_question_presentation	n/a	n/a	n/a	n/a
177.465301742554	2.10078287124634	pressing button?	block_question_presentation	n/a	n/a	n/a	n/a
177.465301742554	0.3	pressing button?	block_question_presentation	n/a	n/a	n/a	n/a
198.9399771595	2.1007821559906	looking at camera?	block_question_presentation	n/a	n/a	n/a	n/a
198.9399771595	0.3	looking at camera?	block_question_presentation	n/a	n/a	n/a	n/a
217.730317106247	2.10078406333923	self-doubt?	block_question_presentation	n/a	n/a	n/a	n/a
217.730317106247	0.3	self-doubt?	block_question_presentation	n/a	n/a	n/a	n/a
235.270191898346	2.08411026000977	self-protection?	block_question_presentation	n/a	n/a	n/a	n/a
235.270191898346	0.3	self-protection?	block_question_presentation	n/a	n/a	n/a	n/a
253.143524160385	2.1007821559906	lifting?	block_question_presentation	n/a	n/a	n/a	n/a
253.143524160385	0.3	lifting?	block_question_presentation	n/a	n/a	n/a	n/a
271.016855707169	2.10078263282776	looking to side?	block_question_presentation	n/a	n/a	n/a	n/a
271.016855707169	0.3	looking to side?	block_question_presentation	n/a	n/a	n/a	n/a
288.540056695938	2.10078406333923	proud?	block_question_presentation	n/a	n/a	n/a	n/a
288.540056695938	0.3	proud?	block_question_presentation	n/a	n/a	n/a	n/a
306.330022087097	2.10078549385071	smiling?	block_question_presentation	n/a	n/a	n/a	n/a
306.330022087097	0.3	smiling?	block_question_presentation	n/a	n/a	n/a	n/a
325.387131443024	2.1007833480835	admiring?	block_question_presentation	n/a	n/a	n/a	n/a
325.387131443024	0.3	admiring?	block_question_presentation	n/a	n/a	n/a	n/a
343.460538139343	2.10078382492065	healthy?	block_question_presentation	n/a	n/a	n/a	n/a
343.460538139343	0.3	healthy?	block_question_presentation	n/a	n/a	n/a	n/a
360.967066993713	2.10078310966492	pressing button?	block_question_presentation	n/a	n/a	n/a	n/a
360.967066993713	0.3	pressing button?	block_question_presentation	n/a	n/a	n/a	n/a
378.857070674896	2.10078406333923	looking to side?	block_question_presentation	n/a	n/a	n/a	n/a
378.857070674896	0.3	looking to side?	block_question_presentation	n/a	n/a	n/a	n/a
396.697056760788	2.10078477859497	argument?	block_question_presentation	n/a	n/a	n/a	n/a
396.697056760788	0.3	argument?	block_question_presentation	n/a	n/a	n/a	n/a
414.537043561935	2.10078454017639	self-protection?	block_question_presentation	n/a	n/a	n/a	n/a
414.537043561935	0.3	self-protection?	block_question_presentation	n/a	n/a	n/a	n/a
432.060245742798	2.10078525543213	both hands?	block_question_presentation	n/a	n/a	n/a	n/a
432.060245742798	0.3	both hands?	block_question_presentation	n/a	n/a	n/a	n/a
449.850213756561	2.10078287124634	competing?	block_question_presentation	n/a	n/a	n/a	n/a
449.850213756561	0.3	competing?	block_question_presentation	n/a	n/a	n/a	n/a
467.740217676163	2.10078406333923	lifting?	block_question_presentation	n/a	n/a	n/a	n/a
467.740217676163	0.3	lifting?	block_question_presentation	n/a	n/a	n/a	n/a
485.813624610901	2.10078358650208	open mouth?	block_question_presentation	n/a	n/a	n/a	n/a
485.813624610901	0.3	open mouth?	block_question_presentation	n/a	n/a	n/a	n/a
504.037088384628	2.08410930633545	proud?	block_question_presentation	n/a	n/a	n/a	n/a
504.037088384628	0.3	proud?	block_question_presentation	n/a	n/a	n/a	n/a
522.994157066345	2.10078239440918	helping?	block_question_presentation	n/a	n/a	n/a	n/a
522.994157066345	0.3	helping?	block_question_presentation	n/a	n/a	n/a	n/a
541.217618932724	2.10078358650208	reaching?	block_question_presentation	n/a	n/a	n/a	n/a
541.217618932724	0.3	reaching?	block_question_presentation	n/a	n/a	n/a	n/a
560.174689283371	2.1007833480835	looking at camera?	block_question_presentation	n/a	n/a	n/a	n/a
560.174689283371	0.3	looking at camera?	block_question_presentation	n/a	n/a	n/a	n/a
578.965029468536	2.10078287124634	self-doubt?	block_question_presentation	n/a	n/a	n/a	n/a
578.965029468536	0.3	self-doubt?	block_question_presentation	n/a	n/a	n/a	n/a
