onset	duration	run_type	trial_type	trial_index	cue	stimulusintensity	rating_value	rating_glmslabel	rating_value_fillna	rating_glmslabel_fillna	rating_mouseonset	rating_mousedur	stim_file	pain_onset_ttl1	pain_onset_ttl2	pain_onset_ttl3	pain_onset_ttl4	pain_stimulus_delivery_success	cognitive_correct_response	cognitive_participant_response	cognitive_response_accuracy
4.78	0.99	cognitive	cue	1	high_cue	n/a	n/a	n/a	n/a	n/a	n/a	n/a	task-social/cue/runtype-cognitive/sch/h041.png	n/a	n/a	n/a	n/a	n/a	n/a	n/a	n/a
7.2	1.85	cognitive	expectrating	1	high_cue	n/a	60.74	Strong	60.74	Strong	0.85	1.0	task-social/cue/runtype-cognitive/sch/h041.png	n/a	n/a	n/a	n/a	n/a	n/a	n/a	n/a
17.79	5.0	cognitive	stimulus	1	high_cue	low_stim	n/a	n/a	n/a	n/a	n/a	n/a	task-social/stim/runtype-cognitive/27_50.jpg	n/a	n/a	n/a	n/a	n/a	same	same	True
27.19	2.62	cognitive	outcomerating	1	high_cue	low_stim	48.08	Strong	48.08	Strong	0.85	1.0	task-social/outcomerating/task-cognitive_scale.png	n/a	n/a	n/a	n/a	n/a	n/a	n/a	n/a
33.09	0.98	cognitive	cue	2	low_cue	n/a	n/a	n/a	n/a	n/a	n/a	n/a	task-social/cue/runtype-cognitive/scl/l036.png	n/a	n/a	n/a	n/a	n/a	n/a	n/a	n/a
34.9	2.6	cognitive	expectrating	2	low_cue	n/a	45.16	Strong	45.16	Strong	1.08	1.52	task-social/cue/runtype-cognitive/scl/l036.png	n/a	n/a	n/a	n/a	n/a	n/a	n/a	n/a
46.2	5.0	cognitive	stimulus	2	low_cue	low_stim	n/a	n/a	n/a	n/a	n/a	n/a	task-social/stim/runtype-cognitive/1_50.jpg	n/a	n/a	n/a	n/a	n/a	same	same	True
56.09	2.98	cognitive	outcomerating	2	low_cue	low_stim	50.16	Strong	50.16	Strong	1.08	1.52	task-social/outcomerating/task-cognitive_scale.png	n/a	n/a	n/a	n/a	n/a	n/a	n/a	n/a
61.09	0.99	cognitive	cue	3	low_cue	n/a	n/a	n/a	n/a	n/a	n/a	n/a	task-social/cue/runtype-cognitive/scl/l039.png	n/a	n/a	n/a	n/a	n/a	n/a	n/a	n/a
63.19	2.34	cognitive	expectrating	3	low_cue	n/a	42.5	Strong	42.5	Strong	0.58	1.76	task-social/cue/runtype-cognitive/scl/l039.png	n/a	n/a	n/a	n/a	n/a	n/a	n/a	n/a
71.79	5.0	cognitive	stimulus	3	low_cue	med_stim	n/a	n/a	n/a	n/a	n/a	n/a	task-social/stim/runtype-cognitive/7_100.jpg	n/a	n/a	n/a	n/a	n/a	same	same	True
81.4	2.12	cognitive	outcomerating	3	low_cue	med_stim	60.4	Strong	60.4	Strong	0.58	1.76	task-social/outcomerating/task-cognitive_scale.png	n/a	n/a	n/a	n/a	n/a	n/a	n/a	n/a
86.48	1.0	cognitive	cue	4	low_cue	n/a	n/a	n/a	n/a	n/a	n/a	n/a	task-social/cue/runtype-cognitive/scl/l054.png	n/a	n/a	n/a	n/a	n/a	n/a	n/a	n/a
89.6	2.2	cognitive	expectrating	4	low_cue	n/a	56.25	Strong	56.25	Strong	0.57	1.63	task-social/cue/runtype-cognitive/scl/l054.png	n/a	n/a	n/a	n/a	n/a	n/a	n/a	n/a
100.79	5.0	cognitive	stimulus	4	low_cue	high_stim	n/a	n/a	n/a	n/a	n/a	n/a	task-social/stim/runtype-cognitive/22_150_R.jpg	n/a	n/a	n/a	n/a	n/a	diff	same	False
110.09	2.42	cognitive	outcomerating	4	low_cue	high_stim	51.84	Strong	51.84	Strong	0.57	1.63	task-social/outcomerating/task-cognitive_scale.png	n/a	n/a	n/a	n/a	n/a	n/a	n/a	n/a
114.79	0.99	cognitive	cue	5	high_cue	n/a	n/a	n/a	n/a	n/a	n/a	n/a	task-social/cue/runtype-cognitive/sch/h038.png	n/a	n/a	n/a	n/a	n/a	n/a	n/a	n/a
117.19	1.9	cognitive	expectrating	5	high_cue	n/a	39.22	Strong	39.22	Strong	0.55	1.35	task-social/cue/runtype-cognitive/sch/h038.png	n/a	n/a	n/a	n/a	n/a	n/a	n/a	n/a
124.6	5.0	cognitive	stimulus	5	high_cue	med_stim	n/a	n/a	n/a	n/a	n/a	n/a	task-social/stim/runtype-cognitive/44_100_R.jpg	n/a	n/a	n/a	n/a	n/a	diff	same	False
133.9	2.55	cognitive	outcomerating	5	high_cue	med_stim	47.29	Strong	47.29	Strong	0.55	1.35	task-social/outcomerating/task-cognitive_scale.png	n/a	n/a	n/a	n/a	n/a	n/a	n/a	n/a
138.48	0.99	cognitive	cue	6	high_cue	n/a	n/a	n/a	n/a	n/a	n/a	n/a	task-social/cue/runtype-cognitive/sch/h026.png	n/a	n/a	n/a	n/a	n/a	n/a	n/a	n/a
140.58	1.98	cognitive	expectrating	6	high_cue	n/a	45.16	Strong	45.16	Strong	0.55	1.43	task-social/cue/runtype-cognitive/sch/h026.png	n/a	n/a	n/a	n/a	n/a	n/a	n/a	n/a
147.89	5.0	cognitive	stimulus	6	high_cue	high_stim	n/a	n/a	n/a	n/a	n/a	n/a	task-social/stim/runtype-cognitive/20_150.jpg	n/a	n/a	n/a	n/a	n/a	same	same	True
157.59	3.19	cognitive	outcomerating	6	high_cue	high_stim	44.35	Strong	44.35	Strong	0.55	1.43	task-social/outcomerating/task-cognitive_scale.png	n/a	n/a	n/a	n/a	n/a	n/a	n/a	n/a
163.49	0.98	cognitive	cue	7	high_cue	n/a	n/a	n/a	n/a	n/a	n/a	n/a	task-social/cue/runtype-cognitive/sch/h005.png	n/a	n/a	n/a	n/a	n/a	n/a	n/a	n/a
165.59	2.15	cognitive	expectrating	7	high_cue	n/a	44.51	Strong	44.51	Strong	0.58	1.57	task-social/cue/runtype-cognitive/sch/h005.png	n/a	n/a	n/a	n/a	n/a	n/a	n/a	n/a
178.4	5.0	cognitive	stimulus	7	high_cue	low_stim	n/a	n/a	n/a	n/a	n/a	n/a	task-social/stim/runtype-cognitive/19_50_R.jpg	n/a	n/a	n/a	n/a	n/a	diff	diff	True
197.59	2.72	cognitive	outcomerating	7	high_cue	low_stim	23.17	Moderate	23.17	Moderate	0.58	1.57	task-social/outcomerating/task-cognitive_scale.png	n/a	n/a	n/a	n/a	n/a	n/a	n/a	n/a
209.39	0.98	cognitive	cue	8	high_cue	n/a	n/a	n/a	n/a	n/a	n/a	n/a	task-social/cue/runtype-cognitive/sch/h014.png	n/a	n/a	n/a	n/a	n/a	n/a	n/a	n/a
211.49	3.09	cognitive	expectrating	8	high_cue	n/a	26.88	Moderate	26.88	Moderate	1.02	2.07	task-social/cue/runtype-cognitive/sch/h014.png	n/a	n/a	n/a	n/a	n/a	n/a	n/a	n/a
218.4	5.0	cognitive	stimulus	8	high_cue	high_stim	n/a	n/a	n/a	n/a	n/a	n/a	task-social/stim/runtype-cognitive/27_150.jpg	n/a	n/a	n/a	n/a	n/a	same	same	True
229.7	2.87	cognitive	outcomerating	8	high_cue	high_stim	39.63	Strong	39.63	Strong	1.02	2.07	task-social/outcomerating/task-cognitive_scale.png	n/a	n/a	n/a	n/a	n/a	n/a	n/a	n/a
234.59	0.99	cognitive	cue	9	low_cue	n/a	n/a	n/a	n/a	n/a	n/a	n/a	task-social/cue/runtype-cognitive/scl/l028.png	n/a	n/a	n/a	n/a	n/a	n/a	n/a	n/a
237.69	1.99	cognitive	expectrating	9	low_cue	n/a	37.65	Strong	37.65	Strong	0.43	1.56	task-social/cue/runtype-cognitive/scl/l028.png	n/a	n/a	n/a	n/a	n/a	n/a	n/a	n/a
252.49	5.0	cognitive	stimulus	9	low_cue	low_stim	n/a	n/a	n/a	n/a	n/a	n/a	task-social/stim/runtype-cognitive/19_50.jpg	n/a	n/a	n/a	n/a	n/a	same	same	True
265.1	2.22	cognitive	outcomerating	9	low_cue	low_stim	37.51	Strong	37.51	Strong	0.43	1.56	task-social/outcomerating/task-cognitive_scale.png	n/a	n/a	n/a	n/a	n/a	n/a	n/a	n/a
270.98	0.99	cognitive	cue	10	low_cue	n/a	n/a	n/a	n/a	n/a	n/a	n/a	task-social/cue/runtype-cognitive/scl/l043.png	n/a	n/a	n/a	n/a	n/a	n/a	n/a	n/a
274.1	1.72	cognitive	expectrating	10	low_cue	n/a	18.29	Moderate	18.29	Moderate	0.42	1.3	task-social/cue/runtype-cognitive/scl/l043.png	n/a	n/a	n/a	n/a	n/a	n/a	n/a	n/a
285.39	5.0	cognitive	stimulus	10	low_cue	med_stim	n/a	n/a	n/a	n/a	n/a	n/a	task-social/stim/runtype-cognitive/1_100.jpg	n/a	n/a	n/a	n/a	n/a	same	same	True
296.59	3.34	cognitive	outcomerating	10	low_cue	med_stim	28.32	Moderate	28.32	Moderate	0.42	1.3	task-social/outcomerating/task-cognitive_scale.png	n/a	n/a	n/a	n/a	n/a	n/a	n/a	n/a
317.58	0.99	cognitive	cue	11	low_cue	n/a	n/a	n/a	n/a	n/a	n/a	n/a	task-social/cue/runtype-cognitive/scl/l009.png	n/a	n/a	n/a	n/a	n/a	n/a	n/a	n/a
319.98	2.67	cognitive	expectrating	11	low_cue	n/a	13.92	Moderate	13.92	Moderate	1.12	1.55	task-social/cue/runtype-cognitive/scl/l009.png	n/a	n/a	n/a	n/a	n/a	n/a	n/a	n/a
327.39	5.0	cognitive	stimulus	11	low_cue	high_stim	n/a	n/a	n/a	n/a	n/a	n/a	task-social/stim/runtype-cognitive/35_150.jpg	n/a	n/a	n/a	n/a	n/a	same	same	True
337.09	2.32	cognitive	outcomerating	11	low_cue	high_stim	51.27	Strong	51.27	Strong	1.12	1.55	task-social/outcomerating/task-cognitive_scale.png	n/a	n/a	n/a	n/a	n/a	n/a	n/a	n/a
358.08	0.99	cognitive	cue	12	high_cue	n/a	n/a	n/a	n/a	n/a	n/a	n/a	task-social/cue/runtype-cognitive/sch/h030.png	n/a	n/a	n/a	n/a	n/a	n/a	n/a	n/a
361.2	2.98	cognitive	expectrating	12	high_cue	n/a	54.97	Strong	54.97	Strong	0.82	2.17	task-social/cue/runtype-cognitive/sch/h030.png	n/a	n/a	n/a	n/a	n/a	n/a	n/a	n/a
377.49	5.0	cognitive	stimulus	12	high_cue	med_stim	n/a	n/a	n/a	n/a	n/a	n/a	task-social/stim/runtype-cognitive/20_100.jpg	n/a	n/a	n/a	n/a	n/a	same	same	True
394.1	2.45	cognitive	outcomerating	12	high_cue	med_stim	42.72	Strong	42.72	Strong	0.82	2.17	task-social/outcomerating/task-cognitive_scale.png	n/a	n/a	n/a	n/a	n/a	n/a	n/a	n/a
