onset	duration	run_type	trial_type	trial_index	cue	stimulusintensity	rating_value	rating_glmslabel	rating_value_fillna	rating_glmslabel_fillna	rating_mouseonset	rating_mousedur	stim_file	pain_onset_ttl1	pain_onset_ttl2	pain_onset_ttl3	pain_onset_ttl4	pain_stimulus_delivery_success	cognitive_correct_response	cognitive_participant_response	cognitive_response_accuracy
11.59	0.99	cognitive	cue	1	low_cue	n/a	n/a	n/a	n/a	n/a	n/a	n/a	n/a	n/a	n/a	n/a	n/a	n/a	n/a	n/a	n/a
14.81	1.52	cognitive	expectrating	1	low_cue	n/a	40.55	Strong	40.55	Strong	0.45	1.07	task-social/cue/runtype-cognitive/scl/l042.png	n/a	n/a	n/a	n/a	n/a	n/a	n/a	n/a
21.51	5.0	cognitive	stimulus	1	low_cue	low_stim	n/a	n/a	n/a	n/a	n/a	n/a	task-social/stim/runtype-cognitive/24_50.jpg	n/a	n/a	n/a	n/a	n/a	same	same	True
36.9	2.97	cognitive	outcomerating	1	low_cue	low_stim	32.42	Strong	32.42	Strong	1.1	1.87	task-social/outcomerating/task-cognitive_scale.png	n/a	n/a	n/a	n/a	n/a	n/a	n/a	n/a
42.38	1.0	cognitive	cue	2	high_cue	n/a	n/a	n/a	n/a	n/a	n/a	n/a	n/a	n/a	n/a	n/a	n/a	n/a	n/a	n/a	n/a
44.2	2.13	cognitive	expectrating	2	high_cue	n/a	54.33	Strong	54.33	Strong	0.5	1.63	task-social/cue/runtype-cognitive/sch/h029.png	n/a	n/a	n/a	n/a	n/a	n/a	n/a	n/a
57.49	5.0	cognitive	stimulus	2	high_cue	med_stim	n/a	n/a	n/a	n/a	n/a	n/a	task-social/stim/runtype-cognitive/19_100_R.jpg	n/a	n/a	n/a	n/a	n/a	diff	n/a	False
67.49	3.35	cognitive	outcomerating	2	high_cue	med_stim	63.33	Strong	63.33	Strong	1.1	2.25	task-social/outcomerating/task-cognitive_scale.png	n/a	n/a	n/a	n/a	n/a	n/a	n/a	n/a
74.2	0.98	cognitive	cue	3	high_cue	n/a	n/a	n/a	n/a	n/a	n/a	n/a	n/a	n/a	n/a	n/a	n/a	n/a	n/a	n/a	n/a
77.4	1.82	cognitive	expectrating	3	high_cue	n/a	52.17	Strong	52.17	Strong	0.47	1.35	task-social/cue/runtype-cognitive/sch/h025.png	n/a	n/a	n/a	n/a	n/a	n/a	n/a	n/a
85.1	5.0	cognitive	stimulus	3	high_cue	low_stim	n/a	n/a	n/a	n/a	n/a	n/a	task-social/stim/runtype-cognitive/35_50_R.jpg	n/a	n/a	n/a	n/a	n/a	diff	diff	True
96.61	2.63	cognitive	outcomerating	3	high_cue	low_stim	64.79	Very Strong	64.79	Very Strong	1.12	1.52	task-social/outcomerating/task-cognitive_scale.png	n/a	n/a	n/a	n/a	n/a	n/a	n/a	n/a
110.59	0.99	cognitive	cue	4	high_cue	n/a	n/a	n/a	n/a	n/a	n/a	n/a	n/a	n/a	n/a	n/a	n/a	n/a	n/a	n/a	n/a
113.29	1.9	cognitive	expectrating	4	high_cue	n/a	55.48	Strong	55.48	Strong	0.52	1.39	task-social/cue/runtype-cognitive/sch/h024.png	n/a	n/a	n/a	n/a	n/a	n/a	n/a	n/a
120.0	5.0	cognitive	stimulus	4	high_cue	high_stim	n/a	n/a	n/a	n/a	n/a	n/a	task-social/stim/runtype-cognitive/19_150_R.jpg	n/a	n/a	n/a	n/a	n/a	diff	diff	True
133.2	2.4	cognitive	outcomerating	4	high_cue	high_stim	46.47	Strong	46.47	Strong	1.05	1.35	task-social/outcomerating/task-cognitive_scale.png	n/a	n/a	n/a	n/a	n/a	n/a	n/a	n/a
139.89	0.99	cognitive	cue	5	low_cue	n/a	n/a	n/a	n/a	n/a	n/a	n/a	n/a	n/a	n/a	n/a	n/a	n/a	n/a	n/a	n/a
143.11	1.75	cognitive	expectrating	5	low_cue	n/a	31.83	Strong	31.83	Strong	0.58	1.17	task-social/cue/runtype-cognitive/scl/l040.png	n/a	n/a	n/a	n/a	n/a	n/a	n/a	n/a
156.79	5.0	cognitive	stimulus	5	low_cue	med_stim	n/a	n/a	n/a	n/a	n/a	n/a	task-social/stim/runtype-cognitive/44_100.jpg	n/a	n/a	n/a	n/a	n/a	same	n/a	False
165.7	2.08	cognitive	outcomerating	5	low_cue	med_stim	62.2	Strong	62.2	Strong	0.72	1.37	task-social/outcomerating/task-cognitive_scale.png	n/a	n/a	n/a	n/a	n/a	n/a	n/a	n/a
181.29	0.99	cognitive	cue	6	low_cue	n/a	n/a	n/a	n/a	n/a	n/a	n/a	n/a	n/a	n/a	n/a	n/a	n/a	n/a	n/a	n/a
183.7	1.58	cognitive	expectrating	6	low_cue	n/a	45.65	Strong	45.65	Strong	0.35	1.23	task-social/cue/runtype-cognitive/scl/l050.png	n/a	n/a	n/a	n/a	n/a	n/a	n/a	n/a
196.79	5.0	cognitive	stimulus	6	low_cue	high_stim	n/a	n/a	n/a	n/a	n/a	n/a	task-social/stim/runtype-cognitive/20_150_R.jpg	n/a	n/a	n/a	n/a	n/a	diff	diff	True
210.4	2.38	cognitive	outcomerating	6	low_cue	high_stim	42.79	Strong	42.79	Strong	1.08	1.3	task-social/outcomerating/task-cognitive_scale.png	n/a	n/a	n/a	n/a	n/a	n/a	n/a	n/a
216.1	0.98	cognitive	cue	7	low_cue	n/a	n/a	n/a	n/a	n/a	n/a	n/a	n/a	n/a	n/a	n/a	n/a	n/a	n/a	n/a	n/a
218.7	1.7	cognitive	expectrating	7	low_cue	n/a	45.17	Strong	45.17	Strong	0.38	1.32	task-social/cue/runtype-cognitive/scl/l032.png	n/a	n/a	n/a	n/a	n/a	n/a	n/a	n/a
235.79	5.0	cognitive	stimulus	7	low_cue	med_stim	n/a	n/a	n/a	n/a	n/a	n/a	task-social/stim/runtype-cognitive/14_100_R.jpg	n/a	n/a	n/a	n/a	n/a	diff	same	False
244.49	2.24	cognitive	outcomerating	7	low_cue	med_stim	49.55	Strong	49.55	Strong	0.95	1.29	task-social/outcomerating/task-cognitive_scale.png	n/a	n/a	n/a	n/a	n/a	n/a	n/a	n/a
250.4	0.98	cognitive	cue	8	low_cue	n/a	n/a	n/a	n/a	n/a	n/a	n/a	n/a	n/a	n/a	n/a	n/a	n/a	n/a	n/a	n/a
253.1	1.54	cognitive	expectrating	8	low_cue	n/a	51.84	Strong	51.84	Strong	0.4	1.14	task-social/cue/runtype-cognitive/scl/l026.png	n/a	n/a	n/a	n/a	n/a	n/a	n/a	n/a
265.8	5.0	cognitive	stimulus	8	low_cue	high_stim	n/a	n/a	n/a	n/a	n/a	n/a	task-social/stim/runtype-cognitive/24_150.jpg	n/a	n/a	n/a	n/a	n/a	same	n/a	False
282.69	2.52	cognitive	outcomerating	8	low_cue	high_stim	64.26	Very Strong	64.26	Very Strong	0.63	1.89	task-social/outcomerating/task-cognitive_scale.png	n/a	n/a	n/a	n/a	n/a	n/a	n/a	n/a
287.69	0.99	cognitive	cue	9	high_cue	n/a	n/a	n/a	n/a	n/a	n/a	n/a	n/a	n/a	n/a	n/a	n/a	n/a	n/a	n/a	n/a
289.49	1.4	cognitive	expectrating	9	high_cue	n/a	68.58	Very Strong	68.58	Very Strong	0.45	0.95	task-social/cue/runtype-cognitive/sch/h053.png	n/a	n/a	n/a	n/a	n/a	n/a	n/a	n/a
297.1	5.0	cognitive	stimulus	9	high_cue	low_stim	n/a	n/a	n/a	n/a	n/a	n/a	task-social/stim/runtype-cognitive/26_50.jpg	n/a	n/a	n/a	n/a	n/a	same	same	True
308.2	2.0	cognitive	outcomerating	9	high_cue	low_stim	48.42	Strong	48.42	Strong	0.55	1.45	task-social/outcomerating/task-cognitive_scale.png	n/a	n/a	n/a	n/a	n/a	n/a	n/a	n/a
317.99	0.99	cognitive	cue	10	high_cue	n/a	n/a	n/a	n/a	n/a	n/a	n/a	n/a	n/a	n/a	n/a	n/a	n/a	n/a	n/a	n/a
320.59	1.72	cognitive	expectrating	10	high_cue	n/a	55.03	Strong	55.03	Strong	0.52	1.2	task-social/cue/runtype-cognitive/sch/h048.png	n/a	n/a	n/a	n/a	n/a	n/a	n/a	n/a
328.19	5.0	cognitive	stimulus	10	high_cue	high_stim	n/a	n/a	n/a	n/a	n/a	n/a	task-social/stim/runtype-cognitive/44_150_R.jpg	n/a	n/a	n/a	n/a	n/a	diff	same	False
337.49	2.02	cognitive	outcomerating	10	high_cue	high_stim	63.95	Strong	63.95	Strong	0.62	1.4	task-social/outcomerating/task-cognitive_scale.png	n/a	n/a	n/a	n/a	n/a	n/a	n/a	n/a
343.9	0.98	cognitive	cue	11	high_cue	n/a	n/a	n/a	n/a	n/a	n/a	n/a	n/a	n/a	n/a	n/a	n/a	n/a	n/a	n/a	n/a
345.7	1.92	cognitive	expectrating	11	high_cue	n/a	57.53	Strong	57.53	Strong	0.38	1.53	task-social/cue/runtype-cognitive/sch/h056.png	n/a	n/a	n/a	n/a	n/a	n/a	n/a	n/a
357.8	5.0	cognitive	stimulus	11	high_cue	med_stim	n/a	n/a	n/a	n/a	n/a	n/a	task-social/stim/runtype-cognitive/35_100_R.jpg	n/a	n/a	n/a	n/a	n/a	diff	same	False
366.69	2.95	cognitive	outcomerating	11	high_cue	med_stim	70.84	Very Strong	70.84	Very Strong	0.55	2.4	task-social/outcomerating/task-cognitive_scale.png	n/a	n/a	n/a	n/a	n/a	n/a	n/a	n/a
374.79	0.99	cognitive	cue	12	low_cue	n/a	n/a	n/a	n/a	n/a	n/a	n/a	n/a	n/a	n/a	n/a	n/a	n/a	n/a	n/a	n/a
376.69	2.04	cognitive	expectrating	12	low_cue	n/a	42.24	Strong	42.24	Strong	0.47	1.57	task-social/cue/runtype-cognitive/scl/l021.png	n/a	n/a	n/a	n/a	n/a	n/a	n/a	n/a
384.3	5.0	cognitive	stimulus	12	low_cue	low_stim	n/a	n/a	n/a	n/a	n/a	n/a	task-social/stim/runtype-cognitive/20_50_R.jpg	n/a	n/a	n/a	n/a	n/a	diff	diff	True
394.8	3.12	cognitive	outcomerating	12	low_cue	low_stim	41.08	Strong	41.08	Strong	1.02	2.1	task-social/outcomerating/task-cognitive_scale.png	n/a	n/a	n/a	n/a	n/a	n/a	n/a	n/a
