onset	duration	run_type	trial_type	trial_index	cue	stimulusintensity	rating_value	rating_glmslabel	rating_value_fillna	rating_glmslabel_fillna	rating_mouseonset	rating_mousedur	stim_file	pain_onset_ttl1	pain_onset_ttl2	pain_onset_ttl3	pain_onset_ttl4	pain_stimulus_delivery_success	cognitive_correct_response	cognitive_participant_response	cognitive_response_accuracy
9.11	1.0	pain	cue	1	high_cue	n/a	n/a	n/a	n/a	n/a	n/a	n/a	task-social/cue/runtype-pain/sch/h002.png	n/a	n/a	n/a	n/a	n/a	n/a	n/a	n/a
10.74	3.29	pain	expectrating	1	high_cue	n/a	51.34	Strong	51.34	Strong	1.43	1.85	task-social/cue/runtype-pain/sch/h002.png	n/a	n/a	n/a	n/a	n/a	n/a	n/a	n/a
20.67	12.82	pain	stimulus	1	high_cue	high_stim	n/a	n/a	n/a	n/a	n/a	n/a	n/a	20.67	24.68	29.68	33.49	success	n/a	n/a	n/a
32.62	3.11	pain	outcomerating	1	high_cue	high_stim	66.53	Very Strong	66.53	Very Strong	0.83	2.28	task-social/outcomerating/task-pain_scale.png	n/a	n/a	n/a	n/a	success	n/a	n/a	n/a
45.5	1.0	pain	cue	2	low_cue	n/a	n/a	n/a	n/a	n/a	n/a	n/a	task-social/cue/runtype-pain/scl/l040.png	n/a	n/a	n/a	n/a	n/a	n/a	n/a	n/a
47.41	2.87	pain	expectrating	2	low_cue	n/a	15.6	Moderate	15.6	Moderate	0.8	2.07	task-social/cue/runtype-pain/scl/l040.png	n/a	n/a	n/a	n/a	n/a	n/a	n/a	n/a
58.74	11.910000000000004	pain	stimulus	2	low_cue	low_stim	n/a	n/a	n/a	n/a	n/a	n/a	n/a	58.74	62.24	67.24	70.64	success	n/a	n/a	n/a
75.52	3.8	pain	outcomerating	2	low_cue	low_stim	14.87	Moderate	14.87	Moderate	0.92	2.89	task-social/outcomerating/task-pain_scale.png	n/a	n/a	n/a	n/a	success	n/a	n/a	n/a
87.2	1.0	pain	cue	3	high_cue	n/a	n/a	n/a	n/a	n/a	n/a	n/a	task-social/cue/runtype-pain/sch/h033.png	n/a	n/a	n/a	n/a	n/a	n/a	n/a	n/a
89.52	3.72	pain	expectrating	3	high_cue	n/a	51.66	Strong	51.66	Strong	1.5	2.22	task-social/cue/runtype-pain/sch/h033.png	n/a	n/a	n/a	n/a	n/a	n/a	n/a	n/a
102.54	11.909999999999997	pain	stimulus	3	high_cue	low_stim	n/a	n/a	n/a	n/a	n/a	n/a	n/a	102.54	106.04	111.04	114.44	success	n/a	n/a	n/a
118.41	3.42	pain	outcomerating	3	high_cue	low_stim	28.2	Moderate	28.2	Moderate	1.05	2.37	task-social/outcomerating/task-pain_scale.png	n/a	n/a	n/a	n/a	success	n/a	n/a	n/a
129.1	1.0	pain	cue	4	high_cue	n/a	n/a	n/a	n/a	n/a	n/a	n/a	task-social/cue/runtype-pain/sch/h020.png	n/a	n/a	n/a	n/a	n/a	n/a	n/a	n/a
131.02	3.02	pain	expectrating	4	high_cue	n/a	29.37	Strong	29.37	Strong	0.97	2.06	task-social/cue/runtype-pain/sch/h020.png	n/a	n/a	n/a	n/a	n/a	n/a	n/a	n/a
136.13	12.370000000000005	pain	stimulus	4	high_cue	med_stim	n/a	n/a	n/a	n/a	n/a	n/a	n/a	136.13	139.89	144.89	148.5	success	n/a	n/a	n/a
148.61	3.15	pain	outcomerating	4	high_cue	med_stim	44.02	Strong	44.02	Strong	0.92	2.23	task-social/outcomerating/task-pain_scale.png	n/a	n/a	n/a	n/a	success	n/a	n/a	n/a
155.41	1.0	pain	cue	5	low_cue	n/a	n/a	n/a	n/a	n/a	n/a	n/a	task-social/cue/runtype-pain/scl/l032.png	n/a	n/a	n/a	n/a	n/a	n/a	n/a	n/a
158.61	2.1	pain	expectrating	5	low_cue	n/a	9.62	Weak	9.62	Weak	0.65	1.45	task-social/cue/runtype-pain/scl/l032.png	n/a	n/a	n/a	n/a	n/a	n/a	n/a	n/a
168.53	11.900000000000006	pain	stimulus	5	low_cue	low_stim	n/a	n/a	n/a	n/a	n/a	n/a	n/a	168.53	172.03	177.03	180.43	success	n/a	n/a	n/a
184.31	3.72	pain	outcomerating	5	low_cue	low_stim	19.47	Moderate	19.47	Moderate	0.9	2.82	task-social/outcomerating/task-pain_scale.png	n/a	n/a	n/a	n/a	success	n/a	n/a	n/a
189.61	1.0	pain	cue	6	low_cue	n/a	n/a	n/a	n/a	n/a	n/a	n/a	task-social/cue/runtype-pain/scl/l031.png	n/a	n/a	n/a	n/a	n/a	n/a	n/a	n/a
192.31	n/a	pain	expectrating	6	low_cue	n/a	n/a	n/a	n/a	n/a	n/a	n/a	task-social/cue/runtype-pain/scl/l031.png	n/a	n/a	n/a	n/a	n/a	n/a	n/a	n/a
197.73	12.830000000000013	pain	stimulus	6	low_cue	high_stim	n/a	n/a	n/a	n/a	n/a	n/a	n/a	197.73	201.74	206.74	210.55	success	n/a	n/a	n/a
208.22	3.12	pain	outcomerating	6	low_cue	high_stim	32.47	Strong	32.47	Strong	0.92	2.2	task-social/outcomerating/task-pain_scale.png	n/a	n/a	n/a	n/a	success	n/a	n/a	n/a
214.1	1.0	pain	cue	7	low_cue	n/a	n/a	n/a	n/a	n/a	n/a	n/a	task-social/cue/runtype-pain/scl/l038.png	n/a	n/a	n/a	n/a	n/a	n/a	n/a	n/a
216.4	1.88	pain	expectrating	7	low_cue	n/a	16.68	Moderate	16.68	Moderate	0.48	1.39	task-social/cue/runtype-pain/scl/l038.png	n/a	n/a	n/a	n/a	n/a	n/a	n/a	n/a
222.13	12.360000000000014	pain	stimulus	7	low_cue	med_stim	n/a	n/a	n/a	n/a	n/a	n/a	n/a	222.13	225.89	230.89	234.5	success	n/a	n/a	n/a
232.71	3.04	pain	outcomerating	7	low_cue	med_stim	24.41	Moderate	24.41	Moderate	1.2	1.84	task-social/outcomerating/task-pain_scale.png	n/a	n/a	n/a	n/a	success	n/a	n/a	n/a
239.01	1.0	pain	cue	8	low_cue	n/a	n/a	n/a	n/a	n/a	n/a	n/a	task-social/cue/runtype-pain/scl/l044.png	n/a	n/a	n/a	n/a	n/a	n/a	n/a	n/a
241.41	3.03	pain	expectrating	8	low_cue	n/a	13.76	Moderate	13.76	Moderate	1.2	1.83	task-social/cue/runtype-pain/scl/l044.png	n/a	n/a	n/a	n/a	n/a	n/a	n/a	n/a
246.53	12.359999999999985	pain	stimulus	8	low_cue	med_stim	n/a	n/a	n/a	n/a	n/a	n/a	n/a	246.53	250.29	255.29	258.9	success	n/a	n/a	n/a
261.7	2.71	pain	outcomerating	8	low_cue	med_stim	16.04	Moderate	16.04	Moderate	0.55	2.16	task-social/outcomerating/task-pain_scale.png	n/a	n/a	n/a	n/a	success	n/a	n/a	n/a
268.0	1.0	pain	cue	9	low_cue	n/a	n/a	n/a	n/a	n/a	n/a	n/a	task-social/cue/runtype-pain/scl/l005.png	n/a	n/a	n/a	n/a	n/a	n/a	n/a	n/a
271.21	3.91	pain	expectrating	9	low_cue	n/a	10.86	Moderate	10.86	Moderate	0.43	3.47	task-social/cue/runtype-pain/scl/l005.png	n/a	n/a	n/a	n/a	n/a	n/a	n/a	n/a
279.75	12.819999999999993	pain	stimulus	9	low_cue	high_stim	n/a	n/a	n/a	n/a	n/a	n/a	n/a	279.75	283.76	288.76	292.57	success	n/a	n/a	n/a
294.91	2.37	pain	outcomerating	9	low_cue	high_stim	34.61	Strong	34.61	Strong	0.62	1.75	task-social/outcomerating/task-pain_scale.png	n/a	n/a	n/a	n/a	success	n/a	n/a	n/a
305.0	1.0	pain	cue	10	high_cue	n/a	n/a	n/a	n/a	n/a	n/a	n/a	task-social/cue/runtype-pain/sch/h001.png	n/a	n/a	n/a	n/a	n/a	n/a	n/a	n/a
308.1	2.39	pain	expectrating	10	high_cue	n/a	36.54	Strong	36.54	Strong	0.58	1.81	task-social/cue/runtype-pain/sch/h001.png	n/a	n/a	n/a	n/a	n/a	n/a	n/a	n/a
315.13	11.899999999999977	pain	stimulus	10	high_cue	low_stim	n/a	n/a	n/a	n/a	n/a	n/a	n/a	315.13	318.63	323.63	327.03	success	n/a	n/a	n/a
328.61	2.48	pain	outcomerating	10	high_cue	low_stim	18.29	Moderate	18.29	Moderate	0.62	1.87	task-social/outcomerating/task-pain_scale.png	n/a	n/a	n/a	n/a	success	n/a	n/a	n/a
339.2	1.0	pain	cue	11	high_cue	n/a	n/a	n/a	n/a	n/a	n/a	n/a	task-social/cue/runtype-pain/sch/h035.png	n/a	n/a	n/a	n/a	n/a	n/a	n/a	n/a
341.91	2.52	pain	expectrating	11	high_cue	n/a	32.45	Strong	32.45	Strong	1.45	1.07	task-social/cue/runtype-pain/sch/h035.png	n/a	n/a	n/a	n/a	n/a	n/a	n/a	n/a
350.45	12.360000000000014	pain	stimulus	11	high_cue	med_stim	n/a	n/a	n/a	n/a	n/a	n/a	n/a	350.45	354.21	359.21	362.82	success	n/a	n/a	n/a
364.91	2.67	pain	outcomerating	11	high_cue	med_stim	27.18	Moderate	27.18	Moderate	0.95	1.72	task-social/outcomerating/task-pain_scale.png	n/a	n/a	n/a	n/a	success	n/a	n/a	n/a
370.11	1.0	pain	cue	12	high_cue	n/a	n/a	n/a	n/a	n/a	n/a	n/a	task-social/cue/runtype-pain/sch/h056.png	n/a	n/a	n/a	n/a	n/a	n/a	n/a	n/a
372.81	1.55	pain	expectrating	12	high_cue	n/a	49.55	Strong	49.55	Strong	0.48	1.07	task-social/cue/runtype-pain/sch/h056.png	n/a	n/a	n/a	n/a	n/a	n/a	n/a	n/a
385.54	12.819999999999993	pain	stimulus	12	high_cue	high_stim	n/a	n/a	n/a	n/a	n/a	n/a	n/a	385.54	389.55	394.55	398.36	success	n/a	n/a	n/a
395.0	3.14	pain	outcomerating	12	high_cue	high_stim	60.65	Strong	60.65	Strong	1.05	2.09	task-social/outcomerating/task-pain_scale.png	n/a	n/a	n/a	n/a	success	n/a	n/a	n/a
