onset	duration	run_type	trial_type	trial_index	cue	stimulusintensity	rating_value	rating_glmslabel	rating_value_fillna	rating_glmslabel_fillna	rating_mouseonset	rating_mousedur	stim_file	pain_onset_ttl1	pain_onset_ttl2	pain_onset_ttl3	pain_onset_ttl4	pain_stimulus_delivery_success	cognitive_correct_response	cognitive_participant_response	cognitive_response_accuracy
5.7	1.0	pain	cue	1	low_cue	n/a	n/a	n/a	n/a	n/a	n/a	n/a	task-social/cue/runtype-pain/scl/l018.png	n/a	n/a	n/a	n/a	n/a	n/a	n/a	n/a
9.01	2.22	pain	expectrating	1	low_cue	n/a	15.44	Moderate	15.44	Moderate	0.52	1.71	task-social/cue/runtype-pain/scl/l018.png	n/a	n/a	n/a	n/a	n/a	n/a	n/a	n/a
17.42	12.36	pain	stimulus	1	low_cue	med_stim	n/a	n/a	n/a	n/a	n/a	n/a	n/a	17.42	21.18	26.18	29.79	success	n/a	n/a	n/a
28.11	2.37	pain	outcomerating	1	low_cue	med_stim	128.22	Strongest sensation of any kind	128.22	Strongest sensation of any kind	0.62	1.75	task-social/outcomerating/task-pain_scale.png	n/a	n/a	n/a	n/a	success	n/a	n/a	n/a
34.99	1.0	pain	cue	2	high_cue	n/a	n/a	n/a	n/a	n/a	n/a	n/a	task-social/cue/runtype-pain/sch/h017.png	n/a	n/a	n/a	n/a	n/a	n/a	n/a	n/a
37.69	2.55	pain	expectrating	2	high_cue	n/a	72.29	Very Strong	72.29	Very Strong	1.4	1.15	task-social/cue/runtype-pain/sch/h017.png	n/a	n/a	n/a	n/a	n/a	n/a	n/a	n/a
42.72	11.910000000000004	pain	stimulus	2	high_cue	low_stim	n/a	n/a	n/a	n/a	n/a	n/a	n/a	42.72	46.22	51.22	54.62	success	n/a	n/a	n/a
58.2	2.1	pain	outcomerating	2	high_cue	low_stim	27.39	Moderate	27.39	Moderate	0.52	1.59	task-social/outcomerating/task-pain_scale.png	n/a	n/a	n/a	n/a	success	n/a	n/a	n/a
62.7	0.98	pain	cue	3	low_cue	n/a	n/a	n/a	n/a	n/a	n/a	n/a	task-social/cue/runtype-pain/scl/l023.png	n/a	n/a	n/a	n/a	n/a	n/a	n/a	n/a
65.9	1.78	pain	expectrating	3	low_cue	n/a	5.69	Weak	5.69	Weak	0.32	1.47	task-social/cue/runtype-pain/scl/l023.png	n/a	n/a	n/a	n/a	n/a	n/a	n/a	n/a
76.44	12.820000000000007	pain	stimulus	3	low_cue	high_stim	n/a	n/a	n/a	n/a	n/a	n/a	n/a	76.44	80.45	85.45	89.26	success	n/a	n/a	n/a
91.6	2.83	pain	outcomerating	3	low_cue	high_stim	146.96	Strongest sensation of any kind	146.96	Strongest sensation of any kind	0.43	2.39	task-social/outcomerating/task-pain_scale.png	n/a	n/a	n/a	n/a	success	n/a	n/a	n/a
96.1	1.0	pain	cue	4	high_cue	n/a	n/a	n/a	n/a	n/a	n/a	n/a	task-social/cue/runtype-pain/sch/h038.png	n/a	n/a	n/a	n/a	n/a	n/a	n/a	n/a
98.4	1.56	pain	expectrating	4	high_cue	n/a	60.9	Strong	60.9	Strong	0.25	1.31	task-social/cue/runtype-pain/sch/h038.png	n/a	n/a	n/a	n/a	n/a	n/a	n/a	n/a
104.62	12.36999999999999	pain	stimulus	4	high_cue	med_stim	n/a	n/a	n/a	n/a	n/a	n/a	n/a	104.62	108.38	113.38	116.99	success	n/a	n/a	n/a
114.8	2.98	pain	outcomerating	4	high_cue	med_stim	72.22	Very Strong	72.22	Very Strong	1.02	1.97	task-social/outcomerating/task-pain_scale.png	n/a	n/a	n/a	n/a	success	n/a	n/a	n/a
131.59	1.0	pain	cue	5	low_cue	n/a	n/a	n/a	n/a	n/a	n/a	n/a	task-social/cue/runtype-pain/scl/l004.png	n/a	n/a	n/a	n/a	n/a	n/a	n/a	n/a
134.31	1.4	pain	expectrating	5	low_cue	n/a	5.98	Weak	5.98	Weak	0.27	1.13	task-social/cue/runtype-pain/scl/l004.png	n/a	n/a	n/a	n/a	n/a	n/a	n/a	n/a
141.02	12.359999999999985	pain	stimulus	5	low_cue	med_stim	n/a	n/a	n/a	n/a	n/a	n/a	n/a	141.02	144.78	149.78	153.39	success	n/a	n/a	n/a
156.2	1.95	pain	outcomerating	5	low_cue	med_stim	48.25	Strong	48.25	Strong	0.05	1.9	task-social/outcomerating/task-pain_scale.png	n/a	n/a	n/a	n/a	success	n/a	n/a	n/a
163.39	1.0	pain	cue	6	low_cue	n/a	n/a	n/a	n/a	n/a	n/a	n/a	task-social/cue/runtype-pain/scl/l012.png	n/a	n/a	n/a	n/a	n/a	n/a	n/a	n/a
165.69	1.43	pain	expectrating	6	low_cue	n/a	2.54	Barely detectable	2.54	Barely detectable	0.4	1.03	task-social/cue/runtype-pain/scl/l012.png	n/a	n/a	n/a	n/a	n/a	n/a	n/a	n/a
178.83	12.819999999999993	pain	stimulus	6	low_cue	high_stim	n/a	n/a	n/a	n/a	n/a	n/a	n/a	178.83	182.84	187.84	191.65	success	n/a	n/a	n/a
188.6	3.24	pain	outcomerating	6	low_cue	high_stim	141.88	Strongest sensation of any kind	141.88	Strongest sensation of any kind	1.42	1.82	task-social/outcomerating/task-pain_scale.png	n/a	n/a	n/a	n/a	success	n/a	n/a	n/a
193.4	1.0	pain	cue	7	high_cue	n/a	n/a	n/a	n/a	n/a	n/a	n/a	task-social/cue/runtype-pain/sch/h042.png	n/a	n/a	n/a	n/a	n/a	n/a	n/a	n/a
195.0	n/a	pain	expectrating	7	high_cue	n/a	n/a	n/a	68.16	Very Strong	1.25	3.77	task-social/cue/runtype-pain/sch/h042.png	n/a	n/a	n/a	n/a	n/a	n/a	n/a	n/a
201.22	12.819999999999993	pain	stimulus	7	high_cue	high_stim	n/a	n/a	n/a	n/a	n/a	n/a	n/a	201.22	205.23	210.23	214.04	success	n/a	n/a	n/a
227.9	2.59	pain	outcomerating	7	high_cue	high_stim	153.33	Strongest sensation of any kind	153.33	Strongest sensation of any kind	0.57	2.02	task-social/outcomerating/task-pain_scale.png	n/a	n/a	n/a	n/a	success	n/a	n/a	n/a
234.4	1.0	pain	cue	8	low_cue	n/a	n/a	n/a	n/a	n/a	n/a	n/a	task-social/cue/runtype-pain/scl/l020.png	n/a	n/a	n/a	n/a	n/a	n/a	n/a	n/a
236.0	1.44	pain	expectrating	8	low_cue	n/a	4.13	Weak	4.13	Weak	0.1	1.34	task-social/cue/runtype-pain/scl/l020.png	n/a	n/a	n/a	n/a	n/a	n/a	n/a	n/a
241.96	11.909999999999997	pain	stimulus	8	low_cue	low_stim	n/a	n/a	n/a	n/a	n/a	n/a	n/a	241.96	245.46	250.46	253.86	success	n/a	n/a	n/a
252.91	2.55	pain	outcomerating	8	low_cue	low_stim	62.82	Strong	62.82	Strong	0.83	1.72	task-social/outcomerating/task-pain_scale.png	n/a	n/a	n/a	n/a	success	n/a	n/a	n/a
259.09	1.0	pain	cue	9	low_cue	n/a	n/a	n/a	n/a	n/a	n/a	n/a	task-social/cue/runtype-pain/scl/l019.png	n/a	n/a	n/a	n/a	n/a	n/a	n/a	n/a
260.99	n/a	pain	expectrating	9	low_cue	n/a	n/a	n/a	7.15	Weak	2.48	3.53	task-social/cue/runtype-pain/scl/l019.png	n/a	n/a	n/a	n/a	n/a	n/a	n/a	n/a
274.12	11.909999999999968	pain	stimulus	9	low_cue	low_stim	n/a	n/a	n/a	n/a	n/a	n/a	n/a	274.12	277.62	282.62	286.02	success	n/a	n/a	n/a
291.0	2.43	pain	outcomerating	9	low_cue	low_stim	93.74	Very Strong	93.74	Very Strong	0.22	2.22	task-social/outcomerating/task-pain_scale.png	n/a	n/a	n/a	n/a	success	n/a	n/a	n/a
307.79	1.0	pain	cue	10	high_cue	n/a	n/a	n/a	n/a	n/a	n/a	n/a	task-social/cue/runtype-pain/sch/h039.png	n/a	n/a	n/a	n/a	n/a	n/a	n/a	n/a
310.99	1.74	pain	expectrating	10	high_cue	n/a	55.48	Strong	55.48	Strong	0.3	1.44	task-social/cue/runtype-pain/sch/h039.png	n/a	n/a	n/a	n/a	n/a	n/a	n/a	n/a
316.92	11.909999999999968	pain	stimulus	10	high_cue	low_stim	n/a	n/a	n/a	n/a	n/a	n/a	n/a	316.92	320.42	325.42	328.82	success	n/a	n/a	n/a
327.6	2.39	pain	outcomerating	10	high_cue	low_stim	61.26	Strong	61.26	Strong	0.55	1.84	task-social/outcomerating/task-pain_scale.png	n/a	n/a	n/a	n/a	success	n/a	n/a	n/a
340.69	1.0	pain	cue	11	high_cue	n/a	n/a	n/a	n/a	n/a	n/a	n/a	task-social/cue/runtype-pain/sch/h032.png	n/a	n/a	n/a	n/a	n/a	n/a	n/a	n/a
342.59	1.28	pain	expectrating	11	high_cue	n/a	53.64	Strong	53.64	Strong	0.32	0.97	task-social/cue/runtype-pain/sch/h032.png	n/a	n/a	n/a	n/a	n/a	n/a	n/a	n/a
353.32	12.360000000000014	pain	stimulus	11	high_cue	med_stim	n/a	n/a	n/a	n/a	n/a	n/a	n/a	353.32	357.08	362.08	365.69	success	n/a	n/a	n/a
363.8	2.07	pain	outcomerating	11	high_cue	med_stim	62.92	Strong	62.92	Strong	0.78	1.29	task-social/outcomerating/task-pain_scale.png	n/a	n/a	n/a	n/a	success	n/a	n/a	n/a
371.5	1.0	pain	cue	12	high_cue	n/a	n/a	n/a	n/a	n/a	n/a	n/a	task-social/cue/runtype-pain/sch/h025.png	n/a	n/a	n/a	n/a	n/a	n/a	n/a	n/a
374.8	1.29	pain	expectrating	12	high_cue	n/a	70.61	Very Strong	70.61	Very Strong	0.07	1.22	task-social/cue/runtype-pain/sch/h025.png	n/a	n/a	n/a	n/a	n/a	n/a	n/a	n/a
385.35	12.819999999999993	pain	stimulus	12	high_cue	high_stim	n/a	n/a	n/a	n/a	n/a	n/a	n/a	385.35	389.36	394.36	398.17	success	n/a	n/a	n/a
395.09	3.0	pain	outcomerating	12	high_cue	high_stim	155.59	Strongest sensation of any kind	155.59	Strongest sensation of any kind	1.32	1.68	task-social/outcomerating/task-pain_scale.png	n/a	n/a	n/a	n/a	success	n/a	n/a	n/a
