onset	duration	run_type	trial_type	trial_index	cue	stimulusintensity	rating_value	rating_glmslabel	rating_value_fillna	rating_glmslabel_fillna	rating_mouseonset	rating_mousedur	stim_file	pain_onset_ttl1	pain_onset_ttl2	pain_onset_ttl3	pain_onset_ttl4	pain_stimulus_delivery_success	cognitive_correct_response	cognitive_participant_response	cognitive_response_accuracy
5.51	0.98	pain	cue	1	low_cue	n/a	n/a	n/a	n/a	n/a	n/a	n/a	task-social/cue/runtype-pain/scl/l038.png	n/a	n/a	n/a	n/a	n/a	n/a	n/a	n/a
7.55	n/a	pain	expectrating	1	low_cue	n/a	n/a	n/a	6.67	Weak	0.88	3.72	task-social/cue/runtype-pain/scl/l038.png	n/a	n/a	n/a	n/a	n/a	n/a	n/a	n/a
16.29	12.370000000000001	pain	stimulus	1	low_cue	med_stim	n/a	n/a	n/a	n/a	n/a	n/a	n/a	16.29	20.05	25.05	28.66	success	n/a	n/a	n/a
28.1	n/a	pain	outcomerating	1	low_cue	med_stim	n/a	n/a	81.33	Very Strong	0.88	3.72	task-social/outcomerating/task-pain_scale.png	n/a	n/a	n/a	n/a	success	n/a	n/a	n/a
33.81	1.0	pain	cue	2	low_cue	n/a	n/a	n/a	n/a	n/a	n/a	n/a	task-social/cue/runtype-pain/scl/l048.png	n/a	n/a	n/a	n/a	n/a	n/a	n/a	n/a
36.11	n/a	pain	expectrating	2	low_cue	n/a	n/a	n/a	43.54	Strong	0.6	3.85	task-social/cue/runtype-pain/scl/l048.png	n/a	n/a	n/a	n/a	n/a	n/a	n/a	n/a
47.65	11.910000000000004	pain	stimulus	2	low_cue	low_stim	n/a	n/a	n/a	n/a	n/a	n/a	n/a	47.65	51.15	56.15	59.55	success	n/a	n/a	n/a
58.52	n/a	pain	outcomerating	2	low_cue	low_stim	n/a	n/a	26.15	Moderate	0.6	3.85	task-social/outcomerating/task-pain_scale.png	n/a	n/a	n/a	n/a	success	n/a	n/a	n/a
74.21	1.0	pain	cue	3	low_cue	n/a	n/a	n/a	n/a	n/a	n/a	n/a	task-social/cue/runtype-pain/scl/l015.png	n/a	n/a	n/a	n/a	n/a	n/a	n/a	n/a
76.52	n/a	pain	expectrating	3	low_cue	n/a	n/a	n/a	27.18	Moderate	1.57	3.6	task-social/cue/runtype-pain/scl/l015.png	n/a	n/a	n/a	n/a	n/a	n/a	n/a	n/a
85.35	12.820000000000007	pain	stimulus	3	low_cue	high_stim	n/a	n/a	n/a	n/a	n/a	n/a	n/a	85.35	89.36	94.36	98.17	success	n/a	n/a	n/a
96.41	n/a	pain	outcomerating	3	low_cue	high_stim	n/a	n/a	84.45	Very Strong	1.57	3.6	task-social/outcomerating/task-pain_scale.png	n/a	n/a	n/a	n/a	success	n/a	n/a	n/a
103.8	1.0	pain	cue	4	high_cue	n/a	n/a	n/a	n/a	n/a	n/a	n/a	task-social/cue/runtype-pain/sch/h017.png	n/a	n/a	n/a	n/a	n/a	n/a	n/a	n/a
106.6	n/a	pain	expectrating	4	high_cue	n/a	n/a	n/a	126.5	Strongest sensation of any kind	0.83	3.7	task-social/cue/runtype-pain/sch/h017.png	n/a	n/a	n/a	n/a	n/a	n/a	n/a	n/a
113.24	11.91000000000001	pain	stimulus	4	high_cue	low_stim	n/a	n/a	n/a	n/a	n/a	n/a	n/a	113.24	116.74	121.74	125.14	success	n/a	n/a	n/a
127.41	n/a	pain	outcomerating	4	high_cue	low_stim	n/a	n/a	51.62	Strong	0.83	3.7	task-social/outcomerating/task-pain_scale.png	n/a	n/a	n/a	n/a	success	n/a	n/a	n/a
138.31	0.98	pain	cue	5	high_cue	n/a	n/a	n/a	n/a	n/a	n/a	n/a	task-social/cue/runtype-pain/sch/h046.png	n/a	n/a	n/a	n/a	n/a	n/a	n/a	n/a
140.01	n/a	pain	expectrating	5	high_cue	n/a	n/a	n/a	45.98	Strong	0.32	3.6	task-social/cue/runtype-pain/sch/h046.png	n/a	n/a	n/a	n/a	n/a	n/a	n/a	n/a
153.02	12.369999999999976	pain	stimulus	5	high_cue	med_stim	n/a	n/a	n/a	n/a	n/a	n/a	n/a	153.02	156.78	161.78	165.39	success	n/a	n/a	n/a
167.21	n/a	pain	outcomerating	5	high_cue	med_stim	n/a	n/a	88.85	Very Strong	0.32	3.6	task-social/outcomerating/task-pain_scale.png	n/a	n/a	n/a	n/a	success	n/a	n/a	n/a
178.11	0.98	pain	cue	6	high_cue	n/a	n/a	n/a	n/a	n/a	n/a	n/a	task-social/cue/runtype-pain/sch/h052.png	n/a	n/a	n/a	n/a	n/a	n/a	n/a	n/a
179.91	n/a	pain	expectrating	6	high_cue	n/a	n/a	n/a	65.08	Very Strong	0.47	2.17	task-social/cue/runtype-pain/sch/h052.png	n/a	n/a	n/a	n/a	n/a	n/a	n/a	n/a
186.54	12.830000000000013	pain	stimulus	6	high_cue	high_stim	n/a	n/a	n/a	n/a	n/a	n/a	n/a	186.54	190.55	195.55	199.36	success	n/a	n/a	n/a
200.7	n/a	pain	outcomerating	6	high_cue	high_stim	n/a	n/a	119.45	Strongest sensation of any kind	0.47	2.17	task-social/outcomerating/task-pain_scale.png	n/a	n/a	n/a	n/a	success	n/a	n/a	n/a
206.7	1.0	pain	cue	7	high_cue	n/a	n/a	n/a	n/a	n/a	n/a	n/a	task-social/cue/runtype-pain/sch/h042.png	n/a	n/a	n/a	n/a	n/a	n/a	n/a	n/a
209.71	n/a	pain	expectrating	7	high_cue	n/a	n/a	n/a	72.44	Very Strong	0.05	2.68	task-social/cue/runtype-pain/sch/h042.png	n/a	n/a	n/a	n/a	n/a	n/a	n/a	n/a
217.34	11.900000000000006	pain	stimulus	7	high_cue	low_stim	n/a	n/a	n/a	n/a	n/a	n/a	n/a	217.34	220.84	225.84	229.24	success	n/a	n/a	n/a
235.82	n/a	pain	outcomerating	7	high_cue	low_stim	n/a	n/a	16.77	Moderate	0.05	2.68	task-social/outcomerating/task-pain_scale.png	n/a	n/a	n/a	n/a	success	n/a	n/a	n/a
242.0	1.0	pain	cue	8	low_cue	n/a	n/a	n/a	n/a	n/a	n/a	n/a	task-social/cue/runtype-pain/scl/l014.png	n/a	n/a	n/a	n/a	n/a	n/a	n/a	n/a
244.7	n/a	pain	expectrating	8	low_cue	n/a	n/a	n/a	17.09	Moderate	0.52	3.8	task-social/cue/runtype-pain/scl/l014.png	n/a	n/a	n/a	n/a	n/a	n/a	n/a	n/a
251.65	12.820000000000022	pain	stimulus	8	low_cue	high_stim	n/a	n/a	n/a	n/a	n/a	n/a	n/a	251.65	255.66	260.66	264.47	success	n/a	n/a	n/a
261.61	n/a	pain	outcomerating	8	low_cue	high_stim	n/a	n/a	135.9	Strongest sensation of any kind	0.52	3.8	task-social/outcomerating/task-pain_scale.png	n/a	n/a	n/a	n/a	success	n/a	n/a	n/a
270.81	0.98	pain	cue	9	high_cue	n/a	n/a	n/a	n/a	n/a	n/a	n/a	task-social/cue/runtype-pain/sch/h014.png	n/a	n/a	n/a	n/a	n/a	n/a	n/a	n/a
273.81	2.97	pain	expectrating	9	high_cue	n/a	65.59	Very Strong	65.59	Very Strong	0.32	2.65	task-social/cue/runtype-pain/sch/h014.png	n/a	n/a	n/a	n/a	n/a	n/a	n/a	n/a
279.74	12.819999999999993	pain	stimulus	9	high_cue	high_stim	n/a	n/a	n/a	n/a	n/a	n/a	n/a	279.74	283.75	288.75	292.56	success	n/a	n/a	n/a
300.51	n/a	pain	outcomerating	9	high_cue	high_stim	n/a	n/a	150.14	Strongest sensation of any kind	0.32	2.65	task-social/outcomerating/task-pain_scale.png	n/a	n/a	n/a	n/a	success	n/a	n/a	n/a
306.51	1.0	pain	cue	10	low_cue	n/a	n/a	n/a	n/a	n/a	n/a	n/a	task-social/cue/runtype-pain/scl/l053.png	n/a	n/a	n/a	n/a	n/a	n/a	n/a	n/a
308.81	n/a	pain	expectrating	10	low_cue	n/a	n/a	n/a	38.99	Strong	0.33	3.98	task-social/cue/runtype-pain/scl/l053.png	n/a	n/a	n/a	n/a	n/a	n/a	n/a	n/a
316.43	12.360000000000014	pain	stimulus	10	low_cue	med_stim	n/a	n/a	n/a	n/a	n/a	n/a	n/a	316.43	320.19	325.19	328.8	success	n/a	n/a	n/a
327.3	n/a	pain	outcomerating	10	low_cue	med_stim	n/a	n/a	148.14	Strongest sensation of any kind	0.33	3.98	task-social/outcomerating/task-pain_scale.png	n/a	n/a	n/a	n/a	success	n/a	n/a	n/a
333.5	1.0	pain	cue	11	high_cue	n/a	n/a	n/a	n/a	n/a	n/a	n/a	task-social/cue/runtype-pain/sch/h033.png	n/a	n/a	n/a	n/a	n/a	n/a	n/a	n/a
336.5	n/a	pain	expectrating	11	high_cue	n/a	n/a	n/a	60.26	Strong	2.07	3.02	task-social/cue/runtype-pain/sch/h033.png	n/a	n/a	n/a	n/a	n/a	n/a	n/a	n/a
346.83	12.360000000000014	pain	stimulus	11	high_cue	med_stim	n/a	n/a	n/a	n/a	n/a	n/a	n/a	346.83	350.59	355.59	359.2	success	n/a	n/a	n/a
361.21	n/a	pain	outcomerating	11	high_cue	med_stim	n/a	n/a	129.87	Strongest sensation of any kind	2.07	3.02	task-social/outcomerating/task-pain_scale.png	n/a	n/a	n/a	n/a	success	n/a	n/a	n/a
372.1	1.0	pain	cue	12	low_cue	n/a	n/a	n/a	n/a	n/a	n/a	n/a	task-social/cue/runtype-pain/scl/l025.png	n/a	n/a	n/a	n/a	n/a	n/a	n/a	n/a
375.1	n/a	pain	expectrating	12	low_cue	n/a	n/a	n/a	18.8	Moderate	0.38	3.72	task-social/cue/runtype-pain/scl/l025.png	n/a	n/a	n/a	n/a	n/a	n/a	n/a	n/a
383.73	11.909999999999968	pain	stimulus	12	low_cue	low_stim	n/a	n/a	n/a	n/a	n/a	n/a	n/a	383.73	387.23	392.23	395.63	success	n/a	n/a	n/a
394.71	n/a	pain	outcomerating	12	low_cue	low_stim	n/a	n/a	44.33	Strong	0.38	3.72	task-social/outcomerating/task-pain_scale.png	n/a	n/a	n/a	n/a	success	n/a	n/a	n/a
