onset	duration	trial_type	response_x	response_y	situation	context	modality	stim_file
4.828	54.312	narrative_presentation	n/a	n/a	Deliverance	prison	Audio	task-narratives/Narrative7Situation1.mp3
59.139	3.7	rating_feeling	1020	544	Deliverance	prison	Audio	task-narratives/Narrative7Situation1.mp3
60.689	2.15	feeling_mouse_trajectory	1020	544	Deliverance	prison	Audio	task-narratives/Narrative7Situation1.mp3
63.18	2.822	rating_expectation	1058	570	Deliverance	prison	Audio	task-narratives/Narrative7Situation1.mp3
63.214	2.788	expectation_mouse_trajectory	1058	570	Deliverance	prison	Audio	task-narratives/Narrative7Situation1.mp3
70.399	5.941	narrative_presentation	n/a	n/a	Abduction	town	Audio	task-narratives/Narrative7Situation2.mp3
76.34	2.685	rating_feeling	1020	544	Abduction	town	Audio	task-narratives/Narrative7Situation2.mp3
77.923	1.102	feeling_mouse_trajectory	1020	544	Abduction	town	Audio	task-narratives/Narrative7Situation2.mp3
80.365	3.702	rating_expectation	1058	570	Abduction	town	Audio	task-narratives/Narrative7Situation2.mp3
81.965	2.102	expectation_mouse_trajectory	1058	570	Abduction	town	Audio	task-narratives/Narrative7Situation2.mp3
92.439	7.451	narrative_presentation	n/a	n/a	Pursuit	prison	Audio	task-narratives/Narrative7Situation3.mp3
99.889	2.808	rating_feeling	1020	544	Pursuit	prison	Audio	task-narratives/Narrative7Situation3.mp3
100.722	1.975	feeling_mouse_trajectory	1020	544	Pursuit	prison	Audio	task-narratives/Narrative7Situation3.mp3
103.931	2.606	rating_expectation	1058	570	Pursuit	prison	Audio	task-narratives/Narrative7Situation3.mp3
104.881	1.656	expectation_mouse_trajectory	1058	570	Pursuit	prison	Audio	task-narratives/Narrative7Situation3.mp3
111.028	11.478	narrative_presentation	n/a	n/a	Obtaining	city	Audio	task-narratives/Narrative7Situation4.mp3
122.506	2.901	rating_feeling	1020	544	Obtaining	city	Audio	task-narratives/Narrative7Situation4.mp3
123.539	1.868	feeling_mouse_trajectory	1020	544	Obtaining	city	Audio	task-narratives/Narrative7Situation4.mp3
126.532	3.933	rating_expectation	1058	570	Obtaining	city	Audio	task-narratives/Narrative7Situation4.mp3
127.499	2.967	expectation_mouse_trajectory	1058	570	Obtaining	city	Audio	task-narratives/Narrative7Situation4.mp3
135.61	7.987	narrative_presentation	n/a	n/a	Recovery of a lost one	park	Audio	task-narratives/Narrative7Situation5.mp3
143.596	1.708	rating_feeling	1020	544	Recovery of a lost one	park	Audio	task-narratives/Narrative7Situation5.mp3
144.063	1.241	feeling_mouse_trajectory	1020	544	Recovery of a lost one	park	Audio	task-narratives/Narrative7Situation5.mp3
147.632	1.807	rating_expectation	1058	570	Recovery of a lost one	park	Audio	task-narratives/Narrative7Situation5.mp3
148.332	1.107	expectation_mouse_trajectory	1058	570	Recovery of a lost one	park	Audio	task-narratives/Narrative7Situation5.mp3
154.728	8.777	narrative_presentation	n/a	n/a	Rivalry of kin	city	Audio	task-narratives/Narrative7Situation6.mp3
163.505	2.801	rating_feeling	1020	544	Rivalry of kin	city	Audio	task-narratives/Narrative7Situation6.mp3
164.088	2.218	feeling_mouse_trajectory	1020	544	Rivalry of kin	city	Audio	task-narratives/Narrative7Situation6.mp3
167.531	3.752	rating_expectation	1058	570	Rivalry of kin	city	Audio	task-narratives/Narrative7Situation6.mp3
168.365	2.918	expectation_mouse_trajectory	1058	570	Rivalry of kin	city	Audio	task-narratives/Narrative7Situation6.mp3
176.602	16.646	narrative_presentation	n/a	n/a	Involuntary crimes of love	hospital	Audio	task-narratives/Narrative7Situation7.mp3
193.248	1.506	rating_feeling	1020	544	Involuntary crimes of love	hospital	Audio	task-narratives/Narrative7Situation7.mp3
193.715	1.04	feeling_mouse_trajectory	1020	544	Involuntary crimes of love	hospital	Audio	task-narratives/Narrative7Situation7.mp3
197.28	1.672	rating_expectation	1058	570	Involuntary crimes of love	hospital	Audio	task-narratives/Narrative7Situation7.mp3
197.596	1.355	expectation_mouse_trajectory	1058	570	Involuntary crimes of love	hospital	Audio	task-narratives/Narrative7Situation7.mp3
203.348	8.773	narrative_presentation	n/a	n/a	Rivalry of superior versus inferior	beach	Audio	task-narratives/Narrative7Situation8.mp3
212.122	3.668	rating_feeling	1020	544	Rivalry of superior versus inferior	beach	Audio	task-narratives/Narrative7Situation8.mp3
213.655	2.135	feeling_mouse_trajectory	1020	544	Rivalry of superior versus inferior	beach	Audio	task-narratives/Narrative7Situation8.mp3
216.149	3.001	rating_expectation	1058	570	Rivalry of superior versus inferior	beach	Audio	task-narratives/Narrative7Situation8.mp3
216.932	2.218	expectation_mouse_trajectory	1058	570	Rivalry of superior versus inferior	beach	Audio	task-narratives/Narrative7Situation8.mp3
222.203	7.985	narrative_presentation	n/a	n/a	Ambition	hospital	Audio	task-narratives/Narrative7Situation9.mp3
230.188	2.509	rating_feeling	1020	544	Ambition	hospital	Audio	task-narratives/Narrative7Situation9.mp3
230.555	2.143	feeling_mouse_trajectory	1020	544	Ambition	hospital	Audio	task-narratives/Narrative7Situation9.mp3
234.222	2.291	rating_expectation	1058	570	Ambition	hospital	Audio	task-narratives/Narrative7Situation9.mp3
234.672	1.841	expectation_mouse_trajectory	1058	570	Ambition	hospital	Audio	task-narratives/Narrative7Situation9.mp3
243.295	15.312	narrative_presentation	n/a	n/a	Deliverance	prison	Audio	task-narratives/Narrative8Situation1.mp3
258.607	2.318	rating_feeling	1020	544	Deliverance	prison	Audio	task-narratives/Narrative8Situation1.mp3
259.324	1.601	feeling_mouse_trajectory	1020	544	Deliverance	prison	Audio	task-narratives/Narrative8Situation1.mp3
262.632	3.318	rating_expectation	1058	570	Deliverance	prison	Audio	task-narratives/Narrative8Situation1.mp3
263.382	2.568	expectation_mouse_trajectory	1058	570	Deliverance	prison	Audio	task-narratives/Narrative8Situation1.mp3
269.688	8.776	narrative_presentation	n/a	n/a	Abduction	town	Audio	task-narratives/Narrative8Situation2.mp3
278.463	3.991	rating_feeling	1020	544	Abduction	town	Audio	task-narratives/Narrative8Situation2.mp3
279.813	2.641	feeling_mouse_trajectory	1020	544	Abduction	town	Audio	task-narratives/Narrative8Situation2.mp3
282.496	0.017	rating_expectation	1058	570	Abduction	town	Audio	task-narratives/Narrative8Situation2.mp3
282.546	-0.033	expectation_mouse_trajectory	1058	570	Abduction	town	Audio	task-narratives/Narrative8Situation2.mp3
290.565	22.146	narrative_presentation	n/a	n/a	Pursuit	prison	Audio	task-narratives/Narrative8Situation3.mp3
312.711	3.068	rating_feeling	1020	544	Pursuit	prison	Audio	task-narratives/Narrative8Situation3.mp3
313.044	2.735	feeling_mouse_trajectory	1020	544	Pursuit	prison	Audio	task-narratives/Narrative8Situation3.mp3
316.736	1.451	rating_expectation	1058	570	Pursuit	prison	Audio	task-narratives/Narrative8Situation3.mp3
317.286	0.901	expectation_mouse_trajectory	1058	570	Pursuit	prison	Audio	task-narratives/Narrative8Situation3.mp3
323.791	12.616	narrative_presentation	n/a	n/a	Obtaining	city	Audio	task-narratives/Narrative8Situation4.mp3
336.407	2.82	rating_feeling	1020	544	Obtaining	city	Audio	task-narratives/Narrative8Situation4.mp3
337.757	1.47	feeling_mouse_trajectory	1020	544	Obtaining	city	Audio	task-narratives/Narrative8Situation4.mp3
340.43	1.652	rating_expectation	1058	570	Obtaining	city	Audio	task-narratives/Narrative8Situation4.mp3
340.763	1.318	expectation_mouse_trajectory	1058	570	Obtaining	city	Audio	task-narratives/Narrative8Situation4.mp3
346.483	6.609	narrative_presentation	n/a	n/a	Recovery of a lost one	park	Audio	task-narratives/Narrative8Situation5.mp3
353.092	2.734	rating_feeling	1020	544	Recovery of a lost one	park	Audio	task-narratives/Narrative8Situation5.mp3
354.276	1.551	feeling_mouse_trajectory	1020	544	Recovery of a lost one	park	Audio	task-narratives/Narrative8Situation5.mp3
357.118	2.168	rating_expectation	1058	570	Recovery of a lost one	park	Audio	task-narratives/Narrative8Situation5.mp3
357.418	1.868	expectation_mouse_trajectory	1058	570	Recovery of a lost one	park	Audio	task-narratives/Narrative8Situation5.mp3
363.173	5.984	narrative_presentation	n/a	n/a	Rivalry of kin	city	Audio	task-narratives/Narrative8Situation6.mp3
369.156	2.341	rating_feeling	1020	544	Rivalry of kin	city	Audio	task-narratives/Narrative8Situation6.mp3
369.756	1.741	feeling_mouse_trajectory	1020	544	Rivalry of kin	city	Audio	task-narratives/Narrative8Situation6.mp3
373.19	2.439	rating_expectation	1058	570	Rivalry of kin	city	Audio	task-narratives/Narrative8Situation6.mp3
373.574	2.056	expectation_mouse_trajectory	1058	570	Rivalry of kin	city	Audio	task-narratives/Narrative8Situation6.mp3
380.246	10.787	narrative_presentation	n/a	n/a	Involuntary crimes of love	hospital	Audio	task-narratives/Narrative8Situation7.mp3
391.032	1.451	rating_feeling	1020	544	Involuntary crimes of love	hospital	Audio	task-narratives/Narrative8Situation7.mp3
391.316	1.167	feeling_mouse_trajectory	1020	544	Involuntary crimes of love	hospital	Audio	task-narratives/Narrative8Situation7.mp3
395.065	1.567	rating_expectation	1058	570	Involuntary crimes of love	hospital	Audio	task-narratives/Narrative8Situation7.mp3
395.399	1.234	expectation_mouse_trajectory	1058	570	Involuntary crimes of love	hospital	Audio	task-narratives/Narrative8Situation7.mp3
402.12	11.289	narrative_presentation	n/a	n/a	Rivalry of superior versus inferior	beach	Audio	task-narratives/Narrative8Situation8.mp3
413.409	3.602	rating_feeling	1020	544	Rivalry of superior versus inferior	beach	Audio	task-narratives/Narrative8Situation8.mp3
414.009	3.002	feeling_mouse_trajectory	1020	544	Rivalry of superior versus inferior	beach	Audio	task-narratives/Narrative8Situation8.mp3
417.446	2.823	rating_expectation	1058	570	Rivalry of superior versus inferior	beach	Audio	task-narratives/Narrative8Situation8.mp3
418.063	2.206	expectation_mouse_trajectory	1058	570	Rivalry of superior versus inferior	beach	Audio	task-narratives/Narrative8Situation8.mp3
424.529	10.113	narrative_presentation	n/a	n/a	Ambition	hospital	Audio	task-narratives/Narrative8Situation9.mp3
434.641	2.218	rating_feeling	1020	544	Ambition	hospital	Audio	task-narratives/Narrative8Situation9.mp3
435.408	1.451	feeling_mouse_trajectory	1020	544	Ambition	hospital	Audio	task-narratives/Narrative8Situation9.mp3
438.665	3.535	rating_expectation	1058	570	Ambition	hospital	Audio	task-narratives/Narrative8Situation9.mp3
438.981	3.218	expectation_mouse_trajectory	1058	570	Ambition	hospital	Audio	task-narratives/Narrative8Situation9.mp3
