onset	duration	trial_type	response_x	response_y	situation	context	modality	stim_file
7.827	12.658	narrative_presentation	n/a	n/a	Enmity of kin	prison	Text	task-narratives/Narrative5Situation1.mp3
20.485	2.952	rating_feeling	992	488	Enmity of kin	prison	Text	task-narratives/Narrative5Situation1.mp3
21.385	2.052	feeling_mouse_trajectory	992	488	Enmity of kin	prison	Text	task-narratives/Narrative5Situation1.mp3
24.53	1.918	rating_expectation	838	486	Enmity of kin	prison	Text	task-narratives/Narrative5Situation1.mp3
25.214	1.235	expectation_mouse_trajectory	838	486	Enmity of kin	prison	Text	task-narratives/Narrative5Situation1.mp3
31.718	28.116	narrative_presentation	n/a	n/a	The enigma	town	Text	task-narratives/Narrative5Situation2.mp3
59.835	1.784	rating_feeling	992	488	The enigma	town	Text	task-narratives/Narrative5Situation2.mp3
60.502	1.118	feeling_mouse_trajectory	992	488	The enigma	town	Text	task-narratives/Narrative5Situation2.mp3
63.861	2.561	rating_expectation	838	486	The enigma	town	Text	task-narratives/Narrative5Situation2.mp3
64.328	2.094	expectation_mouse_trajectory	838	486	The enigma	town	Text	task-narratives/Narrative5Situation2.mp3
70.933	13.316	narrative_presentation	n/a	n/a	Discovery of dishonour of loved one	prison	Text	task-narratives/Narrative5Situation3.mp3
84.248	2.187	rating_feeling	992	488	Discovery of dishonour of loved one	prison	Text	task-narratives/Narrative5Situation3.mp3
84.982	1.453	feeling_mouse_trajectory	992	488	Discovery of dishonour of loved one	prison	Text	task-narratives/Narrative5Situation3.mp3
88.289	2.002	rating_expectation	838	486	Discovery of dishonour of loved one	prison	Text	task-narratives/Narrative5Situation3.mp3
88.623	1.669	expectation_mouse_trajectory	838	486	Discovery of dishonour of loved one	prison	Text	task-narratives/Narrative5Situation3.mp3
93.358	20.147	narrative_presentation	n/a	n/a	Loss of loved one	swamp	Text	task-narratives/Narrative5Situation4.mp3
113.505	2.101	rating_feeling	992	488	Loss of loved one	swamp	Text	task-narratives/Narrative5Situation4.mp3
114.105	1.501	feeling_mouse_trajectory	992	488	Loss of loved one	swamp	Text	task-narratives/Narrative5Situation4.mp3
117.538	3.007	rating_expectation	838	486	Loss of loved one	swamp	Text	task-narratives/Narrative5Situation4.mp3
118.021	2.524	expectation_mouse_trajectory	838	486	Loss of loved one	swamp	Text	task-narratives/Narrative5Situation4.mp3
126.628	14.115	narrative_presentation	n/a	n/a	Necessity of sacrificing loved ones	park	Text	task-narratives/Narrative5Situation5.mp3
140.743	2.634	rating_feeling	992	488	Necessity of sacrificing loved ones	park	Text	task-narratives/Narrative5Situation5.mp3
141.209	2.168	feeling_mouse_trajectory	992	488	Necessity of sacrificing loved ones	park	Text	task-narratives/Narrative5Situation5.mp3
144.777	3.702	rating_expectation	838	486	Necessity of sacrificing loved ones	park	Text	task-narratives/Narrative5Situation5.mp3
144.81	3.668	expectation_mouse_trajectory	838	486	Necessity of sacrificing loved ones	park	Text	task-narratives/Narrative5Situation5.mp3
151.879	5.484	narrative_presentation	n/a	n/a	Daring Enterprise	swamp	Text	task-narratives/Narrative5Situation6.mp3
157.363	2.368	rating_feeling	992	488	Daring Enterprise	swamp	Text	task-narratives/Narrative5Situation6.mp3
158.113	1.618	feeling_mouse_trajectory	992	488	Daring Enterprise	swamp	Text	task-narratives/Narrative5Situation6.mp3
161.405	1.951	rating_expectation	838	486	Daring Enterprise	swamp	Text	task-narratives/Narrative5Situation6.mp3
161.738	1.618	expectation_mouse_trajectory	838	486	Daring Enterprise	swamp	Text	task-narratives/Narrative5Situation6.mp3
169.486	20.815	narrative_presentation	n/a	n/a	Revolt	beach	Text	task-narratives/Narrative5Situation7.mp3
190.301	2.835	rating_feeling	992	488	Revolt	beach	Text	task-narratives/Narrative5Situation7.mp3
190.984	2.151	feeling_mouse_trajectory	992	488	Revolt	beach	Text	task-narratives/Narrative5Situation7.mp3
194.326	1.801	rating_expectation	838	486	Revolt	beach	Text	task-narratives/Narrative5Situation7.mp3
194.992	1.134	expectation_mouse_trajectory	838	486	Revolt	beach	Text	task-narratives/Narrative5Situation7.mp3
201.381	7.284	narrative_presentation	n/a	n/a	Falling prey to misfortune	city	Text	task-narratives/Narrative5Situation8.mp3
208.665	2.54	rating_feeling	992	488	Falling prey to misfortune	city	Text	task-narratives/Narrative5Situation8.mp3
209.498	1.707	feeling_mouse_trajectory	992	488	Falling prey to misfortune	city	Text	task-narratives/Narrative5Situation8.mp3
212.705	1.672	rating_expectation	838	486	Falling prey to misfortune	city	Text	task-narratives/Narrative5Situation8.mp3
212.955	1.422	expectation_mouse_trajectory	838	486	Falling prey to misfortune	city	Text	task-narratives/Narrative5Situation8.mp3
219.774	37.939	narrative_presentation	n/a	n/a	Mistaken jealousy	beach	Text	task-narratives/Narrative5Situation9.mp3
257.713	2.222	rating_feeling	992	488	Mistaken jealousy	beach	Text	task-narratives/Narrative5Situation9.mp3
258.263	1.672	feeling_mouse_trajectory	992	488	Mistaken jealousy	beach	Text	task-narratives/Narrative5Situation9.mp3
261.738	1.654	rating_expectation	838	486	Mistaken jealousy	beach	Text	task-narratives/Narrative5Situation9.mp3
261.955	1.437	expectation_mouse_trajectory	838	486	Mistaken jealousy	beach	Text	task-narratives/Narrative5Situation9.mp3
267.807	25.989	narrative_presentation	n/a	n/a	Enmity of kin	prison	Text	task-narratives/Narrative6Situation1.mp3
293.796	2.375	rating_feeling	992	488	Enmity of kin	prison	Text	task-narratives/Narrative6Situation1.mp3
295.23	0.942	feeling_mouse_trajectory	992	488	Enmity of kin	prison	Text	task-narratives/Narrative6Situation1.mp3
297.821	1.451	rating_expectation	838	486	Enmity of kin	prison	Text	task-narratives/Narrative6Situation1.mp3
298.271	1.001	expectation_mouse_trajectory	838	486	Enmity of kin	prison	Text	task-narratives/Narrative6Situation1.mp3
304.903	27.983	narrative_presentation	n/a	n/a	The enigma	town	Text	task-narratives/Narrative6Situation2.mp3
332.886	2.034	rating_feeling	992	488	The enigma	town	Text	task-narratives/Narrative6Situation2.mp3
333.402	1.518	feeling_mouse_trajectory	992	488	The enigma	town	Text	task-narratives/Narrative6Situation2.mp3
336.912	2.118	rating_expectation	838	486	The enigma	town	Text	task-narratives/Narrative6Situation2.mp3
337.379	1.651	expectation_mouse_trajectory	838	486	The enigma	town	Text	task-narratives/Narrative6Situation2.mp3
345.968	11.978	narrative_presentation	n/a	n/a	Discovery of dishonour of loved one	prison	Text	task-narratives/Narrative6Situation3.mp3
357.947	2.718	rating_feeling	992	488	Discovery of dishonour of loved one	prison	Text	task-narratives/Narrative6Situation3.mp3
359.213	1.451	feeling_mouse_trajectory	992	488	Discovery of dishonour of loved one	prison	Text	task-narratives/Narrative6Situation3.mp3
361.972	2.935	rating_expectation	838	486	Discovery of dishonour of loved one	prison	Text	task-narratives/Narrative6Situation3.mp3
362.522	2.385	expectation_mouse_trajectory	838	486	Discovery of dishonour of loved one	prison	Text	task-narratives/Narrative6Situation3.mp3
368.026	11.978	narrative_presentation	n/a	n/a	Loss of loved one	swamp	Text	task-narratives/Narrative6Situation4.mp3
380.004	1.584	rating_feeling	992	488	Loss of loved one	swamp	Text	task-narratives/Narrative6Situation4.mp3
380.47	1.117	feeling_mouse_trajectory	992	488	Loss of loved one	swamp	Text	task-narratives/Narrative6Situation4.mp3
384.03	1.741	rating_expectation	838	486	Loss of loved one	swamp	Text	task-narratives/Narrative6Situation4.mp3
384.43	1.341	expectation_mouse_trajectory	838	486	Loss of loved one	swamp	Text	task-narratives/Narrative6Situation4.mp3
390.085	7.313	narrative_presentation	n/a	n/a	Necessity of sacrificing loved ones	park	Text	task-narratives/Narrative6Situation5.mp3
397.397	2.986	rating_feeling	992	488	Necessity of sacrificing loved ones	park	Text	task-narratives/Narrative6Situation5.mp3
398.164	2.22	feeling_mouse_trajectory	992	488	Necessity of sacrificing loved ones	park	Text	task-narratives/Narrative6Situation5.mp3
401.421	2.768	rating_expectation	838	486	Necessity of sacrificing loved ones	park	Text	task-narratives/Narrative6Situation5.mp3
401.821	2.368	expectation_mouse_trajectory	838	486	Necessity of sacrificing loved ones	park	Text	task-narratives/Narrative6Situation5.mp3
407.474	10.817	narrative_presentation	n/a	n/a	Daring Enterprise	swamp	Text	task-narratives/Narrative6Situation6.mp3
418.291	1.895	rating_feeling	992	488	Daring Enterprise	swamp	Text	task-narratives/Narrative6Situation6.mp3
419.125	1.062	feeling_mouse_trajectory	992	488	Daring Enterprise	swamp	Text	task-narratives/Narrative6Situation6.mp3
422.311	2.044	rating_expectation	838	486	Daring Enterprise	swamp	Text	task-narratives/Narrative6Situation6.mp3
422.728	1.627	expectation_mouse_trajectory	838	486	Daring Enterprise	swamp	Text	task-narratives/Narrative6Situation6.mp3
431.367	23.282	narrative_presentation	n/a	n/a	Revolt	beach	Text	task-narratives/Narrative6Situation7.mp3
454.65	3.852	rating_feeling	992	488	Revolt	beach	Text	task-narratives/Narrative6Situation7.mp3
455.783	2.718	feeling_mouse_trajectory	992	488	Revolt	beach	Text	task-narratives/Narrative6Situation7.mp3
458.675	2.351	rating_expectation	838	486	Revolt	beach	Text	task-narratives/Narrative6Situation7.mp3
459.225	1.801	expectation_mouse_trajectory	838	486	Revolt	beach	Text	task-narratives/Narrative6Situation7.mp3
467.73	5.279	narrative_presentation	n/a	n/a	Falling prey to misfortune	city	Text	task-narratives/Narrative6Situation8.mp3
473.009	3.992	rating_feeling	992	488	Falling prey to misfortune	city	Text	task-narratives/Narrative6Situation8.mp3
474.226	2.775	feeling_mouse_trajectory	992	488	Falling prey to misfortune	city	Text	task-narratives/Narrative6Situation8.mp3
477.038	0.017	rating_expectation	838	486	Falling prey to misfortune	city	Text	task-narratives/Narrative6Situation8.mp3
477.088	-0.033	expectation_mouse_trajectory	838	486	Falling prey to misfortune	city	Text	task-narratives/Narrative6Situation8.mp3
485.121	9.31	narrative_presentation	n/a	n/a	Mistaken jealousy	beach	Text	task-narratives/Narrative6Situation9.mp3
494.431	2.134	rating_feeling	992	488	Mistaken jealousy	beach	Text	task-narratives/Narrative6Situation9.mp3
494.898	1.668	feeling_mouse_trajectory	992	488	Mistaken jealousy	beach	Text	task-narratives/Narrative6Situation9.mp3
498.456	1.768	rating_expectation	838	486	Mistaken jealousy	beach	Text	task-narratives/Narrative6Situation9.mp3
498.656	1.568	expectation_mouse_trajectory	838	486	Mistaken jealousy	beach	Text	task-narratives/Narrative6Situation9.mp3
