onset	duration	trial_type	response_x	response_y	situation	context	modality	stim_file
7.827	12.658	narrative_presentation	n/a	n/a	Enmity of kin	prison	Audio	task-narratives/Narrative5Situation1.mp3
20.485	2.952	rating_feeling	992	488	Enmity of kin	prison	Audio	n/a
21.385	2.052	feeling_mouse_trajectory	992	488	Enmity of kin	prison	Audio	n/a
24.53	1.918	rating_expectation	838	486	Enmity of kin	prison	Audio	n/a
25.214	1.235	expectation_mouse_trajectory	838	486	Enmity of kin	prison	Audio	n/a
31.718	28.116	narrative_presentation	n/a	n/a	All sacrificed for passion	prison	Audio	task-narratives/Narrative5Situation2.mp3
59.835	1.784	rating_feeling	785	533	All sacrificed for passion	prison	Audio	n/a
60.502	1.118	feeling_mouse_trajectory	785	533	All sacrificed for passion	prison	Audio	n/a
63.861	2.561	rating_expectation	810	464	All sacrificed for passion	prison	Audio	n/a
64.328	2.094	expectation_mouse_trajectory	810	464	All sacrificed for passion	prison	Audio	n/a
70.933	13.316	narrative_presentation	n/a	n/a	Discovery of dishonour of loved one	prison	Audio	task-narratives/Narrative5Situation3.mp3
84.248	2.187	rating_feeling	826	554	Discovery of dishonour of loved one	prison	Audio	n/a
84.982	1.453	feeling_mouse_trajectory	826	554	Discovery of dishonour of loved one	prison	Audio	n/a
88.289	2.002	rating_expectation	786	430	Discovery of dishonour of loved one	prison	Audio	n/a
88.623	1.669	expectation_mouse_trajectory	786	430	Discovery of dishonour of loved one	prison	Audio	n/a
93.358	20.147	narrative_presentation	n/a	n/a	Crimes of love	park	Audio	task-narratives/Narrative5Situation4.mp3
113.505	2.101	rating_feeling	764	492	Crimes of love	park	Audio	n/a
114.105	1.501	feeling_mouse_trajectory	764	492	Crimes of love	park	Audio	n/a
117.538	3.007	rating_expectation	772	498	Crimes of love	park	Audio	n/a
118.021	2.524	expectation_mouse_trajectory	772	498	Crimes of love	park	Audio	n/a
126.628	14.115	narrative_presentation	n/a	n/a	Necessity of sacrificing loved ones	park	Audio	task-narratives/Narrative5Situation5.mp3
140.743	2.634	rating_feeling	708	534	Necessity of sacrificing loved ones	park	Audio	n/a
141.209	2.168	feeling_mouse_trajectory	708	534	Necessity of sacrificing loved ones	park	Audio	n/a
144.777	3.702	rating_expectation	767	461	Necessity of sacrificing loved ones	park	Audio	n/a
144.81	3.668	expectation_mouse_trajectory	767	461	Necessity of sacrificing loved ones	park	Audio	n/a
151.879	5.484	narrative_presentation	n/a	n/a	Adultery	park	Audio	task-narratives/Narrative5Situation6.mp3
157.363	2.368	rating_feeling	1083	540	Adultery	park	Audio	n/a
158.113	1.618	feeling_mouse_trajectory	1083	540	Adultery	park	Audio	n/a
161.405	1.951	rating_expectation	1031	455	Adultery	park	Audio	n/a
161.738	1.618	expectation_mouse_trajectory	1031	455	Adultery	park	Audio	n/a
169.486	20.815	narrative_presentation	n/a	n/a	Revolt	beach	Audio	task-narratives/Narrative5Situation7.mp3
190.301	2.835	rating_feeling	929	359	Revolt	beach	Audio	n/a
190.984	2.151	feeling_mouse_trajectory	929	359	Revolt	beach	Audio	n/a
194.326	1.801	rating_expectation	848	396	Revolt	beach	Audio	n/a
194.992	1.134	expectation_mouse_trajectory	848	396	Revolt	beach	Audio	n/a
201.381	7.284	narrative_presentation	n/a	n/a	An enemy loved	beach	Audio	task-narratives/Narrative5Situation8.mp3
208.665	2.54	rating_feeling	891	493	An enemy loved	beach	Audio	n/a
209.498	1.707	feeling_mouse_trajectory	891	493	An enemy loved	beach	Audio	n/a
212.705	1.672	rating_expectation	770	446	An enemy loved	beach	Audio	n/a
212.955	1.422	expectation_mouse_trajectory	770	446	An enemy loved	beach	Audio	n/a
219.774	37.939	narrative_presentation	n/a	n/a	Mistaken jealousy	beach	Audio	task-narratives/Narrative5Situation9.mp3
257.713	2.222	rating_feeling	1062	536	Mistaken jealousy	beach	Audio	n/a
258.263	1.672	feeling_mouse_trajectory	1062	536	Mistaken jealousy	beach	Audio	n/a
261.738	1.654	rating_expectation	1263	558	Mistaken jealousy	beach	Audio	n/a
261.955	1.437	expectation_mouse_trajectory	1263	558	Mistaken jealousy	beach	Audio	n/a
267.807	25.989	narrative_presentation	n/a	n/a	Recovery of a lost one	town	Audio	task-narratives/Narrative6Situation1.mp3
293.796	2.375	rating_feeling	715	565	Recovery of a lost one	town	Audio	n/a
295.23	0.942	feeling_mouse_trajectory	715	565	Recovery of a lost one	town	Audio	n/a
297.821	1.451	rating_expectation	786	441	Recovery of a lost one	town	Audio	n/a
298.271	1.001	expectation_mouse_trajectory	786	441	Recovery of a lost one	town	Audio	n/a
304.903	27.983	narrative_presentation	n/a	n/a	The enigma	town	Audio	task-narratives/Narrative6Situation2.mp3
332.886	2.034	rating_feeling	1113	573	The enigma	town	Audio	n/a
333.402	1.518	feeling_mouse_trajectory	1113	573	The enigma	town	Audio	n/a
336.912	2.118	rating_expectation	866	445	The enigma	town	Audio	n/a
337.379	1.651	expectation_mouse_trajectory	866	445	The enigma	town	Audio	n/a
345.968	11.978	narrative_presentation	n/a	n/a	Revolt	town	Audio	task-narratives/Narrative6Situation3.mp3
357.947	2.718	rating_feeling	957	382	Revolt	town	Audio	n/a
359.213	1.451	feeling_mouse_trajectory	957	382	Revolt	town	Audio	n/a
361.972	2.935	rating_expectation	932	383	Revolt	town	Audio	n/a
362.522	2.385	expectation_mouse_trajectory	932	383	Revolt	town	Audio	n/a
368.026	11.978	narrative_presentation	n/a	n/a	Loss of loved one	swamp	Audio	task-narratives/Narrative6Situation4.mp3
380.004	1.584	rating_feeling	796	580	Loss of loved one	swamp	Audio	n/a
380.47	1.117	feeling_mouse_trajectory	796	580	Loss of loved one	swamp	Audio	n/a
384.03	1.741	rating_expectation	705	458	Loss of loved one	swamp	Audio	n/a
384.43	1.341	expectation_mouse_trajectory	705	458	Loss of loved one	swamp	Audio	n/a
390.085	7.313	narrative_presentation	n/a	n/a	An enemy loved	swamp	Audio	task-narratives/Narrative6Situation5.mp3
397.397	2.986	rating_feeling	837	561	An enemy loved	swamp	Audio	n/a
398.164	2.22	feeling_mouse_trajectory	837	561	An enemy loved	swamp	Audio	n/a
401.421	2.768	rating_expectation	802	411	An enemy loved	swamp	Audio	n/a
401.821	2.368	expectation_mouse_trajectory	802	411	An enemy loved	swamp	Audio	n/a
407.474	10.817	narrative_presentation	n/a	n/a	Daring Enterprise	swamp	Audio	task-narratives/Narrative6Situation6.mp3
418.291	1.895	rating_feeling	777	551	Daring Enterprise	swamp	Audio	n/a
419.125	1.062	feeling_mouse_trajectory	777	551	Daring Enterprise	swamp	Audio	n/a
422.311	2.044	rating_expectation	760	490	Daring Enterprise	swamp	Audio	n/a
422.728	1.627	expectation_mouse_trajectory	760	490	Daring Enterprise	swamp	Audio	n/a
431.367	23.282	narrative_presentation	n/a	n/a	Self-sacrifice for kin	city	Audio	task-narratives/Narrative6Situation7.mp3
454.65	3.852	rating_feeling	1073	538	Self-sacrifice for kin	city	Audio	n/a
455.783	2.718	feeling_mouse_trajectory	1073	538	Self-sacrifice for kin	city	Audio	n/a
458.675	2.351	rating_expectation	982	415	Self-sacrifice for kin	city	Audio	n/a
459.225	1.801	expectation_mouse_trajectory	982	415	Self-sacrifice for kin	city	Audio	n/a
467.73	5.279	narrative_presentation	n/a	n/a	Falling prey to misfortune	city	Audio	task-narratives/Narrative6Situation8.mp3
473.009	3.992	rating_feeling	912	448	Falling prey to misfortune	city	Audio	n/a
474.226	2.775	feeling_mouse_trajectory	912	448	Falling prey to misfortune	city	Audio	n/a
477.038	0.017	rating_expectation	960	707	Falling prey to misfortune	city	Audio	n/a
477.088	-0.033	expectation_mouse_trajectory	960	707	Falling prey to misfortune	city	Audio	n/a
485.121	9.31	narrative_presentation	n/a	n/a	Madness	city	Audio	task-narratives/Narrative6Situation9.mp3
494.431	2.134	rating_feeling	841	458	Madness	city	Audio	n/a
494.898	1.668	feeling_mouse_trajectory	841	458	Madness	city	Audio	n/a
498.456	1.768	rating_expectation	756	374	Madness	city	Audio	n/a
498.656	1.568	expectation_mouse_trajectory	756	374	Madness	city	Audio	n/a
