onset	duration	run_type	trial_type	trial_index	cue	stimulusintensity	rating_value	rating_glmslabel	rating_value_fillna	rating_glmslabel_fillna	rating_mouseonset	rating_mousedur	stim_file	pain_onset_ttl1	pain_onset_ttl2	pain_onset_ttl3	pain_onset_ttl4	pain_stimulus_delivery_success	cognitive_correct_response	cognitive_participant_response	cognitive_response_accuracy
10.08	1.0	pain	cue	1	high_cue	n/a	n/a	n/a	n/a	n/a	n/a	n/a	task-social/cue/runtype-pain/sch/h037.png	n/a	n/a	n/a	n/a	n/a	n/a	n/a	n/a
12.42	n/a	pain	expectrating	1	high_cue	n/a	n/a	n/a	28.93	Moderate	1.57	3.53	task-social/cue/runtype-pain/sch/h037.png	n/a	n/a	n/a	n/a	n/a	n/a	n/a	n/a
18.27	12.36	pain	stimulus	1	high_cue	med_stim	n/a	n/a	n/a	n/a	n/a	n/a	n/a	18.27	22.03	27.03	30.64	success	n/a	n/a	n/a
31.49	n/a	pain	outcomerating	1	high_cue	med_stim	n/a	n/a	26.24	Moderate	1.57	3.53	task-social/outcomerating/task-pain_scale.png	n/a	n/a	n/a	n/a	success	n/a	n/a	n/a
36.29	1.0	pain	cue	2	high_cue	n/a	n/a	n/a	n/a	n/a	n/a	n/a	task-social/cue/runtype-pain/sch/h007.png	n/a	n/a	n/a	n/a	n/a	n/a	n/a	n/a
39.19	n/a	pain	expectrating	2	high_cue	n/a	n/a	n/a	43.01	Strong	0.2	3.73	task-social/cue/runtype-pain/sch/h007.png	n/a	n/a	n/a	n/a	n/a	n/a	n/a	n/a
45.54	11.899999999999999	pain	stimulus	2	high_cue	low_stim	n/a	n/a	n/a	n/a	n/a	n/a	n/a	45.54	49.04	54.04	57.44	success	n/a	n/a	n/a
55.8	3.57	pain	outcomerating	2	high_cue	low_stim	29.5	Strong	29.5	Strong	0.2	3.73	task-social/outcomerating/task-pain_scale.png	n/a	n/a	n/a	n/a	success	n/a	n/a	n/a
68.39	1.0	pain	cue	3	low_cue	n/a	n/a	n/a	n/a	n/a	n/a	n/a	task-social/cue/runtype-pain/scl/l002.png	n/a	n/a	n/a	n/a	n/a	n/a	n/a	n/a
71.31	n/a	pain	expectrating	3	low_cue	n/a	n/a	n/a	13.05	Moderate	0.5	3.98	task-social/cue/runtype-pain/scl/l002.png	n/a	n/a	n/a	n/a	n/a	n/a	n/a	n/a
78.53	12.370000000000005	pain	stimulus	3	low_cue	med_stim	n/a	n/a	n/a	n/a	n/a	n/a	n/a	78.53	82.29	87.29	90.9	success	n/a	n/a	n/a
96.4	3.35	pain	outcomerating	3	low_cue	med_stim	25.3	Moderate	25.3	Moderate	0.5	3.98	task-social/outcomerating/task-pain_scale.png	n/a	n/a	n/a	n/a	success	n/a	n/a	n/a
103.09	1.0	pain	cue	4	high_cue	n/a	n/a	n/a	n/a	n/a	n/a	n/a	task-social/cue/runtype-pain/sch/h047.png	n/a	n/a	n/a	n/a	n/a	n/a	n/a	n/a
105.99	3.1	pain	expectrating	4	high_cue	n/a	54.64	Strong	54.64	Strong	0.57	2.53	task-social/cue/runtype-pain/sch/h047.png	n/a	n/a	n/a	n/a	n/a	n/a	n/a	n/a
113.22	12.820000000000007	pain	stimulus	4	high_cue	high_stim	n/a	n/a	n/a	n/a	n/a	n/a	n/a	113.22	117.23	122.23	126.04	success	n/a	n/a	n/a
126.99	n/a	pain	outcomerating	4	high_cue	high_stim	n/a	n/a	51.86	Strong	0.57	2.53	task-social/outcomerating/task-pain_scale.png	n/a	n/a	n/a	n/a	success	n/a	n/a	n/a
139.6	0.98	pain	cue	5	high_cue	n/a	n/a	n/a	n/a	n/a	n/a	n/a	task-social/cue/runtype-pain/sch/h050.png	n/a	n/a	n/a	n/a	n/a	n/a	n/a	n/a
141.7	3.0	pain	expectrating	5	high_cue	n/a	53.41	Strong	53.41	Strong	0.83	2.17	task-social/cue/runtype-pain/sch/h050.png	n/a	n/a	n/a	n/a	n/a	n/a	n/a	n/a
157.86	12.819999999999993	pain	stimulus	5	high_cue	high_stim	n/a	n/a	n/a	n/a	n/a	n/a	n/a	157.86	161.87	166.87	170.68	success	n/a	n/a	n/a
169.69	n/a	pain	outcomerating	5	high_cue	high_stim	n/a	n/a	47.15	Strong	0.83	2.17	task-social/outcomerating/task-pain_scale.png	n/a	n/a	n/a	n/a	success	n/a	n/a	n/a
175.7	0.98	pain	cue	6	low_cue	n/a	n/a	n/a	n/a	n/a	n/a	n/a	task-social/cue/runtype-pain/scl/l042.png	n/a	n/a	n/a	n/a	n/a	n/a	n/a	n/a
178.5	n/a	pain	expectrating	6	low_cue	n/a	n/a	n/a	2.1	Barely-detectable	0.65	3.7	task-social/cue/runtype-pain/scl/l042.png	n/a	n/a	n/a	n/a	n/a	n/a	n/a	n/a
185.71	12.819999999999993	pain	stimulus	6	low_cue	high_stim	n/a	n/a	n/a	n/a	n/a	n/a	n/a	185.71	189.72	194.72	198.53	success	n/a	n/a	n/a
195.99	n/a	pain	outcomerating	6	low_cue	high_stim	n/a	n/a	61.01	Strong	0.65	3.7	task-social/outcomerating/task-pain_scale.png	n/a	n/a	n/a	n/a	success	n/a	n/a	n/a
203.09	1.0	pain	cue	7	high_cue	n/a	n/a	n/a	n/a	n/a	n/a	n/a	task-social/cue/runtype-pain/sch/h021.png	n/a	n/a	n/a	n/a	n/a	n/a	n/a	n/a
205.39	n/a	pain	expectrating	7	high_cue	n/a	n/a	n/a	49.43	Strong	0.48	3.67	task-social/cue/runtype-pain/sch/h021.png	n/a	n/a	n/a	n/a	n/a	n/a	n/a	n/a
215.63	12.360000000000014	pain	stimulus	7	high_cue	med_stim	n/a	n/a	n/a	n/a	n/a	n/a	n/a	215.63	219.39	224.39	228.0	success	n/a	n/a	n/a
230.0	3.42	pain	outcomerating	7	high_cue	med_stim	20.53	Moderate	20.53	Moderate	0.48	3.67	task-social/outcomerating/task-pain_scale.png	n/a	n/a	n/a	n/a	success	n/a	n/a	n/a
235.78	1.0	pain	cue	8	high_cue	n/a	n/a	n/a	n/a	n/a	n/a	n/a	task-social/cue/runtype-pain/sch/h053.png	n/a	n/a	n/a	n/a	n/a	n/a	n/a	n/a
237.79	3.67	pain	expectrating	8	high_cue	n/a	52.39	Strong	52.39	Strong	0.05	3.62	task-social/cue/runtype-pain/sch/h053.png	n/a	n/a	n/a	n/a	n/a	n/a	n/a	n/a
243.31	11.900000000000006	pain	stimulus	8	high_cue	low_stim	n/a	n/a	n/a	n/a	n/a	n/a	n/a	243.31	246.81	251.81	255.21	success	n/a	n/a	n/a
256.99	n/a	pain	outcomerating	8	high_cue	low_stim	n/a	n/a	25.83	Moderate	0.05	3.62	task-social/outcomerating/task-pain_scale.png	n/a	n/a	n/a	n/a	success	n/a	n/a	n/a
262.79	1.0	pain	cue	9	low_cue	n/a	n/a	n/a	n/a	n/a	n/a	n/a	task-social/cue/runtype-pain/scl/l019.png	n/a	n/a	n/a	n/a	n/a	n/a	n/a	n/a
265.0	3.05	pain	expectrating	9	low_cue	n/a	8.58	Weak	8.58	Weak	0.52	2.53	task-social/cue/runtype-pain/scl/l019.png	n/a	n/a	n/a	n/a	n/a	n/a	n/a	n/a
270.85	12.829999999999984	pain	stimulus	9	low_cue	high_stim	n/a	n/a	n/a	n/a	n/a	n/a	n/a	270.85	274.86	279.86	283.67	success	n/a	n/a	n/a
289.79	3.24	pain	outcomerating	9	low_cue	high_stim	52.81	Strong	52.81	Strong	0.52	2.53	task-social/outcomerating/task-pain_scale.png	n/a	n/a	n/a	n/a	success	n/a	n/a	n/a
294.59	1.0	pain	cue	10	low_cue	n/a	n/a	n/a	n/a	n/a	n/a	n/a	task-social/cue/runtype-pain/scl/l052.png	n/a	n/a	n/a	n/a	n/a	n/a	n/a	n/a
297.49	3.34	pain	expectrating	10	low_cue	n/a	36.03	Strong	36.03	Strong	0.35	2.99	task-social/cue/runtype-pain/scl/l052.png	n/a	n/a	n/a	n/a	n/a	n/a	n/a	n/a
306.92	11.899999999999977	pain	stimulus	10	low_cue	low_stim	n/a	n/a	n/a	n/a	n/a	n/a	n/a	306.92	310.42	315.42	318.82	success	n/a	n/a	n/a
318.8	3.7	pain	outcomerating	10	low_cue	low_stim	17.77	Moderate	17.77	Moderate	0.35	2.99	task-social/outcomerating/task-pain_scale.png	n/a	n/a	n/a	n/a	success	n/a	n/a	n/a
332.99	1.0	pain	cue	11	low_cue	n/a	n/a	n/a	n/a	n/a	n/a	n/a	task-social/cue/runtype-pain/scl/l047.png	n/a	n/a	n/a	n/a	n/a	n/a	n/a	n/a
335.59	3.96	pain	expectrating	11	low_cue	n/a	37.51	Strong	37.51	Strong	0.48	3.47	task-social/cue/runtype-pain/scl/l047.png	n/a	n/a	n/a	n/a	n/a	n/a	n/a	n/a
351.75	11.899999999999977	pain	stimulus	11	low_cue	low_stim	n/a	n/a	n/a	n/a	n/a	n/a	n/a	351.75	355.25	360.25	363.65	success	n/a	n/a	n/a
362.0	2.62	pain	outcomerating	11	low_cue	low_stim	11.95	Moderate	11.95	Moderate	0.48	3.47	task-social/outcomerating/task-pain_scale.png	n/a	n/a	n/a	n/a	success	n/a	n/a	n/a
372.29	1.0	pain	cue	12	low_cue	n/a	n/a	n/a	n/a	n/a	n/a	n/a	task-social/cue/runtype-pain/scl/l001.png	n/a	n/a	n/a	n/a	n/a	n/a	n/a	n/a
374.29	n/a	pain	expectrating	12	low_cue	n/a	n/a	n/a	8.6	Weak	3.7	3.93	task-social/cue/runtype-pain/scl/l001.png	n/a	n/a	n/a	n/a	n/a	n/a	n/a	n/a
379.43	12.370000000000005	pain	stimulus	12	low_cue	med_stim	n/a	n/a	n/a	n/a	n/a	n/a	n/a	379.43	383.19	388.19	391.8	success	n/a	n/a	n/a
394.79	3.3	pain	outcomerating	12	low_cue	med_stim	34.47	Strong	34.47	Strong	3.7	3.93	task-social/outcomerating/task-pain_scale.png	n/a	n/a	n/a	n/a	success	n/a	n/a	n/a
