onset	duration	run_type	trial_type	trial_index	cue	stimulusintensity	rating_value	rating_glmslabel	rating_value_fillna	rating_glmslabel_fillna	rating_mouseonset	rating_mousedur	stim_file_TODO	pain_onset_ttl1	pain_onset_ttl2	pain_onset_ttl3	pain_onset_ttl4	pain_stimulus_delivery_success	cognitive_correct_response	cognitive_participant_response	cognitive_response_accuracy
5.01	0.99	vicarious	cue	1	low_cue	n/a	n/a	n/a	n/a	n/a	n/a	n/a	task-social/cue/runtype-vicarious/scl/l049.png	n/a	n/a	n/a	n/a	n/a	n/a	n/a	n/a
7.63	1.68	vicarious	expectrating	1	low_cue	n/a	46.14	Strong	46.14	Strong	0.07	1.62	task-social/cue/runtype-vicarious/scl/l049.png	n/a	n/a	n/a	n/a	n/a	n/a	n/a	n/a
18.8	5.0	vicarious	stimulus	1	low_cue	high_stim	n/a	n/a	n/a	n/a	n/a	n/a	task-social/stim/runtype-vicarious/ll042t1aiaff_H.mp4	n/a	n/a	n/a	n/a	n/a	n/a	n/a	n/a
28.82	2.22	vicarious	outcomerating	1	low_cue	high_stim	57.97	Strong	57.97	Strong	0.07	1.62	task-social/outcomerating/task-vicarious_scale.png	n/a	n/a	n/a	n/a	n/a	n/a	n/a	n/a
37.4	0.99	vicarious	cue	2	high_cue	n/a	n/a	n/a	n/a	n/a	n/a	n/a	task-social/cue/runtype-vicarious/sch/h045.png	n/a	n/a	n/a	n/a	n/a	n/a	n/a	n/a
39.7	1.95	vicarious	expectrating	2	high_cue	n/a	97.13	Very Strong	97.13	Very Strong	0.07	1.89	task-social/cue/runtype-vicarious/sch/h045.png	n/a	n/a	n/a	n/a	n/a	n/a	n/a	n/a
52.0	5.0	vicarious	stimulus	2	high_cue	med_stim	n/a	n/a	n/a	n/a	n/a	n/a	task-social/stim/runtype-vicarious/jh043t2aeunaff_M.mp4	n/a	n/a	n/a	n/a	n/a	n/a	n/a	n/a
65.51	2.97	vicarious	outcomerating	2	high_cue	med_stim	18.43	Moderate	18.43	Moderate	0.07	1.89	task-social/outcomerating/task-vicarious_scale.png	n/a	n/a	n/a	n/a	n/a	n/a	n/a	n/a
70.7	1.0	vicarious	cue	3	low_cue	n/a	n/a	n/a	n/a	n/a	n/a	n/a	task-social/cue/runtype-vicarious/scl/l034.png	n/a	n/a	n/a	n/a	n/a	n/a	n/a	n/a
73.02	2.26	vicarious	expectrating	3	low_cue	n/a	62.82	Strong	62.82	Strong	0.48	1.77	task-social/cue/runtype-vicarious/scl/l034.png	n/a	n/a	n/a	n/a	n/a	n/a	n/a	n/a
79.9	5.0	vicarious	stimulus	3	low_cue	low_stim	n/a	n/a	n/a	n/a	n/a	n/a	task-social/stim/runtype-vicarious/nm106t1aaunaff_L.mp4	n/a	n/a	n/a	n/a	n/a	n/a	n/a	n/a
88.32	1.95	vicarious	outcomerating	3	low_cue	low_stim	16.77	Moderate	16.77	Moderate	0.48	1.77	task-social/outcomerating/task-vicarious_scale.png	n/a	n/a	n/a	n/a	n/a	n/a	n/a	n/a
100.21	0.98	vicarious	cue	4	high_cue	n/a	n/a	n/a	n/a	n/a	n/a	n/a	task-social/cue/runtype-vicarious/sch/h047.png	n/a	n/a	n/a	n/a	n/a	n/a	n/a	n/a
102.81	1.77	vicarious	expectrating	4	high_cue	n/a	51.84	Strong	51.84	Strong	0.27	1.5	task-social/cue/runtype-vicarious/sch/h047.png	n/a	n/a	n/a	n/a	n/a	n/a	n/a	n/a
110.2	5.0	vicarious	stimulus	4	high_cue	low_stim	n/a	n/a	n/a	n/a	n/a	n/a	task-social/stim/runtype-vicarious/ak064t1afunaff_L.mp4	n/a	n/a	n/a	n/a	n/a	n/a	n/a	n/a
123.72	1.82	vicarious	outcomerating	4	high_cue	low_stim	10.76	Moderate	10.76	Moderate	0.27	1.5	task-social/outcomerating/task-vicarious_scale.png	n/a	n/a	n/a	n/a	n/a	n/a	n/a	n/a
132.61	0.99	vicarious	cue	5	low_cue	n/a	n/a	n/a	n/a	n/a	n/a	n/a	task-social/cue/runtype-vicarious/scl/l022.png	n/a	n/a	n/a	n/a	n/a	n/a	n/a	n/a
135.21	1.83	vicarious	expectrating	5	low_cue	n/a	77.74	Very Strong	77.74	Very Strong	0.05	1.78	task-social/cue/runtype-vicarious/scl/l022.png	n/a	n/a	n/a	n/a	n/a	n/a	n/a	n/a
147.5	5.0	vicarious	stimulus	5	low_cue	med_stim	n/a	n/a	n/a	n/a	n/a	n/a	task-social/stim/runtype-vicarious/hs107t2aaaff_M.mp4	n/a	n/a	n/a	n/a	n/a	n/a	n/a	n/a
156.41	2.33	vicarious	outcomerating	5	low_cue	med_stim	83.79	Very Strong	83.79	Very Strong	0.05	1.78	task-social/outcomerating/task-vicarious_scale.png	n/a	n/a	n/a	n/a	n/a	n/a	n/a	n/a
165.3	0.99	vicarious	cue	6	high_cue	n/a	n/a	n/a	n/a	n/a	n/a	n/a	task-social/cue/runtype-vicarious/sch/h040.png	n/a	n/a	n/a	n/a	n/a	n/a	n/a	n/a
167.62	1.81	vicarious	expectrating	6	high_cue	n/a	70.84	Very Strong	70.84	Very Strong	0.05	1.76	task-social/cue/runtype-vicarious/sch/h040.png	n/a	n/a	n/a	n/a	n/a	n/a	n/a	n/a
179.8	5.0	vicarious	stimulus	6	high_cue	high_stim	n/a	n/a	n/a	n/a	n/a	n/a	task-social/stim/runtype-vicarious/gf097t2aaunaff_H.mp4	n/a	n/a	n/a	n/a	n/a	n/a	n/a	n/a
190.63	1.58	vicarious	outcomerating	6	high_cue	high_stim	12.58	Moderate	12.58	Moderate	0.05	1.76	task-social/outcomerating/task-vicarious_scale.png	n/a	n/a	n/a	n/a	n/a	n/a	n/a	n/a
199.41	0.98	vicarious	cue	7	low_cue	n/a	n/a	n/a	n/a	n/a	n/a	n/a	task-social/cue/runtype-vicarious/scl/l007.png	n/a	n/a	n/a	n/a	n/a	n/a	n/a	n/a
201.81	1.57	vicarious	expectrating	7	low_cue	n/a	45.65	Strong	45.65	Strong	0.42	1.15	task-social/cue/runtype-vicarious/scl/l007.png	n/a	n/a	n/a	n/a	n/a	n/a	n/a	n/a
214.1	5.0	vicarious	stimulus	7	low_cue	low_stim	n/a	n/a	n/a	n/a	n/a	n/a	task-social/stim/runtype-vicarious/jh043t2aaunaff_L.mp4	n/a	n/a	n/a	n/a	n/a	n/a	n/a	n/a
231.03	2.42	vicarious	outcomerating	7	low_cue	low_stim	39.75	Strong	39.75	Strong	0.42	1.15	task-social/outcomerating/task-vicarious_scale.png	n/a	n/a	n/a	n/a	n/a	n/a	n/a	n/a
236.41	0.98	vicarious	cue	8	low_cue	n/a	n/a	n/a	n/a	n/a	n/a	n/a	task-social/cue/runtype-vicarious/scl/l001.png	n/a	n/a	n/a	n/a	n/a	n/a	n/a	n/a
239.11	1.87	vicarious	expectrating	8	low_cue	n/a	23.99	Moderate	23.99	Moderate	0.57	1.3	task-social/cue/runtype-vicarious/scl/l001.png	n/a	n/a	n/a	n/a	n/a	n/a	n/a	n/a
247.4	5.0	vicarious	stimulus	8	low_cue	high_stim	n/a	n/a	n/a	n/a	n/a	n/a	task-social/stim/runtype-vicarious/dn124t1aiaff_H.mp4	n/a	n/a	n/a	n/a	n/a	n/a	n/a	n/a
261.22	3.05	vicarious	outcomerating	8	low_cue	high_stim	42.07	Strong	42.07	Strong	0.57	1.3	task-social/outcomerating/task-vicarious_scale.png	n/a	n/a	n/a	n/a	n/a	n/a	n/a	n/a
266.51	0.99	vicarious	cue	9	high_cue	n/a	n/a	n/a	n/a	n/a	n/a	n/a	task-social/cue/runtype-vicarious/sch/h042.png	n/a	n/a	n/a	n/a	n/a	n/a	n/a	n/a
269.71	1.58	vicarious	expectrating	9	high_cue	n/a	90.23	Very Strong	90.23	Very Strong	0.78	0.8	task-social/cue/runtype-vicarious/sch/h042.png	n/a	n/a	n/a	n/a	n/a	n/a	n/a	n/a
280.2	5.0	vicarious	stimulus	9	high_cue	high_stim	n/a	n/a	n/a	n/a	n/a	n/a	task-social/stim/runtype-vicarious/ak064t1aaaff_H.mp4	n/a	n/a	n/a	n/a	n/a	n/a	n/a	n/a
290.71	2.68	vicarious	outcomerating	9	high_cue	high_stim	27.18	Moderate	27.18	Moderate	0.78	0.8	task-social/outcomerating/task-vicarious_scale.png	n/a	n/a	n/a	n/a	n/a	n/a	n/a	n/a
304.5	0.99	vicarious	cue	10	high_cue	n/a	n/a	n/a	n/a	n/a	n/a	n/a	task-social/cue/runtype-vicarious/sch/h024.png	n/a	n/a	n/a	n/a	n/a	n/a	n/a	n/a
307.4	2.44	vicarious	expectrating	10	high_cue	n/a	88.84	Very Strong	88.84	Very Strong	0.05	2.39	task-social/cue/runtype-vicarious/sch/h024.png	n/a	n/a	n/a	n/a	n/a	n/a	n/a	n/a
319.6	5.0	vicarious	stimulus	10	high_cue	med_stim	n/a	n/a	n/a	n/a	n/a	n/a	task-social/stim/runtype-vicarious/nm106t2aaunaff_M.mp4	n/a	n/a	n/a	n/a	n/a	n/a	n/a	n/a
329.71	3.19	vicarious	outcomerating	10	high_cue	med_stim	22.14	Moderate	22.14	Moderate	0.05	2.39	task-social/outcomerating/task-vicarious_scale.png	n/a	n/a	n/a	n/a	n/a	n/a	n/a	n/a
335.91	0.98	vicarious	cue	11	high_cue	n/a	n/a	n/a	n/a	n/a	n/a	n/a	task-social/cue/runtype-vicarious/sch/h046.png	n/a	n/a	n/a	n/a	n/a	n/a	n/a	n/a
338.32	2.54	vicarious	expectrating	11	high_cue	n/a	78.92	Very Strong	78.92	Very Strong	0.55	1.99	task-social/cue/runtype-vicarious/sch/h046.png	n/a	n/a	n/a	n/a	n/a	n/a	n/a	n/a
346.6	5.0	vicarious	stimulus	11	high_cue	low_stim	n/a	n/a	n/a	n/a	n/a	n/a	task-social/stim/runtype-vicarious/hs107t2aeunaff_L.mp4	n/a	n/a	n/a	n/a	n/a	n/a	n/a	n/a
358.32	1.68	vicarious	outcomerating	11	high_cue	low_stim	19.45	Moderate	19.45	Moderate	0.55	1.99	task-social/outcomerating/task-vicarious_scale.png	n/a	n/a	n/a	n/a	n/a	n/a	n/a	n/a
371.21	0.98	vicarious	cue	12	low_cue	n/a	n/a	n/a	n/a	n/a	n/a	n/a	task-social/cue/runtype-vicarious/scl/l043.png	n/a	n/a	n/a	n/a	n/a	n/a	n/a	n/a
373.11	2.07	vicarious	expectrating	12	low_cue	n/a	49.57	Strong	49.57	Strong	0.08	1.98	task-social/cue/runtype-vicarious/scl/l043.png	n/a	n/a	n/a	n/a	n/a	n/a	n/a	n/a
385.2	5.0	vicarious	stimulus	12	low_cue	med_stim	n/a	n/a	n/a	n/a	n/a	n/a	task-social/stim/runtype-vicarious/dn124t1aeunaff_M.mp4	n/a	n/a	n/a	n/a	n/a	n/a	n/a	n/a
394.92	n/a	vicarious	outcomerating	12	low_cue	med_stim	n/a	n/a	18.36	Moderate	0.08	1.98	task-social/outcomerating/task-vicarious_scale.png	n/a	n/a	n/a	n/a	n/a	n/a	n/a	n/a
