onset	duration	run_type	trial_type	trial_index	cue	stimulusintensity	rating_value	rating_glmslabel	rating_value_fillna	rating_glmslabel_fillna	rating_mouseonset	rating_mousedur	stim_file	pain_onset_ttl1	pain_onset_ttl2	pain_onset_ttl3	pain_onset_ttl4	pain_stimulus_delivery_success	cognitive_correct_response	cognitive_participant_response	cognitive_response_accuracy
3.38	1.0	pain	cue	1	low_cue	n/a	n/a	n/a	n/a	n/a	n/a	n/a	task-social/cue/runtype-pain/scl/l022.png	n/a	n/a	n/a	n/a	n/a	n/a	n/a	n/a
6.1	1.72	pain	expectrating	1	low_cue	n/a	47.77	Strong	47.77	Strong	0.6	1.12	task-social/cue/runtype-pain/scl/l022.png	n/a	n/a	n/a	n/a	n/a	n/a	n/a	n/a
16.53	12.82	pain	stimulus	1	low_cue	high_stim	n/a	n/a	n/a	n/a	n/a	n/a	n/a	16.53	20.54	25.54	29.35	success	n/a	n/a	n/a
32.59	3.1	pain	outcomerating	1	low_cue	high_stim	81.25	Very Strong	81.25	Very Strong	0.6	1.12	task-social/outcomerating/task-pain_scale.png	n/a	n/a	n/a	n/a	success	n/a	n/a	n/a
45.98	1.0	pain	cue	2	high_cue	n/a	n/a	n/a	n/a	n/a	n/a	n/a	task-social/cue/runtype-pain/sch/h047.png	n/a	n/a	n/a	n/a	n/a	n/a	n/a	n/a
49.1	2.57	pain	expectrating	2	high_cue	n/a	72.44	Very Strong	72.44	Very Strong	1.05	1.52	task-social/cue/runtype-pain/sch/h047.png	n/a	n/a	n/a	n/a	n/a	n/a	n/a	n/a
57.61	12.36	pain	stimulus	2	high_cue	med_stim	n/a	n/a	n/a	n/a	n/a	n/a	n/a	57.61	61.37	66.37	69.98	success	n/a	n/a	n/a
75.99	2.29	pain	outcomerating	2	high_cue	med_stim	61.28	Strong	61.28	Strong	1.05	1.52	task-social/outcomerating/task-pain_scale.png	n/a	n/a	n/a	n/a	success	n/a	n/a	n/a
80.69	1.0	pain	cue	3	low_cue	n/a	n/a	n/a	n/a	n/a	n/a	n/a	task-social/cue/runtype-pain/scl/l014.png	n/a	n/a	n/a	n/a	n/a	n/a	n/a	n/a
83.79	1.98	pain	expectrating	3	low_cue	n/a	52.62	Strong	52.62	Strong	0.55	1.43	task-social/cue/runtype-pain/scl/l014.png	n/a	n/a	n/a	n/a	n/a	n/a	n/a	n/a
88.3	11.909999999999997	pain	stimulus	3	low_cue	low_stim	n/a	n/a	n/a	n/a	n/a	n/a	n/a	88.3	91.8	96.8	100.2	success	n/a	n/a	n/a
97.78	2.81	pain	outcomerating	3	low_cue	low_stim	52.49	Strong	52.49	Strong	0.55	1.43	task-social/outcomerating/task-pain_scale.png	n/a	n/a	n/a	n/a	success	n/a	n/a	n/a
110.29	1.0	pain	cue	4	low_cue	n/a	n/a	n/a	n/a	n/a	n/a	n/a	task-social/cue/runtype-pain/scl/l042.png	n/a	n/a	n/a	n/a	n/a	n/a	n/a	n/a
111.79	2.32	pain	expectrating	4	low_cue	n/a	31.16	Strong	31.16	Strong	0.72	1.61	task-social/cue/runtype-pain/scl/l042.png	n/a	n/a	n/a	n/a	n/a	n/a	n/a	n/a
116.61	11.899999999999991	pain	stimulus	4	low_cue	low_stim	n/a	n/a	n/a	n/a	n/a	n/a	n/a	116.61	120.11	125.11	128.51	success	n/a	n/a	n/a
134.7	n/a	pain	outcomerating	4	low_cue	low_stim	n/a	n/a	26.87	Moderate	0.72	1.61	task-social/outcomerating/task-pain_scale.png	n/a	n/a	n/a	n/a	success	n/a	n/a	n/a
143.78	1.0	pain	cue	5	high_cue	n/a	n/a	n/a	n/a	n/a	n/a	n/a	task-social/cue/runtype-pain/sch/h031.png	n/a	n/a	n/a	n/a	n/a	n/a	n/a	n/a
146.9	1.98	pain	expectrating	5	high_cue	n/a	99.04	Strongest sensation of any kind	99.04	Strongest sensation of any kind	0.37	1.62	task-social/cue/runtype-pain/sch/h031.png	n/a	n/a	n/a	n/a	n/a	n/a	n/a	n/a
154.61	11.899999999999977	pain	stimulus	5	high_cue	low_stim	n/a	n/a	n/a	n/a	n/a	n/a	n/a	154.61	158.11	163.11	166.51	success	n/a	n/a	n/a
166.59	2.0	pain	outcomerating	5	high_cue	low_stim	57.21	Strong	57.21	Strong	0.37	1.62	task-social/outcomerating/task-pain_scale.png	n/a	n/a	n/a	n/a	success	n/a	n/a	n/a
171.29	0.98	pain	cue	6	high_cue	n/a	n/a	n/a	n/a	n/a	n/a	n/a	task-social/cue/runtype-pain/sch/h003.png	n/a	n/a	n/a	n/a	n/a	n/a	n/a	n/a
173.29	2.22	pain	expectrating	6	high_cue	n/a	94.95	Very Strong	94.95	Very Strong	0.48	1.73	task-social/cue/runtype-pain/sch/h003.png	n/a	n/a	n/a	n/a	n/a	n/a	n/a	n/a
177.81	12.359999999999985	pain	stimulus	6	high_cue	med_stim	n/a	n/a	n/a	n/a	n/a	n/a	n/a	177.81	181.57	186.57	190.18	success	n/a	n/a	n/a
189.58	2.59	pain	outcomerating	6	high_cue	med_stim	80.54	Very Strong	80.54	Very Strong	0.48	1.73	task-social/outcomerating/task-pain_scale.png	n/a	n/a	n/a	n/a	success	n/a	n/a	n/a
201.09	1.0	pain	cue	7	high_cue	n/a	n/a	n/a	n/a	n/a	n/a	n/a	task-social/cue/runtype-pain/sch/h030.png	n/a	n/a	n/a	n/a	n/a	n/a	n/a	n/a
203.09	2.09	pain	expectrating	7	high_cue	n/a	83.1	Very Strong	83.1	Very Strong	0.48	1.6	task-social/cue/runtype-pain/sch/h030.png	n/a	n/a	n/a	n/a	n/a	n/a	n/a	n/a
214.11	11.899999999999977	pain	stimulus	7	high_cue	low_stim	n/a	n/a	n/a	n/a	n/a	n/a	n/a	214.11	217.61	222.61	226.01	success	n/a	n/a	n/a
226.7	2.95	pain	outcomerating	7	high_cue	low_stim	51.66	Strong	51.66	Strong	0.48	1.6	task-social/outcomerating/task-pain_scale.png	n/a	n/a	n/a	n/a	success	n/a	n/a	n/a
234.78	1.0	pain	cue	8	low_cue	n/a	n/a	n/a	n/a	n/a	n/a	n/a	task-social/cue/runtype-pain/scl/l047.png	n/a	n/a	n/a	n/a	n/a	n/a	n/a	n/a
237.28	2.16	pain	expectrating	8	low_cue	n/a	32.83	Strong	32.83	Strong	0.35	1.81	task-social/cue/runtype-pain/scl/l047.png	n/a	n/a	n/a	n/a	n/a	n/a	n/a	n/a
249.31	12.829999999999984	pain	stimulus	8	low_cue	high_stim	n/a	n/a	n/a	n/a	n/a	n/a	n/a	249.31	253.32	258.32	262.13	success	n/a	n/a	n/a
260.39	2.8	pain	outcomerating	8	low_cue	high_stim	76.08	Very Strong	76.08	Very Strong	0.35	1.81	task-social/outcomerating/task-pain_scale.png	n/a	n/a	n/a	n/a	success	n/a	n/a	n/a
265.08	1.0	pain	cue	9	low_cue	n/a	n/a	n/a	n/a	n/a	n/a	n/a	task-social/cue/runtype-pain/scl/l051.png	n/a	n/a	n/a	n/a	n/a	n/a	n/a	n/a
268.2	2.67	pain	expectrating	9	low_cue	n/a	33.56	Strong	33.56	Strong	0.87	1.8	task-social/cue/runtype-pain/scl/l051.png	n/a	n/a	n/a	n/a	n/a	n/a	n/a	n/a
277.91	12.359999999999957	pain	stimulus	9	low_cue	med_stim	n/a	n/a	n/a	n/a	n/a	n/a	n/a	277.91	281.67	286.67	290.28	success	n/a	n/a	n/a
289.99	2.31	pain	outcomerating	9	low_cue	med_stim	65.8	Very Strong	65.8	Very Strong	0.87	1.8	task-social/outcomerating/task-pain_scale.png	n/a	n/a	n/a	n/a	success	n/a	n/a	n/a
295.49	1.0	pain	cue	10	low_cue	n/a	n/a	n/a	n/a	n/a	n/a	n/a	task-social/cue/runtype-pain/scl/l033.png	n/a	n/a	n/a	n/a	n/a	n/a	n/a	n/a
297.39	1.65	pain	expectrating	10	low_cue	n/a	31.36	Strong	31.36	Strong	0.4	1.25	task-social/cue/runtype-pain/scl/l033.png	n/a	n/a	n/a	n/a	n/a	n/a	n/a	n/a
309.1	12.359999999999957	pain	stimulus	10	low_cue	med_stim	n/a	n/a	n/a	n/a	n/a	n/a	n/a	309.1	312.86	317.86	321.47	success	n/a	n/a	n/a
321.68	3.23	pain	outcomerating	10	low_cue	med_stim	33.75	Strong	33.75	Strong	0.4	1.25	task-social/outcomerating/task-pain_scale.png	n/a	n/a	n/a	n/a	success	n/a	n/a	n/a
337.89	1.0	pain	cue	11	high_cue	n/a	n/a	n/a	n/a	n/a	n/a	n/a	task-social/cue/runtype-pain/sch/h037.png	n/a	n/a	n/a	n/a	n/a	n/a	n/a	n/a
340.59	3.19	pain	expectrating	11	high_cue	n/a	68.5	Very Strong	68.5	Very Strong	0.9	2.29	task-social/cue/runtype-pain/sch/h037.png	n/a	n/a	n/a	n/a	n/a	n/a	n/a	n/a
346.03	12.830000000000041	pain	stimulus	11	high_cue	high_stim	n/a	n/a	n/a	n/a	n/a	n/a	n/a	346.03	350.04	355.04	358.85	success	n/a	n/a	n/a
355.5	3.22	pain	outcomerating	11	high_cue	high_stim	90.0	Very Strong	90.0	Very Strong	0.9	2.29	task-social/outcomerating/task-pain_scale.png	n/a	n/a	n/a	n/a	success	n/a	n/a	n/a
362.58	1.0	pain	cue	12	high_cue	n/a	n/a	n/a	n/a	n/a	n/a	n/a	task-social/cue/runtype-pain/sch/h001.png	n/a	n/a	n/a	n/a	n/a	n/a	n/a	n/a
364.78	2.71	pain	expectrating	12	high_cue	n/a	102.8	Strongest sensation of any kind	102.8	Strongest sensation of any kind	1.1	1.61	task-social/cue/runtype-pain/sch/h001.png	n/a	n/a	n/a	n/a	n/a	n/a	n/a	n/a
376.51	12.819999999999993	pain	stimulus	12	high_cue	high_stim	n/a	n/a	n/a	n/a	n/a	n/a	n/a	376.51	380.52	385.52	389.33	success	n/a	n/a	n/a
394.59	1.67	pain	outcomerating	12	high_cue	high_stim	64.68	Very Strong	64.68	Very Strong	1.1	1.61	task-social/outcomerating/task-pain_scale.png	n/a	n/a	n/a	n/a	success	n/a	n/a	n/a
