onset	duration	run_type	trial_type	trial_index	cue	stimulusintensity	rating_value	rating_glmslabel	rating_value_fillna	rating_glmslabel_fillna	rating_mouseonset	rating_mousedur	stim_file	pain_onset_ttl1	pain_onset_ttl2	pain_onset_ttl3	pain_onset_ttl4	pain_stimulus_delivery_success	cognitive_correct_response	cognitive_participant_response	cognitive_response_accuracy
5.0	0.98	vicarious	cue	1	high_cue	n/a	n/a	n/a	n/a	n/a	n/a	n/a	task-social/cue/runtype-vicarious/sch/h048.png	n/a	n/a	n/a	n/a	n/a	n/a	n/a	n/a
7.24	3.84	vicarious	expectrating	1	high_cue	n/a	70.25	Very Strong	70.25	Very Strong	0.2	3.64	task-social/cue/runtype-vicarious/sch/h048.png	n/a	n/a	n/a	n/a	n/a	n/a	n/a	n/a
19.19	5.0	vicarious	stimulus	1	high_cue	low_stim	n/a	n/a	n/a	n/a	n/a	n/a	task-social/stim/runtype-vicarious/ak064t1afunaff_L.mp4	n/a	n/a	n/a	n/a	n/a	n/a	n/a	n/a
27.41	3.45	vicarious	outcomerating	1	high_cue	low_stim	30.68	Strong	30.68	Strong	1.35	2.1	task-social/outcomerating/task-vicarious_scale.png	n/a	n/a	n/a	n/a	n/a	n/a	n/a	n/a
39.6	0.99	vicarious	cue	2	high_cue	n/a	n/a	n/a	n/a	n/a	n/a	n/a	task-social/cue/runtype-vicarious/sch/h028.png	n/a	n/a	n/a	n/a	n/a	n/a	n/a	n/a
42.8	2.64	vicarious	expectrating	2	high_cue	n/a	45.33	Strong	45.33	Strong	0.95	1.69	task-social/cue/runtype-vicarious/sch/h028.png	n/a	n/a	n/a	n/a	n/a	n/a	n/a	n/a
50.49	5.0	vicarious	stimulus	2	high_cue	low_stim	n/a	n/a	n/a	n/a	n/a	n/a	task-social/stim/runtype-vicarious/vw121t1aeaff_L.mp4	n/a	n/a	n/a	n/a	n/a	n/a	n/a	n/a
61.82	2.77	vicarious	outcomerating	2	high_cue	low_stim	16.68	Moderate	16.68	Moderate	0.77	2.0	task-social/outcomerating/task-vicarious_scale.png	n/a	n/a	n/a	n/a	n/a	n/a	n/a	n/a
72.49	0.99	vicarious	cue	3	high_cue	n/a	n/a	n/a	n/a	n/a	n/a	n/a	task-social/cue/runtype-vicarious/sch/h016.png	n/a	n/a	n/a	n/a	n/a	n/a	n/a	n/a
74.51	2.92	vicarious	expectrating	3	high_cue	n/a	41.75	Strong	41.75	Strong	0.55	2.37	task-social/cue/runtype-vicarious/sch/h016.png	n/a	n/a	n/a	n/a	n/a	n/a	n/a	n/a
82.19	5.0	vicarious	stimulus	3	high_cue	med_stim	n/a	n/a	n/a	n/a	n/a	n/a	task-social/stim/runtype-vicarious/jh123t2aaaff_M.mp4	n/a	n/a	n/a	n/a	n/a	n/a	n/a	n/a
93.12	3.7	vicarious	outcomerating	3	high_cue	med_stim	19.16	Moderate	19.16	Moderate	0.87	2.84	task-social/outcomerating/task-vicarious_scale.png	n/a	n/a	n/a	n/a	n/a	n/a	n/a	n/a
105.31	0.98	vicarious	cue	4	low_cue	n/a	n/a	n/a	n/a	n/a	n/a	n/a	task-social/cue/runtype-vicarious/scl/l031.png	n/a	n/a	n/a	n/a	n/a	n/a	n/a	n/a
107.31	2.28	vicarious	expectrating	4	low_cue	n/a	0.93	No sensation	0.93	No sensation	0.9	1.38	task-social/cue/runtype-vicarious/scl/l031.png	n/a	n/a	n/a	n/a	n/a	n/a	n/a	n/a
114.99	5.0	vicarious	stimulus	4	low_cue	med_stim	n/a	n/a	n/a	n/a	n/a	n/a	task-social/stim/runtype-vicarious/dn124t1aeunaff_M.mp4	n/a	n/a	n/a	n/a	n/a	n/a	n/a	n/a
123.21	2.35	vicarious	outcomerating	4	low_cue	med_stim	10.39	Moderate	10.39	Moderate	0.6	1.75	task-social/outcomerating/task-vicarious_scale.png	n/a	n/a	n/a	n/a	n/a	n/a	n/a	n/a
129.4	0.99	vicarious	cue	5	high_cue	n/a	n/a	n/a	n/a	n/a	n/a	n/a	task-social/cue/runtype-vicarious/sch/h035.png	n/a	n/a	n/a	n/a	n/a	n/a	n/a	n/a
133.3	2.16	vicarious	expectrating	5	high_cue	n/a	29.66	Strong	29.66	Strong	0.55	1.61	task-social/cue/runtype-vicarious/sch/h035.png	n/a	n/a	n/a	n/a	n/a	n/a	n/a	n/a
150.89	5.0	vicarious	stimulus	5	high_cue	high_stim	n/a	n/a	n/a	n/a	n/a	n/a	task-social/stim/runtype-vicarious/ch092t2aiaff_H.mp4	n/a	n/a	n/a	n/a	n/a	n/a	n/a	n/a
163.11	n/a	vicarious	outcomerating	5	high_cue	high_stim	n/a	n/a	29.54	Strong	0.7	2.97	task-social/outcomerating/task-vicarious_scale.png	n/a	n/a	n/a	n/a	n/a	n/a	n/a	n/a
167.9	0.99	vicarious	cue	6	low_cue	n/a	n/a	n/a	n/a	n/a	n/a	n/a	task-social/cue/runtype-vicarious/scl/l001.png	n/a	n/a	n/a	n/a	n/a	n/a	n/a	n/a
171.1	1.96	vicarious	expectrating	6	low_cue	n/a	6.26	Weak	6.26	Weak	0.6	1.36	task-social/cue/runtype-vicarious/scl/l001.png	n/a	n/a	n/a	n/a	n/a	n/a	n/a	n/a
182.29	5.0	vicarious	stimulus	6	low_cue	high_stim	n/a	n/a	n/a	n/a	n/a	n/a	task-social/stim/runtype-vicarious/dn124t1aiaff_H.mp4	n/a	n/a	n/a	n/a	n/a	n/a	n/a	n/a
191.1	3.55	vicarious	outcomerating	6	low_cue	high_stim	110.61	Strongest sensation of any kind	110.61	Strongest sensation of any kind	0.93	2.62	task-social/outcomerating/task-vicarious_scale.png	n/a	n/a	n/a	n/a	n/a	n/a	n/a	n/a
200.49	0.99	vicarious	cue	7	high_cue	n/a	n/a	n/a	n/a	n/a	n/a	n/a	task-social/cue/runtype-vicarious/sch/h023.png	n/a	n/a	n/a	n/a	n/a	n/a	n/a	n/a
202.51	2.17	vicarious	expectrating	7	high_cue	n/a	64.68	Very Strong	64.68	Very Strong	0.5	1.67	task-social/cue/runtype-vicarious/sch/h023.png	n/a	n/a	n/a	n/a	n/a	n/a	n/a	n/a
214.89	5.0	vicarious	stimulus	7	high_cue	high_stim	n/a	n/a	n/a	n/a	n/a	n/a	task-social/stim/runtype-vicarious/kz120t2aaaff_H.mp4	n/a	n/a	n/a	n/a	n/a	n/a	n/a	n/a
226.7	2.79	vicarious	outcomerating	7	high_cue	high_stim	122.13	Strongest sensation of any kind	122.13	Strongest sensation of any kind	0.9	1.89	task-social/outcomerating/task-vicarious_scale.png	n/a	n/a	n/a	n/a	n/a	n/a	n/a	n/a
237.0	0.98	vicarious	cue	8	high_cue	n/a	n/a	n/a	n/a	n/a	n/a	n/a	task-social/cue/runtype-vicarious/sch/h019.png	n/a	n/a	n/a	n/a	n/a	n/a	n/a	n/a
240.21	2.95	vicarious	expectrating	8	high_cue	n/a	100.2	Strongest sensation of any kind	100.2	Strongest sensation of any kind	1.03	1.92	task-social/cue/runtype-vicarious/sch/h019.png	n/a	n/a	n/a	n/a	n/a	n/a	n/a	n/a
251.39	5.0	vicarious	stimulus	8	high_cue	med_stim	n/a	n/a	n/a	n/a	n/a	n/a	task-social/stim/runtype-vicarious/ch092t2aaaff_M.mp4	n/a	n/a	n/a	n/a	n/a	n/a	n/a	n/a
262.71	2.78	vicarious	outcomerating	8	high_cue	med_stim	26.77	Moderate	26.77	Moderate	1.3	1.48	task-social/outcomerating/task-vicarious_scale.png	n/a	n/a	n/a	n/a	n/a	n/a	n/a	n/a
268.5	0.99	vicarious	cue	9	low_cue	n/a	n/a	n/a	n/a	n/a	n/a	n/a	task-social/cue/runtype-vicarious/scl/l050.png	n/a	n/a	n/a	n/a	n/a	n/a	n/a	n/a
271.7	2.82	vicarious	expectrating	9	low_cue	n/a	11.08	Moderate	11.08	Moderate	0.45	2.37	task-social/cue/runtype-vicarious/scl/l050.png	n/a	n/a	n/a	n/a	n/a	n/a	n/a	n/a
280.69	5.0	vicarious	stimulus	9	low_cue	low_stim	n/a	n/a	n/a	n/a	n/a	n/a	task-social/stim/runtype-vicarious/ch092t2aeaff_L.mp4	n/a	n/a	n/a	n/a	n/a	n/a	n/a	n/a
288.91	1.7	vicarious	outcomerating	9	low_cue	low_stim	0.0	n/a	0.0	n/a	0.75	0.95	task-social/outcomerating/task-vicarious_scale.png	n/a	n/a	n/a	n/a	n/a	n/a	n/a	n/a
296.39	0.99	vicarious	cue	10	low_cue	n/a	n/a	n/a	n/a	n/a	n/a	n/a	task-social/cue/runtype-vicarious/scl/l033.png	n/a	n/a	n/a	n/a	n/a	n/a	n/a	n/a
298.29	3.2	vicarious	expectrating	10	low_cue	n/a	1.04	Barely detectable	1.04	Barely detectable	1.05	2.15	task-social/cue/runtype-vicarious/scl/l033.png	n/a	n/a	n/a	n/a	n/a	n/a	n/a	n/a
308.69	5.0	vicarious	stimulus	10	low_cue	high_stim	n/a	n/a	n/a	n/a	n/a	n/a	task-social/stim/runtype-vicarious/ak064t1aaaff_H.mp4	n/a	n/a	n/a	n/a	n/a	n/a	n/a	n/a
320.0	2.82	vicarious	outcomerating	10	low_cue	high_stim	151.98	Strongest sensation of any kind	151.98	Strongest sensation of any kind	1.48	1.34	task-social/outcomerating/task-vicarious_scale.png	n/a	n/a	n/a	n/a	n/a	n/a	n/a	n/a
330.69	1.0	vicarious	cue	11	low_cue	n/a	n/a	n/a	n/a	n/a	n/a	n/a	task-social/cue/runtype-vicarious/scl/l021.png	n/a	n/a	n/a	n/a	n/a	n/a	n/a	n/a
332.41	1.52	vicarious	expectrating	11	low_cue	n/a	0.0	n/a	0.0	n/a	0.48	1.03	task-social/cue/runtype-vicarious/scl/l021.png	n/a	n/a	n/a	n/a	n/a	n/a	n/a	n/a
341.99	5.0	vicarious	stimulus	11	low_cue	low_stim	n/a	n/a	n/a	n/a	n/a	n/a	task-social/stim/runtype-vicarious/jh123t1aaunaff_L.mp4	n/a	n/a	n/a	n/a	n/a	n/a	n/a	n/a
365.8	1.9	vicarious	outcomerating	11	low_cue	low_stim	2.07	Barely detectable	2.07	Barely detectable	0.82	1.09	task-social/outcomerating/task-vicarious_scale.png	n/a	n/a	n/a	n/a	n/a	n/a	n/a	n/a
372.0	0.98	vicarious	cue	12	low_cue	n/a	n/a	n/a	n/a	n/a	n/a	n/a	task-social/cue/runtype-vicarious/scl/l018.png	n/a	n/a	n/a	n/a	n/a	n/a	n/a	n/a
373.61	3.08	vicarious	expectrating	12	low_cue	n/a	2.34	Barely detectable	2.34	Barely detectable	0.73	2.35	task-social/cue/runtype-vicarious/scl/l018.png	n/a	n/a	n/a	n/a	n/a	n/a	n/a	n/a
383.19	5.0	vicarious	stimulus	12	low_cue	med_stim	n/a	n/a	n/a	n/a	n/a	n/a	task-social/stim/runtype-vicarious/kz120t2aeaff_M.mp4	n/a	n/a	n/a	n/a	n/a	n/a	n/a	n/a
395.21	1.65	vicarious	outcomerating	12	low_cue	med_stim	0.92	No sensation	0.92	No sensation	0.68	0.97	task-social/outcomerating/task-vicarious_scale.png	n/a	n/a	n/a	n/a	n/a	n/a	n/a	n/a
