onset	duration	run_type	trial_type	trial_index	cue	stimulusintensity	rating_value	rating_glmslabel	rating_value_fillna	rating_glmslabel_fillna	rating_mouseonset	rating_mousedur	stim_file	pain_onset_ttl1	pain_onset_ttl2	pain_onset_ttl3	pain_onset_ttl4	pain_stimulus_delivery_success	cognitive_correct_response	cognitive_participant_response	cognitive_response_accuracy
5.7	1.0	pain	cue	1	high_cue	n/a	n/a	n/a	n/a	n/a	n/a	n/a	task-social/cue/runtype-pain/sch/h024.png	n/a	n/a	n/a	n/a	n/a	n/a	n/a	n/a
8.32	1.8	pain	expectrating	1	high_cue	n/a	107.92	Strongest-sensation-of-any-kind	107.92	Strongest-sensation-of-any-kind	0.47	1.33	task-social/cue/runtype-pain/sch/h024.png	n/a	n/a	n/a	n/a	n/a	n/a	n/a	n/a
12.95	12.82	pain	stimulus	1	high_cue	high_stim	n/a	n/a	n/a	n/a	n/a	n/a	n/a	12.95	16.96	21.96	25.77	success	n/a	n/a	n/a
23.91	2.57	pain	outcomerating	1	high_cue	high_stim	121.2	Strongest-sensation-of-any-kind	121.2	Strongest-sensation-of-any-kind	0.47	1.33	task-social/outcomerating/task-pain_scale.png	n/a	n/a	n/a	n/a	success	n/a	n/a	n/a
28.99	1.0	pain	cue	2	low_cue	n/a	n/a	n/a	n/a	n/a	n/a	n/a	task-social/cue/runtype-pain/scl/l046.png	n/a	n/a	n/a	n/a	n/a	n/a	n/a	n/a
31.99	1.64	pain	expectrating	2	low_cue	n/a	45.0	Strong	45.0	Strong	0.42	1.22	task-social/cue/runtype-pain/scl/l046.png	n/a	n/a	n/a	n/a	n/a	n/a	n/a	n/a
41.93	12.82	pain	stimulus	2	low_cue	high_stim	n/a	n/a	n/a	n/a	n/a	n/a	n/a	41.93	45.94	50.94	54.75	success	n/a	n/a	n/a
55.2	2.08	pain	outcomerating	2	low_cue	high_stim	71.64	Very-Strong	71.64	Very-Strong	0.42	1.22	task-social/outcomerating/task-pain_scale.png	n/a	n/a	n/a	n/a	success	n/a	n/a	n/a
59.79	1.0	pain	cue	3	low_cue	n/a	n/a	n/a	n/a	n/a	n/a	n/a	task-social/cue/runtype-pain/scl/l017.png	n/a	n/a	n/a	n/a	n/a	n/a	n/a	n/a
62.21	1.72	pain	expectrating	3	low_cue	n/a	21.8	Moderate	21.8	Moderate	0.48	1.23	task-social/cue/runtype-pain/scl/l017.png	n/a	n/a	n/a	n/a	n/a	n/a	n/a	n/a
67.23	12.819999999999993	pain	stimulus	3	low_cue	high_stim	n/a	n/a	n/a	n/a	n/a	n/a	n/a	67.23	71.24	76.24	80.05	success	n/a	n/a	n/a
81.7	2.65	pain	outcomerating	3	low_cue	high_stim	67.94	Very-Strong	67.94	Very-Strong	0.48	1.23	task-social/outcomerating/task-pain_scale.png	n/a	n/a	n/a	n/a	success	n/a	n/a	n/a
94.9	1.0	pain	cue	4	high_cue	n/a	n/a	n/a	n/a	n/a	n/a	n/a	task-social/cue/runtype-pain/sch/h039.png	n/a	n/a	n/a	n/a	n/a	n/a	n/a	n/a
97.3	2.33	pain	expectrating	4	high_cue	n/a	106.7	Strongest-sensation-of-any-kind	106.7	Strongest-sensation-of-any-kind	0.72	1.62	task-social/cue/runtype-pain/sch/h039.png	n/a	n/a	n/a	n/a	n/a	n/a	n/a	n/a
102.55	12.820000000000007	pain	stimulus	4	high_cue	high_stim	n/a	n/a	n/a	n/a	n/a	n/a	n/a	102.55	106.56	111.56	115.37	success	n/a	n/a	n/a
115.39	2.25	pain	outcomerating	4	high_cue	high_stim	92.54	Very-Strong	92.54	Very-Strong	0.72	1.62	task-social/outcomerating/task-pain_scale.png	n/a	n/a	n/a	n/a	success	n/a	n/a	n/a
119.99	1.0	pain	cue	5	low_cue	n/a	n/a	n/a	n/a	n/a	n/a	n/a	task-social/cue/runtype-pain/scl/l013.png	n/a	n/a	n/a	n/a	n/a	n/a	n/a	n/a
123.0	1.75	pain	expectrating	5	low_cue	n/a	53.96	Strong	53.96	Strong	0.45	1.3	task-social/cue/runtype-pain/scl/l013.png	n/a	n/a	n/a	n/a	n/a	n/a	n/a	n/a
138.23	11.900000000000006	pain	stimulus	5	low_cue	low_stim	n/a	n/a	n/a	n/a	n/a	n/a	n/a	138.23	141.73	146.73	150.13	success	n/a	n/a	n/a
151.51	3.37	pain	outcomerating	5	low_cue	low_stim	39.27	Strong	39.27	Strong	0.45	1.3	task-social/outcomerating/task-pain_scale.png	n/a	n/a	n/a	n/a	success	n/a	n/a	n/a
162.39	1.0	pain	cue	6	high_cue	n/a	n/a	n/a	n/a	n/a	n/a	n/a	task-social/cue/runtype-pain/sch/h032.png	n/a	n/a	n/a	n/a	n/a	n/a	n/a	n/a
165.39	1.62	pain	expectrating	6	high_cue	n/a	80.09	Very-Strong	80.09	Very-Strong	0.42	1.2	task-social/cue/runtype-pain/sch/h032.png	n/a	n/a	n/a	n/a	n/a	n/a	n/a	n/a
189.11	11.909999999999997	pain	stimulus	6	high_cue	low_stim	n/a	n/a	n/a	n/a	n/a	n/a	n/a	189.11	192.61	197.61	201.01	success	n/a	n/a	n/a
207.79	2.95	pain	outcomerating	6	high_cue	low_stim	37.83	Strong	37.83	Strong	0.42	1.2	task-social/outcomerating/task-pain_scale.png	n/a	n/a	n/a	n/a	success	n/a	n/a	n/a
215.4	1.0	pain	cue	7	low_cue	n/a	n/a	n/a	n/a	n/a	n/a	n/a	task-social/cue/runtype-pain/scl/l022.png	n/a	n/a	n/a	n/a	n/a	n/a	n/a	n/a
217.6	1.97	pain	expectrating	7	low_cue	n/a	40.35	Strong	40.35	Strong	0.7	1.27	task-social/cue/runtype-pain/scl/l022.png	n/a	n/a	n/a	n/a	n/a	n/a	n/a	n/a
225.03	12.359999999999985	pain	stimulus	7	low_cue	med_stim	n/a	n/a	n/a	n/a	n/a	n/a	n/a	225.03	228.79	233.79	237.4	success	n/a	n/a	n/a
240.61	2.47	pain	outcomerating	7	low_cue	med_stim	62.79	Strong	62.79	Strong	0.7	1.27	task-social/outcomerating/task-pain_scale.png	n/a	n/a	n/a	n/a	success	n/a	n/a	n/a
251.69	1.0	pain	cue	8	high_cue	n/a	n/a	n/a	n/a	n/a	n/a	n/a	task-social/cue/runtype-pain/sch/h014.png	n/a	n/a	n/a	n/a	n/a	n/a	n/a	n/a
254.29	1.7	pain	expectrating	8	high_cue	n/a	86.32	Very-Strong	86.32	Very-Strong	0.53	1.17	task-social/cue/runtype-pain/sch/h014.png	n/a	n/a	n/a	n/a	n/a	n/a	n/a	n/a
258.94	12.370000000000005	pain	stimulus	8	high_cue	med_stim	n/a	n/a	n/a	n/a	n/a	n/a	n/a	258.94	262.7	267.7	271.31	success	n/a	n/a	n/a
270.1	2.98	pain	outcomerating	8	high_cue	med_stim	76.58	Very-Strong	76.58	Very-Strong	0.53	1.17	task-social/outcomerating/task-pain_scale.png	n/a	n/a	n/a	n/a	success	n/a	n/a	n/a
280.0	0.98	pain	cue	9	high_cue	n/a	n/a	n/a	n/a	n/a	n/a	n/a	task-social/cue/runtype-pain/sch/h001.png	n/a	n/a	n/a	n/a	n/a	n/a	n/a	n/a
281.9	1.88	pain	expectrating	9	high_cue	n/a	96.03	Very-Strong	96.03	Very-Strong	0.68	1.2	task-social/cue/runtype-pain/sch/h001.png	n/a	n/a	n/a	n/a	n/a	n/a	n/a	n/a
287.96	12.360000000000014	pain	stimulus	9	high_cue	med_stim	n/a	n/a	n/a	n/a	n/a	n/a	n/a	287.96	291.72	296.72	300.33	success	n/a	n/a	n/a
299.29	3.0	pain	outcomerating	9	high_cue	med_stim	88.14	Very-Strong	88.14	Very-Strong	0.68	1.2	task-social/outcomerating/task-pain_scale.png	n/a	n/a	n/a	n/a	success	n/a	n/a	n/a
308.4	1.0	pain	cue	10	low_cue	n/a	n/a	n/a	n/a	n/a	n/a	n/a	task-social/cue/runtype-pain/scl/l004.png	n/a	n/a	n/a	n/a	n/a	n/a	n/a	n/a
311.4	1.68	pain	expectrating	10	low_cue	n/a	31.0	Strong	31.0	Strong	0.33	1.35	task-social/cue/runtype-pain/scl/l004.png	n/a	n/a	n/a	n/a	n/a	n/a	n/a	n/a
317.02	12.370000000000005	pain	stimulus	10	low_cue	med_stim	n/a	n/a	n/a	n/a	n/a	n/a	n/a	317.02	320.78	325.78	329.39	success	n/a	n/a	n/a
331.51	2.45	pain	outcomerating	10	low_cue	med_stim	73.57	Very-Strong	73.57	Very-Strong	0.33	1.35	task-social/outcomerating/task-pain_scale.png	n/a	n/a	n/a	n/a	success	n/a	n/a	n/a
341.09	1.0	pain	cue	11	high_cue	n/a	n/a	n/a	n/a	n/a	n/a	n/a	task-social/cue/runtype-pain/sch/h011.png	n/a	n/a	n/a	n/a	n/a	n/a	n/a	n/a
342.99	2.39	pain	expectrating	11	high_cue	n/a	74.18	Very-Strong	74.18	Very-Strong	0.55	1.84	task-social/cue/runtype-pain/sch/h011.png	n/a	n/a	n/a	n/a	n/a	n/a	n/a	n/a
352.92	11.899999999999977	pain	stimulus	11	high_cue	low_stim	n/a	n/a	n/a	n/a	n/a	n/a	n/a	352.92	356.42	361.42	364.82	success	n/a	n/a	n/a
364.7	1.88	pain	outcomerating	11	high_cue	low_stim	67.17	Very-Strong	67.17	Very-Strong	0.55	1.84	task-social/outcomerating/task-pain_scale.png	n/a	n/a	n/a	n/a	success	n/a	n/a	n/a
374.29	1.0	pain	cue	12	low_cue	n/a	n/a	n/a	n/a	n/a	n/a	n/a	task-social/cue/runtype-pain/scl/l056.png	n/a	n/a	n/a	n/a	n/a	n/a	n/a	n/a
376.21	1.65	pain	expectrating	12	low_cue	n/a	53.18	Strong	53.18	Strong	0.48	1.17	task-social/cue/runtype-pain/scl/l056.png	n/a	n/a	n/a	n/a	n/a	n/a	n/a	n/a
381.05	11.899999999999977	pain	stimulus	12	low_cue	low_stim	n/a	n/a	n/a	n/a	n/a	n/a	n/a	381.05	384.55	389.55	392.95	success	n/a	n/a	n/a
395.0	3.42	pain	outcomerating	12	low_cue	low_stim	47.77	Strong	47.77	Strong	0.48	1.17	task-social/outcomerating/task-pain_scale.png	n/a	n/a	n/a	n/a	success	n/a	n/a	n/a
