onset	duration	run_type	trial_type	trial_index	cue	stimulusintensity	rating_value	rating_glmslabel	rating_value_fillna	rating_glmslabel_fillna	rating_mouseonset	rating_mousedur	stim_file	pain_onset_ttl1	pain_onset_ttl2	pain_onset_ttl3	pain_onset_ttl4	pain_stimulus_delivery_success	cognitive_correct_response	cognitive_participant_response	cognitive_response_accuracy
9.1	0.98	pain	cue	1	high_cue	n/a	n/a	n/a	n/a	n/a	n/a	n/a	task-social/cue/runtype-pain/sch/h002.png	n/a	n/a	n/a	n/a	n/a	n/a	n/a	n/a
10.7	n/a	pain	expectrating	1	high_cue	n/a	n/a	n/a	52.02	Strong	0.45	1.73	task-social/cue/runtype-pain/sch/h002.png	n/a	n/a	n/a	n/a	n/a	n/a	n/a	n/a
20.66	12.819999999999997	pain	stimulus	1	high_cue	high_stim	n/a	n/a	n/a	n/a	n/a	n/a	n/a	20.66	24.67	29.67	33.48	success	n/a	n/a	n/a
32.59	n/a	pain	outcomerating	1	high_cue	high_stim	n/a	n/a	35.86	Strong	0.45	1.73	task-social/outcomerating/task-pain_scale.png	n/a	n/a	n/a	n/a	success	n/a	n/a	n/a
45.5	1.0	pain	cue	2	low_cue	n/a	n/a	n/a	n/a	n/a	n/a	n/a	task-social/cue/runtype-pain/scl/l040.png	n/a	n/a	n/a	n/a	n/a	n/a	n/a	n/a
47.4	n/a	pain	expectrating	2	low_cue	n/a	n/a	n/a	49.4	Strong	0.88	1.55	task-social/cue/runtype-pain/scl/l040.png	n/a	n/a	n/a	n/a	n/a	n/a	n/a	n/a
58.73	11.910000000000004	pain	stimulus	2	low_cue	low_stim	n/a	n/a	n/a	n/a	n/a	n/a	n/a	58.73	62.23	67.23	70.63	success	n/a	n/a	n/a
75.49	n/a	pain	outcomerating	2	low_cue	low_stim	n/a	n/a	20.18	Moderate	0.88	1.55	task-social/outcomerating/task-pain_scale.png	n/a	n/a	n/a	n/a	success	n/a	n/a	n/a
87.2	1.0	pain	cue	3	high_cue	n/a	n/a	n/a	n/a	n/a	n/a	n/a	task-social/cue/runtype-pain/sch/h033.png	n/a	n/a	n/a	n/a	n/a	n/a	n/a	n/a
89.5	n/a	pain	expectrating	3	high_cue	n/a	n/a	n/a	51.84	Strong	0.7	2.18	task-social/cue/runtype-pain/sch/h033.png	n/a	n/a	n/a	n/a	n/a	n/a	n/a	n/a
102.53	11.900000000000006	pain	stimulus	3	high_cue	low_stim	n/a	n/a	n/a	n/a	n/a	n/a	n/a	102.53	106.03	111.03	114.43	success	n/a	n/a	n/a
118.41	n/a	pain	outcomerating	3	high_cue	low_stim	n/a	n/a	24.81	Moderate	0.7	2.18	task-social/outcomerating/task-pain_scale.png	n/a	n/a	n/a	n/a	success	n/a	n/a	n/a
129.1	1.0	pain	cue	4	high_cue	n/a	n/a	n/a	n/a	n/a	n/a	n/a	task-social/cue/runtype-pain/sch/h020.png	n/a	n/a	n/a	n/a	n/a	n/a	n/a	n/a
131.0	n/a	pain	expectrating	4	high_cue	n/a	n/a	n/a	47.77	Strong	0.53	2.58	task-social/cue/runtype-pain/sch/h020.png	n/a	n/a	n/a	n/a	n/a	n/a	n/a	n/a
136.12	12.370000000000005	pain	stimulus	4	high_cue	med_stim	n/a	n/a	n/a	n/a	n/a	n/a	n/a	136.12	139.88	144.88	148.49	success	n/a	n/a	n/a
148.6	n/a	pain	outcomerating	4	high_cue	med_stim	n/a	n/a	49.22	Strong	0.53	2.58	task-social/outcomerating/task-pain_scale.png	n/a	n/a	n/a	n/a	success	n/a	n/a	n/a
155.41	0.98	pain	cue	5	low_cue	n/a	n/a	n/a	n/a	n/a	n/a	n/a	task-social/cue/runtype-pain/scl/l032.png	n/a	n/a	n/a	n/a	n/a	n/a	n/a	n/a
158.61	n/a	pain	expectrating	5	low_cue	n/a	n/a	n/a	48.08	Strong	1.43	2.62	task-social/cue/runtype-pain/scl/l032.png	n/a	n/a	n/a	n/a	n/a	n/a	n/a	n/a
168.53	11.909999999999997	pain	stimulus	5	low_cue	low_stim	n/a	n/a	n/a	n/a	n/a	n/a	n/a	168.53	172.03	177.03	180.43	success	n/a	n/a	n/a
184.3	n/a	pain	outcomerating	5	low_cue	low_stim	n/a	n/a	10.45	Moderate	1.43	2.62	task-social/outcomerating/task-pain_scale.png	n/a	n/a	n/a	n/a	success	n/a	n/a	n/a
189.6	0.98	pain	cue	6	low_cue	n/a	n/a	n/a	n/a	n/a	n/a	n/a	task-social/cue/runtype-pain/scl/l031.png	n/a	n/a	n/a	n/a	n/a	n/a	n/a	n/a
192.3	n/a	pain	expectrating	6	low_cue	n/a	n/a	n/a	52.35	Strong	0.25	3.32	task-social/cue/runtype-pain/scl/l031.png	n/a	n/a	n/a	n/a	n/a	n/a	n/a	n/a
197.71	12.829999999999984	pain	stimulus	6	low_cue	high_stim	n/a	n/a	n/a	n/a	n/a	n/a	n/a	197.71	201.72	206.72	210.53	success	n/a	n/a	n/a
208.19	n/a	pain	outcomerating	6	low_cue	high_stim	n/a	n/a	59.12	Strong	0.25	3.32	task-social/outcomerating/task-pain_scale.png	n/a	n/a	n/a	n/a	success	n/a	n/a	n/a
214.09	1.0	pain	cue	7	low_cue	n/a	n/a	n/a	n/a	n/a	n/a	n/a	task-social/cue/runtype-pain/scl/l038.png	n/a	n/a	n/a	n/a	n/a	n/a	n/a	n/a
216.4	n/a	pain	expectrating	7	low_cue	n/a	n/a	n/a	41.21	Strong	3.25	3.93	task-social/cue/runtype-pain/scl/l038.png	n/a	n/a	n/a	n/a	n/a	n/a	n/a	n/a
222.15	12.359999999999985	pain	stimulus	7	low_cue	med_stim	n/a	n/a	n/a	n/a	n/a	n/a	n/a	222.15	225.91	230.91	234.52	success	n/a	n/a	n/a
232.7	n/a	pain	outcomerating	7	low_cue	med_stim	n/a	n/a	54.33	Strong	3.25	3.93	task-social/outcomerating/task-pain_scale.png	n/a	n/a	n/a	n/a	success	n/a	n/a	n/a
238.99	1.0	pain	cue	8	low_cue	n/a	n/a	n/a	n/a	n/a	n/a	n/a	task-social/cue/runtype-pain/scl/l044.png	n/a	n/a	n/a	n/a	n/a	n/a	n/a	n/a
241.4	n/a	pain	expectrating	8	low_cue	n/a	n/a	n/a	48.75	Strong	1.18	1.77	task-social/cue/runtype-pain/scl/l044.png	n/a	n/a	n/a	n/a	n/a	n/a	n/a	n/a
246.52	12.359999999999985	pain	stimulus	8	low_cue	med_stim	n/a	n/a	n/a	n/a	n/a	n/a	n/a	246.52	250.28	255.28	258.89	success	n/a	n/a	n/a
261.7	n/a	pain	outcomerating	8	low_cue	med_stim	n/a	n/a	53.96	Strong	1.18	1.77	task-social/outcomerating/task-pain_scale.png	n/a	n/a	n/a	n/a	success	n/a	n/a	n/a
268.0	1.0	pain	cue	9	low_cue	n/a	n/a	n/a	n/a	n/a	n/a	n/a	task-social/cue/runtype-pain/scl/l005.png	n/a	n/a	n/a	n/a	n/a	n/a	n/a	n/a
271.2	n/a	pain	expectrating	9	low_cue	n/a	n/a	n/a	50.55	Strong	0.83	2.18	task-social/cue/runtype-pain/scl/l005.png	n/a	n/a	n/a	n/a	n/a	n/a	n/a	n/a
279.76	12.819999999999993	pain	stimulus	9	low_cue	high_stim	n/a	n/a	n/a	n/a	n/a	n/a	n/a	279.76	283.77	288.77	292.58	success	n/a	n/a	n/a
294.89	n/a	pain	outcomerating	9	low_cue	high_stim	n/a	n/a	45.16	Strong	0.83	2.18	task-social/outcomerating/task-pain_scale.png	n/a	n/a	n/a	n/a	success	n/a	n/a	n/a
304.99	1.0	pain	cue	10	high_cue	n/a	n/a	n/a	n/a	n/a	n/a	n/a	task-social/cue/runtype-pain/sch/h001.png	n/a	n/a	n/a	n/a	n/a	n/a	n/a	n/a
308.1	n/a	pain	expectrating	10	high_cue	n/a	n/a	n/a	49.72	Strong	1.02	3.0	task-social/cue/runtype-pain/sch/h001.png	n/a	n/a	n/a	n/a	n/a	n/a	n/a	n/a
315.13	11.899999999999977	pain	stimulus	10	high_cue	low_stim	n/a	n/a	n/a	n/a	n/a	n/a	n/a	315.13	318.63	323.63	327.03	success	n/a	n/a	n/a
328.6	n/a	pain	outcomerating	10	high_cue	low_stim	n/a	n/a	27.29	Moderate	1.02	3.0	task-social/outcomerating/task-pain_scale.png	n/a	n/a	n/a	n/a	success	n/a	n/a	n/a
339.19	1.0	pain	cue	11	high_cue	n/a	n/a	n/a	n/a	n/a	n/a	n/a	task-social/cue/runtype-pain/sch/h035.png	n/a	n/a	n/a	n/a	n/a	n/a	n/a	n/a
341.89	n/a	pain	expectrating	11	high_cue	n/a	n/a	n/a	61.17	Strong	1.07	2.62	task-social/cue/runtype-pain/sch/h035.png	n/a	n/a	n/a	n/a	n/a	n/a	n/a	n/a
350.42	12.370000000000005	pain	stimulus	11	high_cue	med_stim	n/a	n/a	n/a	n/a	n/a	n/a	n/a	350.42	354.18	359.18	362.79	success	n/a	n/a	n/a
364.9	n/a	pain	outcomerating	11	high_cue	med_stim	n/a	n/a	49.4	Strong	1.07	2.62	task-social/outcomerating/task-pain_scale.png	n/a	n/a	n/a	n/a	success	n/a	n/a	n/a
370.09	1.0	pain	cue	12	high_cue	n/a	n/a	n/a	n/a	n/a	n/a	n/a	task-social/cue/runtype-pain/sch/h056.png	n/a	n/a	n/a	n/a	n/a	n/a	n/a	n/a
372.8	n/a	pain	expectrating	12	high_cue	n/a	n/a	n/a	55.28	Strong	0.78	1.5	task-social/cue/runtype-pain/sch/h056.png	n/a	n/a	n/a	n/a	n/a	n/a	n/a	n/a
385.52	12.819999999999993	pain	stimulus	12	high_cue	high_stim	n/a	n/a	n/a	n/a	n/a	n/a	n/a	385.52	389.53	394.53	398.34	success	n/a	n/a	n/a
394.99	n/a	pain	outcomerating	12	high_cue	high_stim	n/a	n/a	54.78	Strong	0.78	1.5	task-social/outcomerating/task-pain_scale.png	n/a	n/a	n/a	n/a	success	n/a	n/a	n/a
