onset	duration	trial_type	response_x	response_y	situation	context	modality	stim_file_TODO
11.822	22.111	narrative_presentation	n/a	n/a	An enemy loved	forest	Text	task-narratives/Narrative2Situation1.txt
33.933	2.801	rating_feeling	692	479	An enemy loved	forest	Text	n/a
34.767	1.968	feeling_mouse_trajectory	692	479	An enemy loved	forest	Text	n/a
38.017	1.467	rating_expectation	679	541	An enemy loved	forest	Text	n/a
38.067	1.417	expectation_mouse_trajectory	679	541	An enemy loved	forest	Text	n/a
44.084	36.183	narrative_presentation	n/a	n/a	Enmity of kin	forest	Text	task-narratives/Narrative2Situation2.txt
80.267	2.551	rating_feeling	700	464	Enmity of kin	forest	Text	n/a
81.333	1.485	feeling_mouse_trajectory	700	464	Enmity of kin	forest	Text	n/a
84.285	1.617	rating_expectation	673	524	Enmity of kin	forest	Text	n/a
84.685	1.217	expectation_mouse_trajectory	673	524	Enmity of kin	forest	Text	n/a
92.369	9.376	narrative_presentation	n/a	n/a	Necessity of sacrificing loved ones	forest	Text	task-narratives/Narrative2Situation3.txt
101.745	2.753	rating_feeling	702	536	Necessity of sacrificing loved ones	forest	Text	n/a
102.628	1.869	feeling_mouse_trajectory	702	536	Necessity of sacrificing loved ones	forest	Text	n/a
105.76	1.785	rating_expectation	671	519	Necessity of sacrificing loved ones	forest	Text	n/a
106.427	1.118	expectation_mouse_trajectory	671	519	Necessity of sacrificing loved ones	forest	Text	n/a
112.826	18.427	narrative_presentation	n/a	n/a	Murderous adultury	town	Text	task-narratives/Narrative2Situation4.txt
131.253	2.642	rating_feeling	612	445	Murderous adultury	town	Text	n/a
131.97	1.925	feeling_mouse_trajectory	612	445	Murderous adultury	town	Text	n/a
135.276	3.157	rating_expectation	696	553	Murderous adultury	town	Text	n/a
136.993	1.44	expectation_mouse_trajectory	696	553	Murderous adultury	town	Text	n/a
142.371	16.742	narrative_presentation	n/a	n/a	Daring Enterprise	town	Text	task-narratives/Narrative2Situation5.txt
159.113	2.418	rating_feeling	717	490	Daring Enterprise	town	Text	n/a
159.196	2.334	feeling_mouse_trajectory	717	490	Daring Enterprise	town	Text	n/a
163.13	1.984	rating_expectation	720	468	Daring Enterprise	town	Text	n/a
164.047	1.068	expectation_mouse_trajectory	720	468	Daring Enterprise	town	Text	n/a
169.197	5.688	narrative_presentation	n/a	n/a	Ambition	town	Text	task-narratives/Narrative2Situation6.txt
174.885	3.535	rating_feeling	674	552	Ambition	town	Text	n/a
175.652	2.768	feeling_mouse_trajectory	674	552	Ambition	town	Text	n/a
178.914	1.357	rating_expectation	704	567	Ambition	town	Text	n/a
179.264	1.007	expectation_mouse_trajectory	704	567	Ambition	town	Text	n/a
183.986	19.093	narrative_presentation	n/a	n/a	Mistaken jealousy	hospital	Text	task-narratives/Narrative2Situation7.txt
203.079	2.183	rating_feeling	746	519	Mistaken jealousy	hospital	Text	n/a
204.296	0.967	feeling_mouse_trajectory	746	519	Mistaken jealousy	hospital	Text	n/a
207.097	0.05	rating_expectation	960	707	Mistaken jealousy	hospital	Text	n/a
207.18	-0.033	expectation_mouse_trajectory	960	707	Mistaken jealousy	hospital	Text	n/a
214.164	18.094	narrative_presentation	n/a	n/a	Discovery of dishonour of loved one	hospital	Text	task-narratives/Narrative2Situation8.txt
232.258	2.437	rating_feeling	833	581	Discovery of dishonour of loved one	hospital	Text	n/a
233.358	1.337	feeling_mouse_trajectory	833	581	Discovery of dishonour of loved one	hospital	Text	n/a
236.277	2.269	rating_expectation	1004	472	Discovery of dishonour of loved one	hospital	Text	n/a
236.31	2.236	expectation_mouse_trajectory	1004	472	Discovery of dishonour of loved one	hospital	Text	n/a
243.342	15.409	narrative_presentation	n/a	n/a	Self-sacrifice for an ideal	hospital	Text	task-narratives/Narrative2Situation9.txt
258.75	2.372	rating_feeling	1118	528	Self-sacrifice for an ideal	hospital	Text	n/a
259.5	1.622	feeling_mouse_trajectory	1118	528	Self-sacrifice for an ideal	hospital	Text	n/a
262.777	1.643	rating_expectation	1048	570	Self-sacrifice for an ideal	hospital	Text	n/a
262.827	1.593	expectation_mouse_trajectory	1048	570	Self-sacrifice for an ideal	hospital	Text	n/a
269.868	10.393	narrative_presentation	n/a	n/a	Supplication	hospital	Text	task-narratives/Narrative1Situation1.txt
280.261	3.567	rating_feeling	950	479	Supplication	hospital	Text	n/a
281.094	2.733	feeling_mouse_trajectory	950	479	Supplication	hospital	Text	n/a
284.277	2.317	rating_expectation	949	567	Supplication	hospital	Text	n/a
285.143	1.45	expectation_mouse_trajectory	949	567	Supplication	hospital	Text	n/a
290.342	14.409	narrative_presentation	n/a	n/a	Madness	hospital	Text	task-narratives/Narrative1Situation2.txt
304.751	3.333	rating_feeling	785	508	Madness	hospital	Text	n/a
306.734	1.35	feeling_mouse_trajectory	785	508	Madness	hospital	Text	n/a
308.777	1.253	rating_expectation	696	606	Madness	hospital	Text	n/a
309.143	0.887	expectation_mouse_trajectory	696	606	Madness	hospital	Text	n/a
313.868	20.778	narrative_presentation	n/a	n/a	Murderous adultury	hospital	Text	task-narratives/Narrative1Situation3.txt
334.645	2.084	rating_feeling	795	420	Murderous adultury	hospital	Text	n/a
335.395	1.334	feeling_mouse_trajectory	795	420	Murderous adultury	hospital	Text	n/a
338.662	1.334	rating_expectation	782	590	Murderous adultury	hospital	Text	n/a
338.712	1.284	expectation_mouse_trajectory	782	590	Murderous adultury	hospital	Text	n/a
345.73	18.427	narrative_presentation	n/a	n/a	Recovery of a lost one	town	Text	task-narratives/Narrative1Situation4.txt
364.156	2.672	rating_feeling	661	474	Recovery of a lost one	town	Text	n/a
364.673	2.155	feeling_mouse_trajectory	661	474	Recovery of a lost one	town	Text	n/a
368.176	1.67	rating_expectation	696	571	Recovery of a lost one	town	Text	n/a
368.543	1.303	expectation_mouse_trajectory	696	571	Recovery of a lost one	town	Text	n/a
375.241	11.056	narrative_presentation	n/a	n/a	Slaying of kin unrecognized	town	Text	task-narratives/Narrative1Situation5.txt
386.297	2.718	rating_feeling	751	488	Slaying of kin unrecognized	town	Text	n/a
387.463	1.551	feeling_mouse_trajectory	751	488	Slaying of kin unrecognized	town	Text	n/a
390.316	1.651	rating_expectation	718	600	Slaying of kin unrecognized	town	Text	n/a
390.966	1.001	expectation_mouse_trajectory	718	600	Slaying of kin unrecognized	town	Text	n/a
395.382	25.13	narrative_presentation	n/a	n/a	An enemy loved	town	Text	task-narratives/Narrative1Situation6.txt
420.512	2.833	rating_feeling	942	495	An enemy loved	town	Text	n/a
421.345	2.0	feeling_mouse_trajectory	942	495	An enemy loved	town	Text	n/a
424.528	2.133	rating_expectation	948	479	An enemy loved	town	Text	n/a
425.144	1.517	expectation_mouse_trajectory	948	479	An enemy loved	town	Text	n/a
431.595	22.111	narrative_presentation	n/a	n/a	Fatal imprudence	prison	Text	task-narratives/Narrative1Situation7.txt
453.706	3.005	rating_feeling	744	561	Fatal imprudence	prison	Text	n/a
455.54	1.171	feeling_mouse_trajectory	744	561	Fatal imprudence	prison	Text	n/a
457.727	1.303	rating_expectation	766	640	Fatal imprudence	prison	Text	n/a
458.26	0.77	expectation_mouse_trajectory	766	640	Fatal imprudence	prison	Text	n/a
462.79	12.391	narrative_presentation	n/a	n/a	Discovery of dishonour of loved one	prison	Text	task-narratives/Narrative1Situation8.txt
475.181	2.985	rating_feeling	683	541	Discovery of dishonour of loved one	prison	Text	n/a
476.598	1.568	feeling_mouse_trajectory	683	541	Discovery of dishonour of loved one	prison	Text	n/a
479.199	0.967	rating_expectation	745	565	Discovery of dishonour of loved one	prison	Text	n/a
479.265	0.9	expectation_mouse_trajectory	745	565	Discovery of dishonour of loved one	prison	Text	n/a
491.267	29.481	narrative_presentation	n/a	n/a	Abduction	prison	Text	task-narratives/Narrative1Situation9.txt
520.748	3.902	rating_feeling	685	421	Abduction	prison	Text	n/a
520.848	3.802	feeling_mouse_trajectory	685	421	Abduction	prison	Text	n/a
524.766	2.518	rating_expectation	662	479	Abduction	prison	Text	n/a
525.066	2.218	expectation_mouse_trajectory	662	479	Abduction	prison	Text	n/a
