onset	duration	run_type	trial_type	trial_index	cue	stimulusintensity	rating_value	rating_glmslabel	rating_value_fillna	rating_glmslabel_fillna	rating_mouseonset	rating_mousedur	stim_file	pain_onset_ttl1	pain_onset_ttl2	pain_onset_ttl3	pain_onset_ttl4	pain_stimulus_delivery_success	cognitive_correct_response	cognitive_participant_response	cognitive_response_accuracy
5.69	0.99	vicarious	cue	1	high_cue	n/a	n/a	n/a	n/a	n/a	n/a	n/a	task-social/cue/runtype-vicarious/sch/h009.png	n/a	n/a	n/a	n/a	n/a	n/a	n/a	n/a
8.31	3.02	vicarious	expectrating	1	high_cue	n/a	78.69	Very Strong	78.69	Very Strong	0.85	2.17	task-social/cue/runtype-vicarious/sch/h009.png	n/a	n/a	n/a	n/a	n/a	n/a	n/a	n/a
14.88	5.0	vicarious	stimulus	1	high_cue	high_stim	n/a	n/a	n/a	n/a	n/a	n/a	task-social/stim/runtype-vicarious/ll042t1aiaff_H.mp4	n/a	n/a	n/a	n/a	n/a	n/a	n/a	n/a
23.9	3.0	vicarious	outcomerating	1	high_cue	high_stim	93.48	Very Strong	93.48	Very Strong	0.42	2.58	task-social/outcomerating/task-vicarious_scale.png	n/a	n/a	n/a	n/a	n/a	n/a	n/a	n/a
28.99	0.99	vicarious	cue	2	low_cue	n/a	n/a	n/a	n/a	n/a	n/a	n/a	task-social/cue/runtype-vicarious/scl/l054.png	n/a	n/a	n/a	n/a	n/a	n/a	n/a	n/a
32.0	n/a	vicarious	expectrating	2	low_cue	n/a	n/a	n/a	30.88	Strong	0.57	3.9	task-social/cue/runtype-vicarious/scl/l054.png	n/a	n/a	n/a	n/a	n/a	n/a	n/a	n/a
43.88	5.0	vicarious	stimulus	2	low_cue	high_stim	n/a	n/a	n/a	n/a	n/a	n/a	task-social/stim/runtype-vicarious/jk103t1aaaff_H.mp4	n/a	n/a	n/a	n/a	n/a	n/a	n/a	n/a
55.2	3.36	vicarious	outcomerating	2	low_cue	high_stim	71.57	Very Strong	71.57	Very Strong	0.5	2.86	task-social/outcomerating/task-vicarious_scale.png	n/a	n/a	n/a	n/a	n/a	n/a	n/a	n/a
59.8	0.98	vicarious	cue	3	low_cue	n/a	n/a	n/a	n/a	n/a	n/a	n/a	task-social/cue/runtype-vicarious/scl/l017.png	n/a	n/a	n/a	n/a	n/a	n/a	n/a	n/a
62.2	2.55	vicarious	expectrating	3	low_cue	n/a	1.61	Barely detectable	1.61	Barely detectable	0.6	1.95	task-social/cue/runtype-vicarious/scl/l017.png	n/a	n/a	n/a	n/a	n/a	n/a	n/a	n/a
69.18	5.0	vicarious	stimulus	3	low_cue	high_stim	n/a	n/a	n/a	n/a	n/a	n/a	task-social/stim/runtype-vicarious/jh123t1aeaff_H.mp4	n/a	n/a	n/a	n/a	n/a	n/a	n/a	n/a
81.71	n/a	vicarious	outcomerating	3	low_cue	high_stim	n/a	n/a	68.88	Very Strong	0.4	2.72	task-social/outcomerating/task-vicarious_scale.png	n/a	n/a	n/a	n/a	n/a	n/a	n/a	n/a
94.89	0.99	vicarious	cue	4	high_cue	n/a	n/a	n/a	n/a	n/a	n/a	n/a	task-social/cue/runtype-vicarious/sch/h056.png	n/a	n/a	n/a	n/a	n/a	n/a	n/a	n/a
97.3	3.54	vicarious	expectrating	4	high_cue	n/a	38.44	Strong	38.44	Strong	0.65	2.89	task-social/cue/runtype-vicarious/sch/h056.png	n/a	n/a	n/a	n/a	n/a	n/a	n/a	n/a
104.48	5.0	vicarious	stimulus	4	high_cue	high_stim	n/a	n/a	n/a	n/a	n/a	n/a	task-social/stim/runtype-vicarious/jl047t1aiaff_H.mp4	n/a	n/a	n/a	n/a	n/a	n/a	n/a	n/a
115.4	3.07	vicarious	outcomerating	4	high_cue	high_stim	63.85	Strong	63.85	Strong	0.4	2.67	task-social/outcomerating/task-vicarious_scale.png	n/a	n/a	n/a	n/a	n/a	n/a	n/a	n/a
119.99	0.99	vicarious	cue	5	low_cue	n/a	n/a	n/a	n/a	n/a	n/a	n/a	task-social/cue/runtype-vicarious/scl/l014.png	n/a	n/a	n/a	n/a	n/a	n/a	n/a	n/a
122.99	1.62	vicarious	expectrating	5	low_cue	n/a	4.38	Weak	4.38	Weak	0.47	1.15	task-social/cue/runtype-vicarious/scl/l014.png	n/a	n/a	n/a	n/a	n/a	n/a	n/a	n/a
140.18	5.0	vicarious	stimulus	5	low_cue	low_stim	n/a	n/a	n/a	n/a	n/a	n/a	task-social/stim/runtype-vicarious/nm106t1aaunaff_L.mp4	n/a	n/a	n/a	n/a	n/a	n/a	n/a	n/a
151.5	2.02	vicarious	outcomerating	5	low_cue	low_stim	23.38	Moderate	23.38	Moderate	0.47	1.55	task-social/outcomerating/task-vicarious_scale.png	n/a	n/a	n/a	n/a	n/a	n/a	n/a	n/a
162.39	0.99	vicarious	cue	6	high_cue	n/a	n/a	n/a	n/a	n/a	n/a	n/a	task-social/cue/runtype-vicarious/sch/h049.png	n/a	n/a	n/a	n/a	n/a	n/a	n/a	n/a
165.4	n/a	vicarious	expectrating	6	high_cue	n/a	n/a	n/a	63.95	Strong	0.75	3.77	task-social/cue/runtype-vicarious/sch/h049.png	n/a	n/a	n/a	n/a	n/a	n/a	n/a	n/a
191.08	5.0	vicarious	stimulus	6	high_cue	low_stim	n/a	n/a	n/a	n/a	n/a	n/a	task-social/stim/runtype-vicarious/jh123t1aaunaff_L.mp4	n/a	n/a	n/a	n/a	n/a	n/a	n/a	n/a
207.8	3.05	vicarious	outcomerating	6	high_cue	low_stim	13.25	Moderate	13.25	Moderate	0.55	2.5	task-social/outcomerating/task-vicarious_scale.png	n/a	n/a	n/a	n/a	n/a	n/a	n/a	n/a
215.39	0.99	vicarious	cue	7	low_cue	n/a	n/a	n/a	n/a	n/a	n/a	n/a	task-social/cue/runtype-vicarious/scl/l021.png	n/a	n/a	n/a	n/a	n/a	n/a	n/a	n/a
217.59	3.53	vicarious	expectrating	7	low_cue	n/a	6.21	Weak	6.21	Weak	0.42	3.12	task-social/cue/runtype-vicarious/scl/l021.png	n/a	n/a	n/a	n/a	n/a	n/a	n/a	n/a
226.98	5.0	vicarious	stimulus	7	low_cue	med_stim	n/a	n/a	n/a	n/a	n/a	n/a	task-social/stim/runtype-vicarious/nm106t2aaunaff_M.mp4	n/a	n/a	n/a	n/a	n/a	n/a	n/a	n/a
240.6	2.15	vicarious	outcomerating	7	low_cue	med_stim	4.15	Weak	4.15	Weak	0.62	1.54	task-social/outcomerating/task-vicarious_scale.png	n/a	n/a	n/a	n/a	n/a	n/a	n/a	n/a
251.69	0.99	vicarious	cue	8	high_cue	n/a	n/a	n/a	n/a	n/a	n/a	n/a	task-social/cue/runtype-vicarious/sch/h054.png	n/a	n/a	n/a	n/a	n/a	n/a	n/a	n/a
254.29	2.67	vicarious	expectrating	8	high_cue	n/a	77.2	Very Strong	77.2	Very Strong	1.02	1.65	task-social/cue/runtype-vicarious/sch/h054.png	n/a	n/a	n/a	n/a	n/a	n/a	n/a	n/a
260.88	5.0	vicarious	stimulus	8	high_cue	med_stim	n/a	n/a	n/a	n/a	n/a	n/a	task-social/stim/runtype-vicarious/jh123t2aaaff_M.mp4	n/a	n/a	n/a	n/a	n/a	n/a	n/a	n/a
270.09	3.38	vicarious	outcomerating	8	high_cue	med_stim	6.67	Weak	6.67	Weak	0.57	2.81	task-social/outcomerating/task-vicarious_scale.png	n/a	n/a	n/a	n/a	n/a	n/a	n/a	n/a
280.0	0.98	vicarious	cue	9	high_cue	n/a	n/a	n/a	n/a	n/a	n/a	n/a	task-social/cue/runtype-vicarious/sch/h043.png	n/a	n/a	n/a	n/a	n/a	n/a	n/a	n/a
281.9	1.77	vicarious	expectrating	9	high_cue	n/a	60.26	Strong	60.26	Strong	0.63	1.14	task-social/cue/runtype-vicarious/sch/h043.png	n/a	n/a	n/a	n/a	n/a	n/a	n/a	n/a
289.88	5.0	vicarious	stimulus	9	high_cue	med_stim	n/a	n/a	n/a	n/a	n/a	n/a	task-social/stim/runtype-vicarious/jl047t1aiunaff_M.mp4	n/a	n/a	n/a	n/a	n/a	n/a	n/a	n/a
299.3	3.38	vicarious	outcomerating	9	high_cue	med_stim	20.75	Moderate	20.75	Moderate	0.63	2.75	task-social/outcomerating/task-vicarious_scale.png	n/a	n/a	n/a	n/a	n/a	n/a	n/a	n/a
308.39	0.99	vicarious	cue	10	low_cue	n/a	n/a	n/a	n/a	n/a	n/a	n/a	task-social/cue/runtype-vicarious/scl/l044.png	n/a	n/a	n/a	n/a	n/a	n/a	n/a	n/a
311.39	3.76	vicarious	expectrating	10	low_cue	n/a	11.63	Moderate	11.63	Moderate	0.4	3.36	task-social/cue/runtype-vicarious/scl/l044.png	n/a	n/a	n/a	n/a	n/a	n/a	n/a	n/a
318.98	5.0	vicarious	stimulus	10	low_cue	med_stim	n/a	n/a	n/a	n/a	n/a	n/a	task-social/stim/runtype-vicarious/jk103t2aaunaff_M.mp4	n/a	n/a	n/a	n/a	n/a	n/a	n/a	n/a
331.5	n/a	vicarious	outcomerating	10	low_cue	med_stim	n/a	n/a	25.32	Moderate	0.53	3.37	task-social/outcomerating/task-vicarious_scale.png	n/a	n/a	n/a	n/a	n/a	n/a	n/a	n/a
341.09	0.99	vicarious	cue	11	high_cue	n/a	n/a	n/a	n/a	n/a	n/a	n/a	task-social/cue/runtype-vicarious/sch/h015.png	n/a	n/a	n/a	n/a	n/a	n/a	n/a	n/a
343.0	2.27	vicarious	expectrating	11	high_cue	n/a	45.16	Strong	45.16	Strong	1.05	1.22	task-social/cue/runtype-vicarious/sch/h015.png	n/a	n/a	n/a	n/a	n/a	n/a	n/a	n/a
354.88	5.0	vicarious	stimulus	11	high_cue	low_stim	n/a	n/a	n/a	n/a	n/a	n/a	task-social/stim/runtype-vicarious/jk103t1aaunaff_L.mp4	n/a	n/a	n/a	n/a	n/a	n/a	n/a	n/a
364.69	2.42	vicarious	outcomerating	11	high_cue	low_stim	44.84	Strong	44.84	Strong	0.47	1.96	task-social/outcomerating/task-vicarious_scale.png	n/a	n/a	n/a	n/a	n/a	n/a	n/a	n/a
374.3	0.98	vicarious	cue	12	low_cue	n/a	n/a	n/a	n/a	n/a	n/a	n/a	task-social/cue/runtype-vicarious/scl/l031.png	n/a	n/a	n/a	n/a	n/a	n/a	n/a	n/a
376.2	3.79	vicarious	expectrating	12	low_cue	n/a	6.93	Weak	6.93	Weak	0.87	2.92	task-social/cue/runtype-vicarious/scl/l031.png	n/a	n/a	n/a	n/a	n/a	n/a	n/a	n/a
382.98	5.0	vicarious	stimulus	12	low_cue	low_stim	n/a	n/a	n/a	n/a	n/a	n/a	task-social/stim/runtype-vicarious/bg096t2afunaff_L.mp4	n/a	n/a	n/a	n/a	n/a	n/a	n/a	n/a
395.01	3.22	vicarious	outcomerating	12	low_cue	low_stim	25.64	Moderate	25.64	Moderate	0.47	2.75	task-social/outcomerating/task-vicarious_scale.png	n/a	n/a	n/a	n/a	n/a	n/a	n/a	n/a
