onset	duration	run_type	trial_type	trial_index	cue	stimulusintensity	rating_value	rating_glmslabel	rating_value_fillna	rating_glmslabel_fillna	rating_mouseonset	rating_mousedur	stim_file	pain_onset_ttl1	pain_onset_ttl2	pain_onset_ttl3	pain_onset_ttl4	pain_stimulus_delivery_success	cognitive_correct_response	cognitive_participant_response	cognitive_response_accuracy
11.28	0.99	cognitive	cue	1	high_cue	n/a	n/a	n/a	n/a	n/a	n/a	n/a	task-social/cue/runtype-cognitive/sch/h035.png	n/a	n/a	n/a	n/a	n/a	n/a	n/a	n/a
14.2	2.8	cognitive	expectrating	1	high_cue	n/a	77.7	Very Strong	77.7	Very Strong	0.87	1.93	task-social/cue/runtype-cognitive/sch/h035.png	n/a	n/a	n/a	n/a	n/a	n/a	n/a	n/a
21.3	5.0	cognitive	stimulus	1	high_cue	high_stim	n/a	n/a	n/a	n/a	n/a	n/a	task-social/stim/runtype-cognitive/14_150.jpg	n/a	n/a	n/a	n/a	n/a	same	diff	False
32.69	1.94	cognitive	outcomerating	1	high_cue	high_stim	83.71	Very Strong	83.71	Very Strong	0.87	1.93	task-social/outcomerating/task-cognitive_scale.png	n/a	n/a	n/a	n/a	n/a	n/a	n/a	n/a
44.28	0.99	cognitive	cue	2	low_cue	n/a	n/a	n/a	n/a	n/a	n/a	n/a	task-social/cue/runtype-cognitive/scl/l047.png	n/a	n/a	n/a	n/a	n/a	n/a	n/a	n/a
47.2	1.49	cognitive	expectrating	2	low_cue	n/a	12.08	Moderate	12.08	Moderate	0.32	1.17	task-social/cue/runtype-cognitive/scl/l047.png	n/a	n/a	n/a	n/a	n/a	n/a	n/a	n/a
61.39	5.0	cognitive	stimulus	2	low_cue	high_stim	n/a	n/a	n/a	n/a	n/a	n/a	task-social/stim/runtype-cognitive/14_150_R.jpg	n/a	n/a	n/a	n/a	n/a	diff	diff	True
70.69	2.92	cognitive	outcomerating	2	low_cue	high_stim	11.85	Moderate	11.85	Moderate	0.32	1.17	task-social/outcomerating/task-cognitive_scale.png	n/a	n/a	n/a	n/a	n/a	n/a	n/a	n/a
80.68	0.99	cognitive	cue	3	high_cue	n/a	n/a	n/a	n/a	n/a	n/a	n/a	task-social/cue/runtype-cognitive/sch/h010.png	n/a	n/a	n/a	n/a	n/a	n/a	n/a	n/a
83.68	1.47	cognitive	expectrating	3	high_cue	n/a	68.33	Very Strong	68.33	Very Strong	0.25	1.22	task-social/cue/runtype-cognitive/sch/h010.png	n/a	n/a	n/a	n/a	n/a	n/a	n/a	n/a
91.98	5.0	cognitive	stimulus	3	high_cue	high_stim	n/a	n/a	n/a	n/a	n/a	n/a	task-social/stim/runtype-cognitive/35_150_R.jpg	n/a	n/a	n/a	n/a	n/a	diff	diff	True
100.59	2.23	cognitive	outcomerating	3	high_cue	high_stim	64.89	Very Strong	64.89	Very Strong	0.25	1.22	task-social/outcomerating/task-cognitive_scale.png	n/a	n/a	n/a	n/a	n/a	n/a	n/a	n/a
105.59	0.98	cognitive	cue	4	low_cue	n/a	n/a	n/a	n/a	n/a	n/a	n/a	task-social/cue/runtype-cognitive/scl/l022.png	n/a	n/a	n/a	n/a	n/a	n/a	n/a	n/a
107.39	1.52	cognitive	expectrating	4	low_cue	n/a	16.32	Moderate	16.32	Moderate	0.05	1.47	task-social/cue/runtype-cognitive/scl/l022.png	n/a	n/a	n/a	n/a	n/a	n/a	n/a	n/a
114.49	5.0	cognitive	stimulus	4	low_cue	med_stim	n/a	n/a	n/a	n/a	n/a	n/a	task-social/stim/runtype-cognitive/26_100_R.jpg	n/a	n/a	n/a	n/a	n/a	diff	n/a	False
126.08	2.09	cognitive	outcomerating	4	low_cue	med_stim	91.85	Very Strong	91.85	Very Strong	0.05	1.47	task-social/outcomerating/task-cognitive_scale.png	n/a	n/a	n/a	n/a	n/a	n/a	n/a	n/a
133.79	0.99	cognitive	cue	5	high_cue	n/a	n/a	n/a	n/a	n/a	n/a	n/a	task-social/cue/runtype-cognitive/sch/h049.png	n/a	n/a	n/a	n/a	n/a	n/a	n/a	n/a
135.59	2.2	cognitive	expectrating	5	high_cue	n/a	70.47	Very Strong	70.47	Very Strong	0.05	2.15	task-social/cue/runtype-cognitive/sch/h049.png	n/a	n/a	n/a	n/a	n/a	n/a	n/a	n/a
147.89	5.0	cognitive	stimulus	5	high_cue	low_stim	n/a	n/a	n/a	n/a	n/a	n/a	task-social/stim/runtype-cognitive/28_50.jpg	n/a	n/a	n/a	n/a	n/a	same	same	True
159.5	2.13	cognitive	outcomerating	5	high_cue	low_stim	12.96	Moderate	12.96	Moderate	0.05	2.15	task-social/outcomerating/task-cognitive_scale.png	n/a	n/a	n/a	n/a	n/a	n/a	n/a	n/a
169.49	0.99	cognitive	cue	6	high_cue	n/a	n/a	n/a	n/a	n/a	n/a	n/a	task-social/cue/runtype-cognitive/sch/h034.png	n/a	n/a	n/a	n/a	n/a	n/a	n/a	n/a
172.39	1.41	cognitive	expectrating	6	high_cue	n/a	72.29	Very Strong	72.29	Very Strong	0.3	1.11	task-social/cue/runtype-cognitive/sch/h034.png	n/a	n/a	n/a	n/a	n/a	n/a	n/a	n/a
186.89	5.0	cognitive	stimulus	6	high_cue	med_stim	n/a	n/a	n/a	n/a	n/a	n/a	task-social/stim/runtype-cognitive/22_100.jpg	n/a	n/a	n/a	n/a	n/a	same	same	True
196.68	2.35	cognitive	outcomerating	6	high_cue	med_stim	28.24	Moderate	28.24	Moderate	0.3	1.11	task-social/outcomerating/task-cognitive_scale.png	n/a	n/a	n/a	n/a	n/a	n/a	n/a	n/a
204.39	0.99	cognitive	cue	7	low_cue	n/a	n/a	n/a	n/a	n/a	n/a	n/a	task-social/cue/runtype-cognitive/scl/l030.png	n/a	n/a	n/a	n/a	n/a	n/a	n/a	n/a
207.29	1.33	cognitive	expectrating	7	low_cue	n/a	0.0	n/a	0.0	n/a	0.05	1.28	task-social/cue/runtype-cognitive/scl/l030.png	n/a	n/a	n/a	n/a	n/a	n/a	n/a	n/a
218.39	5.0	cognitive	stimulus	7	low_cue	high_stim	n/a	n/a	n/a	n/a	n/a	n/a	task-social/stim/runtype-cognitive/7_150.jpg	n/a	n/a	n/a	n/a	n/a	same	n/a	False
228.38	3.57	cognitive	outcomerating	7	low_cue	high_stim	73.96	Very Strong	73.96	Very Strong	0.05	1.28	task-social/outcomerating/task-cognitive_scale.png	n/a	n/a	n/a	n/a	n/a	n/a	n/a	n/a
234.28	0.99	cognitive	cue	8	high_cue	n/a	n/a	n/a	n/a	n/a	n/a	n/a	task-social/cue/runtype-cognitive/sch/h045.png	n/a	n/a	n/a	n/a	n/a	n/a	n/a	n/a
236.18	1.5	cognitive	expectrating	8	high_cue	n/a	62.92	Strong	62.92	Strong	0.07	1.43	task-social/cue/runtype-cognitive/sch/h045.png	n/a	n/a	n/a	n/a	n/a	n/a	n/a	n/a
244.89	5.0	cognitive	stimulus	8	high_cue	low_stim	n/a	n/a	n/a	n/a	n/a	n/a	task-social/stim/runtype-cognitive/22_50.jpg	n/a	n/a	n/a	n/a	n/a	same	same	True
255.69	1.6	cognitive	outcomerating	8	high_cue	low_stim	0.23	No sensation	0.23	No sensation	0.07	1.43	task-social/outcomerating/task-cognitive_scale.png	n/a	n/a	n/a	n/a	n/a	n/a	n/a	n/a
266.68	0.99	cognitive	cue	9	low_cue	n/a	n/a	n/a	n/a	n/a	n/a	n/a	task-social/cue/runtype-cognitive/scl/l002.png	n/a	n/a	n/a	n/a	n/a	n/a	n/a	n/a
268.5	1.77	cognitive	expectrating	9	low_cue	n/a	7.21	Weak	7.21	Weak	0.2	1.57	task-social/cue/runtype-cognitive/scl/l002.png	n/a	n/a	n/a	n/a	n/a	n/a	n/a	n/a
280.79	5.0	cognitive	stimulus	9	low_cue	low_stim	n/a	n/a	n/a	n/a	n/a	n/a	task-social/stim/runtype-cognitive/44_50.jpg	n/a	n/a	n/a	n/a	n/a	same	same	True
288.99	2.83	cognitive	outcomerating	9	low_cue	low_stim	21.63	Moderate	21.63	Moderate	0.2	1.57	task-social/outcomerating/task-cognitive_scale.png	n/a	n/a	n/a	n/a	n/a	n/a	n/a	n/a
294.78	0.99	cognitive	cue	10	high_cue	n/a	n/a	n/a	n/a	n/a	n/a	n/a	task-social/cue/runtype-cognitive/sch/h008.png	n/a	n/a	n/a	n/a	n/a	n/a	n/a	n/a
297.28	2.16	cognitive	expectrating	10	high_cue	n/a	78.97	Very Strong	78.97	Very Strong	0.42	1.74	task-social/cue/runtype-cognitive/sch/h008.png	n/a	n/a	n/a	n/a	n/a	n/a	n/a	n/a
307.89	5.0	cognitive	stimulus	10	high_cue	med_stim	n/a	n/a	n/a	n/a	n/a	n/a	task-social/stim/runtype-cognitive/7_100_R.jpg	n/a	n/a	n/a	n/a	n/a	diff	diff	True
317.19	1.67	cognitive	outcomerating	10	high_cue	med_stim	11.13	Moderate	11.13	Moderate	0.42	1.74	task-social/outcomerating/task-cognitive_scale.png	n/a	n/a	n/a	n/a	n/a	n/a	n/a	n/a
327.08	1.0	cognitive	cue	11	low_cue	n/a	n/a	n/a	n/a	n/a	n/a	n/a	task-social/cue/runtype-cognitive/scl/l027.png	n/a	n/a	n/a	n/a	n/a	n/a	n/a	n/a
330.0	1.45	cognitive	expectrating	11	low_cue	n/a	7.18	Weak	7.18	Weak	0.05	1.4	task-social/cue/runtype-cognitive/scl/l027.png	n/a	n/a	n/a	n/a	n/a	n/a	n/a	n/a
342.88	5.0	cognitive	stimulus	11	low_cue	med_stim	n/a	n/a	n/a	n/a	n/a	n/a	task-social/stim/runtype-cognitive/19_100.jpg	n/a	n/a	n/a	n/a	n/a	same	same	True
361.49	1.92	cognitive	outcomerating	11	low_cue	med_stim	6.52	Weak	6.52	Weak	0.05	1.4	task-social/outcomerating/task-cognitive_scale.png	n/a	n/a	n/a	n/a	n/a	n/a	n/a	n/a
366.48	0.99	cognitive	cue	12	low_cue	n/a	n/a	n/a	n/a	n/a	n/a	n/a	task-social/cue/runtype-cognitive/scl/l014.png	n/a	n/a	n/a	n/a	n/a	n/a	n/a	n/a
369.38	1.77	cognitive	expectrating	12	low_cue	n/a	3.24	Weak	3.24	Weak	0.05	1.72	task-social/cue/runtype-cognitive/scl/l014.png	n/a	n/a	n/a	n/a	n/a	n/a	n/a	n/a
376.18	5.0	cognitive	stimulus	12	low_cue	low_stim	n/a	n/a	n/a	n/a	n/a	n/a	task-social/stim/runtype-cognitive/28_50_R.jpg	n/a	n/a	n/a	n/a	n/a	diff	diff	True
394.79	3.42	cognitive	outcomerating	12	low_cue	low_stim	11.17	Moderate	11.17	Moderate	0.05	1.72	task-social/outcomerating/task-cognitive_scale.png	n/a	n/a	n/a	n/a	n/a	n/a	n/a	n/a
