onset	duration	trial_type	response_x	response_y	situation	context	modality	stim_file
11.838	22.112	narrative_presentation	n/a	n/a	An enemy loved	forest	Text	task-narratives/Narrative2Situation1.txt
33.951	1.801	rating_feeling	856	600	An enemy loved	forest	Text	n/a
34.701	1.051	feeling_mouse_trajectory	856	600	An enemy loved	forest	Text	n/a
38.0	2.36	rating_expectation	787	538	An enemy loved	forest	Text	n/a
38.634	1.726	expectation_mouse_trajectory	787	538	An enemy loved	forest	Text	n/a
44.067	36.183	narrative_presentation	n/a	n/a	Enmity of kin	forest	Text	task-narratives/Narrative2Situation2.txt
80.249	1.777	rating_feeling	814	499	Enmity of kin	forest	Text	n/a
81.266	0.761	feeling_mouse_trajectory	814	499	Enmity of kin	forest	Text	n/a
84.268	1.742	rating_expectation	661	378	Enmity of kin	forest	Text	n/a
84.834	1.176	expectation_mouse_trajectory	661	378	Enmity of kin	forest	Text	n/a
92.335	9.376	narrative_presentation	n/a	n/a	Necessity of sacrificing loved ones	forest	Text	task-narratives/Narrative2Situation3.txt
101.711	2.119	rating_feeling	829	534	Necessity of sacrificing loved ones	forest	Text	n/a
102.594	1.236	feeling_mouse_trajectory	829	534	Necessity of sacrificing loved ones	forest	Text	n/a
105.726	1.434	rating_expectation	780	455	Necessity of sacrificing loved ones	forest	Text	n/a
106.16	1.001	expectation_mouse_trajectory	780	455	Necessity of sacrificing loved ones	forest	Text	n/a
112.793	18.427	narrative_presentation	n/a	n/a	Murderous adultury	town	Text	task-narratives/Narrative2Situation4.txt
131.219	1.708	rating_feeling	741	470	Murderous adultury	town	Text	n/a
132.202	0.725	feeling_mouse_trajectory	741	470	Murderous adultury	town	Text	n/a
135.243	1.551	rating_expectation	646	388	Murderous adultury	town	Text	n/a
135.726	1.067	expectation_mouse_trajectory	646	388	Murderous adultury	town	Text	n/a
142.337	16.742	narrative_presentation	n/a	n/a	Daring Enterprise	town	Text	task-narratives/Narrative2Situation5.txt
159.079	1.918	rating_feeling	797	455	Daring Enterprise	town	Text	n/a
159.996	1.001	feeling_mouse_trajectory	797	455	Daring Enterprise	town	Text	n/a
163.113	1.467	rating_expectation	656	389	Daring Enterprise	town	Text	n/a
163.513	1.067	expectation_mouse_trajectory	656	389	Daring Enterprise	town	Text	n/a
169.18	5.688	narrative_presentation	n/a	n/a	Ambition	town	Text	task-narratives/Narrative2Situation6.txt
174.869	1.759	rating_feeling	654	342	Ambition	town	Text	n/a
175.685	0.942	feeling_mouse_trajectory	654	342	Ambition	town	Text	n/a
178.886	1.524	rating_expectation	665	340	Ambition	town	Text	n/a
179.319	1.09	expectation_mouse_trajectory	665	340	Ambition	town	Text	n/a
183.969	19.094	narrative_presentation	n/a	n/a	Mistaken jealousy	hospital	Text	task-narratives/Narrative2Situation7.txt
203.063	2.668	rating_feeling	1075	663	Mistaken jealousy	hospital	Text	n/a
204.013	1.718	feeling_mouse_trajectory	1075	663	Mistaken jealousy	hospital	Text	n/a
207.08	1.301	rating_expectation	1144	631	Mistaken jealousy	hospital	Text	n/a
207.13	1.251	expectation_mouse_trajectory	1144	631	Mistaken jealousy	hospital	Text	n/a
214.147	18.093	narrative_presentation	n/a	n/a	Discovery of dishonour of loved one	hospital	Text	task-narratives/Narrative2Situation8.txt
232.24	2.67	rating_feeling	1180	580	Discovery of dishonour of loved one	hospital	Text	n/a
234.057	0.854	feeling_mouse_trajectory	1180	580	Discovery of dishonour of loved one	hospital	Text	n/a
236.26	1.669	rating_expectation	1229	494	Discovery of dishonour of loved one	hospital	Text	n/a
236.893	1.036	expectation_mouse_trajectory	1229	494	Discovery of dishonour of loved one	hospital	Text	n/a
243.325	15.408	narrative_presentation	n/a	n/a	Self-sacrifice for an ideal	hospital	Text	task-narratives/Narrative2Situation9.txt
258.733	2.227	rating_feeling	1297	446	Self-sacrifice for an ideal	hospital	Text	n/a
259.116	1.844	feeling_mouse_trajectory	1297	446	Self-sacrifice for an ideal	hospital	Text	n/a
262.75	1.542	rating_expectation	1352	451	Self-sacrifice for an ideal	hospital	Text	n/a
263.25	1.042	expectation_mouse_trajectory	1352	451	Self-sacrifice for an ideal	hospital	Text	n/a
269.818	10.393	narrative_presentation	n/a	n/a	Supplication	hospital	Text	task-narratives/Narrative1Situation1.txt
280.211	1.669	rating_feeling	927	610	Supplication	hospital	Text	n/a
281.061	0.819	feeling_mouse_trajectory	927	610	Supplication	hospital	Text	n/a
284.226	2.534	rating_expectation	855	556	Supplication	hospital	Text	n/a
286.21	0.551	expectation_mouse_trajectory	855	556	Supplication	hospital	Text	n/a
290.292	14.409	narrative_presentation	n/a	n/a	Madness	hospital	Text	task-narratives/Narrative1Situation2.txt
304.701	1.46	rating_feeling	777	543	Madness	hospital	Text	n/a
305.318	0.843	feeling_mouse_trajectory	777	543	Madness	hospital	Text	n/a
308.718	1.342	rating_expectation	607	400	Madness	hospital	Text	n/a
309.084	0.975	expectation_mouse_trajectory	607	400	Madness	hospital	Text	n/a
313.801	20.778	narrative_presentation	n/a	n/a	Murderous adultury	hospital	Text	task-narratives/Narrative1Situation3.txt
334.579	1.551	rating_feeling	641	365	Murderous adultury	hospital	Text	n/a
335.229	0.901	feeling_mouse_trajectory	641	365	Murderous adultury	hospital	Text	n/a
338.595	1.451	rating_expectation	644	365	Murderous adultury	hospital	Text	n/a
339.062	0.984	expectation_mouse_trajectory	644	365	Murderous adultury	hospital	Text	n/a
345.663	18.427	narrative_presentation	n/a	n/a	Recovery of a lost one	town	Text	task-narratives/Narrative1Situation4.txt
364.089	1.421	rating_feeling	619	343	Recovery of a lost one	town	Text	n/a
364.523	0.988	feeling_mouse_trajectory	619	343	Recovery of a lost one	town	Text	n/a
368.109	1.72	rating_expectation	1200	612	Recovery of a lost one	town	Text	n/a
368.426	1.403	expectation_mouse_trajectory	1200	612	Recovery of a lost one	town	Text	n/a
375.174	11.057	narrative_presentation	n/a	n/a	Slaying of kin unrecognized	town	Text	task-narratives/Narrative1Situation5.txt
386.231	1.234	rating_feeling	1208	605	Slaying of kin unrecognized	town	Text	n/a
386.581	0.884	feeling_mouse_trajectory	1208	605	Slaying of kin unrecognized	town	Text	n/a
390.248	1.667	rating_expectation	818	579	Slaying of kin unrecognized	town	Text	n/a
390.648	1.267	expectation_mouse_trajectory	818	579	Slaying of kin unrecognized	town	Text	n/a
395.315	25.13	narrative_presentation	n/a	n/a	An enemy loved	town	Text	task-narratives/Narrative1Situation6.txt
420.444	2.935	rating_feeling	1012	469	An enemy loved	town	Text	n/a
421.328	2.051	feeling_mouse_trajectory	1012	469	An enemy loved	town	Text	n/a
424.461	0.967	rating_expectation	753	610	An enemy loved	town	Text	n/a
424.844	0.584	expectation_mouse_trajectory	753	610	An enemy loved	town	Text	n/a
431.528	22.111	narrative_presentation	n/a	n/a	Fatal imprudence	prison	Text	task-narratives/Narrative1Situation7.txt
453.639	2.105	rating_feeling	1253	608	Fatal imprudence	prison	Text	n/a
454.839	0.905	feeling_mouse_trajectory	1253	608	Fatal imprudence	prison	Text	n/a
457.66	1.903	rating_expectation	1245	515	Fatal imprudence	prison	Text	n/a
458.06	1.503	expectation_mouse_trajectory	1245	515	Fatal imprudence	prison	Text	n/a
462.723	12.391	narrative_presentation	n/a	n/a	Discovery of dishonour of loved one	prison	Text	task-narratives/Narrative1Situation8.txt
475.114	3.018	rating_feeling	798	542	Discovery of dishonour of loved one	prison	Text	n/a
476.031	2.101	feeling_mouse_trajectory	798	542	Discovery of dishonour of loved one	prison	Text	n/a
479.131	1.212	rating_expectation	800	531	Discovery of dishonour of loved one	prison	Text	n/a
479.598	0.745	expectation_mouse_trajectory	800	531	Discovery of dishonour of loved one	prison	Text	n/a
491.2	29.481	narrative_presentation	n/a	n/a	Abduction	prison	Text	task-narratives/Narrative1Situation9.txt
520.681	1.884	rating_feeling	751	468	Abduction	prison	Text	n/a
521.065	1.501	feeling_mouse_trajectory	751	468	Abduction	prison	Text	n/a
524.699	1.367	rating_expectation	678	312	Abduction	prison	Text	n/a
525.049	1.017	expectation_mouse_trajectory	678	312	Abduction	prison	Text	n/a
