onset	duration	run_type	trial_type	trial_index	cue	stimulusintensity	rating_value	rating_glmslabel	rating_value_fillna	rating_glmslabel_fillna	rating_mouseonset	rating_mousedur	stim_file_TODO	pain_onset_ttl1	pain_onset_ttl2	pain_onset_ttl3	pain_onset_ttl4	pain_stimulus_delivery_success	cognitive_correct_response	cognitive_participant_response	cognitive_response_accuracy
9.79	0.99	cognitive	cue	1	high_cue	n/a	n/a	n/a	n/a	n/a	n/a	n/a	task-social/cue/runtype-cognitive/sch/h052.png	n/a	n/a	n/a	n/a	n/a	n/a	n/a	n/a
12.51	n/a	cognitive	expectrating	1	high_cue	n/a	n/a	n/a	37.01	Strong	0.17	3.27	task-social/cue/runtype-cognitive/sch/h052.png	n/a	n/a	n/a	n/a	n/a	n/a	n/a	n/a
20.6	5.0	cognitive	stimulus	1	high_cue	med_stim	n/a	n/a	n/a	n/a	n/a	n/a	task-social/stim/runtype-cognitive/39_100_R.jpg	n/a	n/a	n/a	n/a	n/a	diff	diff	True
29.4	n/a	cognitive	outcomerating	1	high_cue	med_stim	n/a	n/a	61.24	Strong	0.17	3.27	task-social/outcomerating/task-cognitive_scale.png	n/a	n/a	n/a	n/a	n/a	n/a	n/a	n/a
34.8	0.98	cognitive	cue	2	high_cue	n/a	n/a	n/a	n/a	n/a	n/a	n/a	task-social/cue/runtype-cognitive/sch/h010.png	n/a	n/a	n/a	n/a	n/a	n/a	n/a	n/a
36.3	n/a	cognitive	expectrating	2	high_cue	n/a	n/a	n/a	61.04	Strong	0.33	1.17	task-social/cue/runtype-cognitive/sch/h010.png	n/a	n/a	n/a	n/a	n/a	n/a	n/a	n/a
44.41	5.0	cognitive	stimulus	2	high_cue	high_stim	n/a	n/a	n/a	n/a	n/a	n/a	task-social/stim/runtype-cognitive/12_150_R.jpg	n/a	n/a	n/a	n/a	n/a	diff	diff	True
52.81	n/a	cognitive	outcomerating	2	high_cue	high_stim	n/a	n/a	55.72	Strong	0.33	1.17	task-social/outcomerating/task-cognitive_scale.png	n/a	n/a	n/a	n/a	n/a	n/a	n/a	n/a
60.69	0.99	cognitive	cue	3	low_cue	n/a	n/a	n/a	n/a	n/a	n/a	n/a	task-social/cue/runtype-cognitive/scl/l055.png	n/a	n/a	n/a	n/a	n/a	n/a	n/a	n/a
62.8	1.92	cognitive	expectrating	3	low_cue	n/a	14.21	Moderate	14.21	Moderate	0.48	1.43	task-social/cue/runtype-cognitive/scl/l055.png	n/a	n/a	n/a	n/a	n/a	n/a	n/a	n/a
71.0	5.0	cognitive	stimulus	3	low_cue	high_stim	n/a	n/a	n/a	n/a	n/a	n/a	task-social/stim/runtype-cognitive/43_150.jpg	n/a	n/a	n/a	n/a	n/a	same	same	True
80.8	1.58	cognitive	outcomerating	3	low_cue	high_stim	15.79	Moderate	15.79	Moderate	0.48	1.43	task-social/outcomerating/task-cognitive_scale.png	n/a	n/a	n/a	n/a	n/a	n/a	n/a	n/a
90.09	0.99	cognitive	cue	4	high_cue	n/a	n/a	n/a	n/a	n/a	n/a	n/a	task-social/cue/runtype-cognitive/sch/h003.png	n/a	n/a	n/a	n/a	n/a	n/a	n/a	n/a
94.01	1.37	cognitive	expectrating	4	high_cue	n/a	58.95	Strong	58.95	Strong	0.05	1.32	task-social/cue/runtype-cognitive/sch/h003.png	n/a	n/a	n/a	n/a	n/a	n/a	n/a	n/a
104.19	5.0	cognitive	stimulus	4	high_cue	low_stim	n/a	n/a	n/a	n/a	n/a	n/a	task-social/stim/runtype-cognitive/8_50_R.jpg	n/a	n/a	n/a	n/a	n/a	diff	diff	True
112.6	2.27	cognitive	outcomerating	4	high_cue	low_stim	32.33	Strong	32.33	Strong	0.05	1.32	task-social/outcomerating/task-cognitive_scale.png	n/a	n/a	n/a	n/a	n/a	n/a	n/a	n/a
118.6	0.98	cognitive	cue	5	high_cue	n/a	n/a	n/a	n/a	n/a	n/a	n/a	task-social/cue/runtype-cognitive/sch/h035.png	n/a	n/a	n/a	n/a	n/a	n/a	n/a	n/a
122.5	2.65	cognitive	expectrating	5	high_cue	n/a	57.14	Strong	57.14	Strong	0.32	2.33	task-social/cue/runtype-cognitive/sch/h035.png	n/a	n/a	n/a	n/a	n/a	n/a	n/a	n/a
133.61	5.0	cognitive	stimulus	5	high_cue	med_stim	n/a	n/a	n/a	n/a	n/a	n/a	task-social/stim/runtype-cognitive/41_100_R.jpg	n/a	n/a	n/a	n/a	n/a	diff	diff	True
143.41	1.34	cognitive	outcomerating	5	high_cue	med_stim	16.32	Moderate	16.32	Moderate	0.32	2.33	task-social/outcomerating/task-cognitive_scale.png	n/a	n/a	n/a	n/a	n/a	n/a	n/a	n/a
157.6	0.99	cognitive	cue	6	low_cue	n/a	n/a	n/a	n/a	n/a	n/a	n/a	task-social/cue/runtype-cognitive/scl/l054.png	n/a	n/a	n/a	n/a	n/a	n/a	n/a	n/a
161.5	n/a	cognitive	expectrating	6	low_cue	n/a	n/a	n/a	6.9	Weak	0.38	1.42	task-social/cue/runtype-cognitive/scl/l054.png	n/a	n/a	n/a	n/a	n/a	n/a	n/a	n/a
168.4	5.0	cognitive	stimulus	6	low_cue	low_stim	n/a	n/a	n/a	n/a	n/a	n/a	task-social/stim/runtype-cognitive/4_50.jpg	n/a	n/a	n/a	n/a	n/a	same	same	True
178.31	2.44	cognitive	outcomerating	6	low_cue	low_stim	6.24	Weak	6.24	Weak	0.38	1.42	task-social/outcomerating/task-cognitive_scale.png	n/a	n/a	n/a	n/a	n/a	n/a	n/a	n/a
184.89	0.99	cognitive	cue	7	low_cue	n/a	n/a	n/a	n/a	n/a	n/a	n/a	task-social/cue/runtype-cognitive/scl/l020.png	n/a	n/a	n/a	n/a	n/a	n/a	n/a	n/a
186.41	1.39	cognitive	expectrating	7	low_cue	n/a	14.15	Moderate	14.15	Moderate	0.17	1.22	task-social/cue/runtype-cognitive/scl/l020.png	n/a	n/a	n/a	n/a	n/a	n/a	n/a	n/a
200.3	5.0	cognitive	stimulus	7	low_cue	med_stim	n/a	n/a	n/a	n/a	n/a	n/a	task-social/stim/runtype-cognitive/4_100.jpg	n/a	n/a	n/a	n/a	n/a	same	same	True
219.1	n/a	cognitive	outcomerating	7	low_cue	med_stim	n/a	n/a	34.71	Strong	0.17	1.22	task-social/outcomerating/task-cognitive_scale.png	n/a	n/a	n/a	n/a	n/a	n/a	n/a	n/a
225.09	0.99	cognitive	cue	8	low_cue	n/a	n/a	n/a	n/a	n/a	n/a	n/a	task-social/cue/runtype-cognitive/scl/l044.png	n/a	n/a	n/a	n/a	n/a	n/a	n/a	n/a
227.21	n/a	cognitive	expectrating	8	low_cue	n/a	n/a	n/a	24.79	Moderate	0.53	2.25	task-social/cue/runtype-cognitive/scl/l044.png	n/a	n/a	n/a	n/a	n/a	n/a	n/a	n/a
240.09	5.0	cognitive	stimulus	8	low_cue	med_stim	n/a	n/a	n/a	n/a	n/a	n/a	task-social/stim/runtype-cognitive/43_100.jpg	n/a	n/a	n/a	n/a	n/a	same	same	True
250.0	n/a	cognitive	outcomerating	8	low_cue	med_stim	n/a	n/a	20.48	Moderate	0.53	2.25	task-social/outcomerating/task-cognitive_scale.png	n/a	n/a	n/a	n/a	n/a	n/a	n/a	n/a
256.0	0.98	cognitive	cue	9	high_cue	n/a	n/a	n/a	n/a	n/a	n/a	n/a	task-social/cue/runtype-cognitive/sch/h018.png	n/a	n/a	n/a	n/a	n/a	n/a	n/a	n/a
258.7	n/a	cognitive	expectrating	9	high_cue	n/a	n/a	n/a	66.01	Very Strong	0.07	2.02	task-social/cue/runtype-cognitive/sch/h018.png	n/a	n/a	n/a	n/a	n/a	n/a	n/a	n/a
271.59	5.0	cognitive	stimulus	9	high_cue	high_stim	n/a	n/a	n/a	n/a	n/a	n/a	task-social/stim/runtype-cognitive/31_150.jpg	n/a	n/a	n/a	n/a	n/a	same	same	True
283.21	1.95	cognitive	outcomerating	9	high_cue	high_stim	39.54	Strong	39.54	Strong	0.07	2.02	task-social/outcomerating/task-cognitive_scale.png	n/a	n/a	n/a	n/a	n/a	n/a	n/a	n/a
291.6	0.99	cognitive	cue	10	low_cue	n/a	n/a	n/a	n/a	n/a	n/a	n/a	task-social/cue/runtype-cognitive/scl/l023.png	n/a	n/a	n/a	n/a	n/a	n/a	n/a	n/a
293.8	3.27	cognitive	expectrating	10	low_cue	n/a	11.96	Moderate	11.96	Moderate	0.8	2.47	task-social/cue/runtype-cognitive/scl/l023.png	n/a	n/a	n/a	n/a	n/a	n/a	n/a	n/a
304.9	5.0	cognitive	stimulus	10	low_cue	low_stim	n/a	n/a	n/a	n/a	n/a	n/a	task-social/stim/runtype-cognitive/31_50_R.jpg	n/a	n/a	n/a	n/a	n/a	diff	diff	True
319.89	2.65	cognitive	outcomerating	10	low_cue	low_stim	9.58	Weak	9.58	Weak	0.8	2.47	task-social/outcomerating/task-cognitive_scale.png	n/a	n/a	n/a	n/a	n/a	n/a	n/a	n/a
336.6	0.99	cognitive	cue	11	high_cue	n/a	n/a	n/a	n/a	n/a	n/a	n/a	task-social/cue/runtype-cognitive/sch/h050.png	n/a	n/a	n/a	n/a	n/a	n/a	n/a	n/a
338.3	3.1	cognitive	expectrating	11	high_cue	n/a	55.1	Strong	55.1	Strong	0.38	2.72	task-social/cue/runtype-cognitive/sch/h050.png	n/a	n/a	n/a	n/a	n/a	n/a	n/a	n/a
350.4	5.0	cognitive	stimulus	11	high_cue	low_stim	n/a	n/a	n/a	n/a	n/a	n/a	task-social/stim/runtype-cognitive/41_50_R.jpg	n/a	n/a	n/a	n/a	n/a	diff	diff	True
363.49	1.95	cognitive	outcomerating	11	high_cue	low_stim	23.77	Moderate	23.77	Moderate	0.38	2.72	task-social/outcomerating/task-cognitive_scale.png	n/a	n/a	n/a	n/a	n/a	n/a	n/a	n/a
367.99	0.99	cognitive	cue	12	low_cue	n/a	n/a	n/a	n/a	n/a	n/a	n/a	task-social/cue/runtype-cognitive/scl/l013.png	n/a	n/a	n/a	n/a	n/a	n/a	n/a	n/a
369.79	3.25	cognitive	expectrating	12	low_cue	n/a	11.31	Moderate	11.31	Moderate	0.3	2.95	task-social/cue/runtype-cognitive/scl/l013.png	n/a	n/a	n/a	n/a	n/a	n/a	n/a	n/a
380.3	5.0	cognitive	stimulus	12	low_cue	high_stim	n/a	n/a	n/a	n/a	n/a	n/a	task-social/stim/runtype-cognitive/4_150.jpg	n/a	n/a	n/a	n/a	n/a	same	same	True
394.8	3.24	cognitive	outcomerating	12	low_cue	high_stim	8.55	Weak	8.55	Weak	0.3	2.95	task-social/outcomerating/task-cognitive_scale.png	n/a	n/a	n/a	n/a	n/a	n/a	n/a	n/a
