onset	duration	subtask_type	event_type	value	response_accuracy	stim_file	participant_response	reaction_time
7.961	1.034	memory	dummy	study_dummy	n/a	task-memory/obj006apple.png	n/a	n/a
10.029	1.017	memory	dummy	study_dummy	n/a	task-memory/obj035box.png	n/a	n/a
12.079	1.017	memory	dummy	study_dummy	n/a	task-memory/obj138helmet.png	n/a	n/a
14.114	1.017	memory	study	study	n/a	task-memory/obj068cork.png	n/a	n/a
16.164	1.017	memory	study	study	n/a	task-memory/obj061church.png	n/a	n/a
18.198	1.017	memory	study	study	n/a	task-memory/obj064clock.png	n/a	n/a
20.233	1.017	memory	study	study	n/a	task-memory/obj341window.png	n/a	n/a
22.267	1.017	memory	study	study	n/a	task-memory/obj151puzzle.png	n/a	n/a
24.301	1.017	memory	study	study	n/a	task-memory/obj018barrel.png	n/a	n/a
26.335	1.017	memory	study	study	n/a	task-memory/obj272skunk.png	n/a	n/a
28.369	1.017	memory	study	study	n/a	task-memory/obj144hose.png	n/a	n/a
30.403	1.017	memory	study	study	n/a	task-memory/obj088drawer.png	n/a	n/a
32.437	1.017	memory	study	study	n/a	task-memory/obj233pyramid.png	n/a	n/a
34.471	1.017	memory	study	study	n/a	task-memory/obj183mirror.png	n/a	n/a
36.505	1.017	memory	study	study	n/a	task-memory/obj205pan.png	n/a	n/a
38.539	1.017	memory	study	study	n/a	task-memory/obj317turtle.png	n/a	n/a
40.573	1.017	memory	study	study	n/a	task-memory/obj093egg.png	n/a	n/a
42.608	1.034	memory	study	study	n/a	task-memory/obj309top.png	n/a	n/a
44.658	1.017	memory	study	study	n/a	task-memory/obj275slingshot.png	n/a	n/a
46.692	1.017	memory	study	study	n/a	task-memory/obj107flower.png	n/a	n/a
48.743	1.017	memory	study	study	n/a	task-memory/obj141hoof.png	n/a	n/a
50.777	1.017	memory	study	study	n/a	task-memory/obj211peanut.png	n/a	n/a
52.828	1.017	memory	study	study	n/a	task-memory/obj175mailbox.png	n/a	n/a
54.862	1.017	memory	dummy	study_dummy	n/a	task-memory/obj273sled.png	n/a	n/a
56.896	1.017	memory	dummy	study_dummy	n/a	task-memory/obj313trophy.png	n/a	n/a
58.93	1.017	memory	dummy	study_dummy	n/a	task-memory/obj326violin.png	n/a	n/a
71.202	25.0	memory	distraction_math	math	n/a	n/a	n/a	n/a
99.262	25.0	memory	distraction_math	math	n/a	n/a	n/a	n/a
127.322	25.0	memory	distraction_math	math	n/a	n/a	n/a	n/a
155.383	25.0	memory	distraction_math	math	n/a	n/a	n/a	n/a
188.829	0.899	memory	test	test_old	correct	task-memory/obj275slingshot.png	old	n/a
191.446	1.714	memory	test	test_old	correct	task-memory/obj341window.png	old	n/a
194.464	0.814	memory	test	test_new	correct	task-memory/obj247rollerskate.png	new	n/a
196.998	0.755	memory	test	test_old	correct	task-memory/obj205pan.png	old	n/a
199.916	0.757	memory	test	test_new	correct	task-memory/obj193needle.png	new	n/a
202.801	0.615	memory	test	test_old	correct	task-memory/obj317turtle.png	old	n/a
205.518	0.951	memory	test	test_new	correct	task-memory/obj110football.png	new	n/a
208.519	0.783	memory	test	test_new	correct	task-memory/obj019basket.png	new	n/a
211.17	0.719	memory	test	test_old	correct	task-memory/obj088drawer.png	old	n/a
213.888	0.723	memory	test	test_new	correct	task-memory/obj339wig.png	new	n/a
216.439	0.65	memory	test	test_old	correct	task-memory/obj093egg.png	old	n/a
219.123	0.72	memory	test	test_old	correct	task-memory/obj233pyramid.png	old	n/a
221.974	0.766	memory	test	test_new	correct	task-memory/obj036bread.png	new	n/a
224.792	0.644	memory	test	test_new	correct	task-memory/obj126gun.png	new	n/a
227.51	0.718	memory	test	test_new	correct	task-memory/obj155king.png	new	n/a
230.461	0.693	memory	test	test_old	correct	task-memory/obj211peanut.png	old	n/a
233.212	0.693	memory	test	test_old	correct	task-memory/obj309top.png	old	n/a
236.013	0.762	memory	test	test_old	correct	task-memory/obj068cork.png	old	n/a
238.781	0.709	memory	test	test_new	correct	task-memory/obj210peacock.png	new	n/a
241.615	0.671	memory	test	test_new	correct	task-memory/obj333whale.png	new	n/a
244.583	0.653	memory	test	test_old	correct	task-memory/obj018barrel.png	old	n/a
247.217	0.783	memory	test	test_old	correct	task-memory/obj183mirror.png	old	n/a
249.901	0.748	memory	test	test_new	correct	task-memory/obj028boat.png	new	n/a
252.619	0.706	memory	test	test_new	correct	task-memory/obj345wrench.png	new	n/a
255.604	1.021	memory	test	test_new	correct	task-memory/obj166lightbulb.png	new	n/a
258.621	0.677	memory	test	test_new	correct	task-memory/obj039bus.png	new	n/a
261.356	0.701	memory	test	test_old	correct	task-memory/obj175mailbox.png	old	n/a
264.057	0.715	memory	test	test_old	correct	task-memory/obj141hoof.png	old	n/a
266.724	0.723	memory	test	test_new	correct	task-memory/obj133harp.png	new	n/a
269.425	0.954	memory	test	test_new	correct	task-memory/obj254safe.png	new	n/a
272.21	0.64	memory	test	test_new	correct	task-memory/obj020bat.png	new	n/a
274.777	0.923	memory	test	test_old	correct	task-memory/obj151puzzle.png	old	n/a
277.545	0.814	memory	test	test_old	correct	task-memory/obj144hose.png	old	n/a
280.513	0.703	memory	test	test_new	correct	task-memory/obj131handcuffs.png	new	n/a
283.364	1.272	memory	test	test_new	correct	task-memory/obj091duck.png	new	n/a
286.048	0.774	memory	test	test_old	correct	task-memory/obj272skunk.png	old	n/a
288.733	0.659	memory	test	test_new	correct	task-memory/obj283spider.png	new	n/a
291.45	0.715	memory	test	test_old	incorrect	task-memory/obj107flower.png	new	n/a
294.151	0.964	memory	test	test_old	correct	task-memory/obj064clock.png	old	n/a
297.119	0.724	memory	test	test_old	correct	task-memory/obj061church.png	old	n/a
308.407	1.017	memory	dummy	study_dummy	n/a	task-memory/obj008ashtray.png	n/a	n/a
310.441	1.034	memory	dummy	study_dummy	n/a	task-memory/obj034bowl.png	n/a	n/a
312.492	1.034	memory	dummy	study_dummy	n/a	task-memory/obj113fox.png	n/a	n/a
314.542	1.017	memory	study	study	n/a	task-memory/obj128hamburger.png	n/a	n/a
316.576	1.017	memory	study	study	n/a	task-memory/obj047can.png	n/a	n/a
318.627	1.017	memory	study	study	n/a	task-memory/obj201owl.png	n/a	n/a
320.678	1.017	memory	study	study	n/a	task-memory/obj040butterfly.png	n/a	n/a
322.729	1.017	memory	study	study	n/a	task-memory/obj251rose.png	n/a	n/a
324.763	1.017	memory	study	study	n/a	task-memory/obj221pinecone.png	n/a	n/a
326.797	1.017	memory	study	study	n/a	task-memory/obj158knight.png	n/a	n/a
328.831	1.017	memory	study	study	n/a	task-memory/obj056cheese.png	n/a	n/a
330.865	1.017	memory	study	study	n/a	task-memory/obj146igloo.png	n/a	n/a
332.899	1.017	memory	study	study	n/a	task-memory/obj094elephant.png	n/a	n/a
334.933	1.017	memory	study	study	n/a	task-memory/obj276snail.png	n/a	n/a
336.967	1.017	memory	study	study	n/a	task-memory/obj280sofa.png	n/a	n/a
339.001	1.017	memory	study	study	n/a	task-memory/obj217piano.png	n/a	n/a
341.035	1.017	memory	study	study	n/a	task-memory/obj300thermos.png	n/a	n/a
343.07	1.017	memory	study	study	n/a	task-memory/obj259scarf.png	n/a	n/a
345.104	1.017	memory	study	study	n/a	task-memory/obj261scorpion.png	n/a	n/a
347.138	1.017	memory	study	study	n/a	task-memory/obj220pineapple.png	n/a	n/a
349.172	1.017	memory	study	study	n/a	task-memory/obj160ladder.png	n/a	n/a
351.206	1.017	memory	study	study	n/a	task-memory/obj106flashlight.png	n/a	n/a
353.24	1.017	memory	study	study	n/a	task-memory/obj057cherry.png	n/a	n/a
355.274	1.017	memory	dummy	study_dummy	n/a	task-memory/obj163leaf.png	n/a	n/a
357.308	1.034	memory	dummy	study_dummy	n/a	task-memory/obj216penguin.png	n/a	n/a
359.359	1.017	memory	dummy	study_dummy	n/a	task-memory/obj322unicycle.png	n/a	n/a
371.514	25.0	memory	distraction_math	math	n/a	n/a	n/a	n/a
399.574	25.0	memory	distraction_math	math	n/a	n/a	n/a	n/a
427.634	25.0	memory	distraction_math	math	n/a	n/a	n/a	n/a
455.695	25.0	memory	distraction_math	math	n/a	n/a	n/a	n/a
489.241	0.877	memory	test	test_new	correct	task-memory/obj324vase.png	new	n/a
491.825	0.626	memory	test	test_old	correct	task-memory/obj056cheese.png	old	n/a
494.626	0.72	memory	test	test_new	correct	task-memory/obj340windmill.png	new	n/a
497.544	0.854	memory	test	test_old	incorrect	task-memory/obj128hamburger.png	new	n/a
500.428	0.774	memory	test	test_new	correct	task-memory/obj173lock.png	new	n/a
503.229	0.512	memory	test	test_old	correct	task-memory/obj160ladder.png	old	n/a
506.047	0.736	memory	test	test_new	correct	task-memory/obj279sock.png	new	n/a
509.031	0.625	memory	test	test_old	correct	task-memory/obj221pinecone.png	old	n/a
512.049	0.873	memory	test	test_new	correct	task-memory/obj171lizard.png	new	n/a
515.067	0.724	memory	test	test_new	correct	task-memory/obj170lipstick.png	new	n/a
517.835	0.696	memory	test	test_old	correct	task-memory/obj146igloo.png	old	n/a
520.836	0.742	memory	test	test_new	correct	task-memory/obj288strawberry.png	new	n/a
523.587	0.736	memory	test	test_old	correct	task-memory/obj047can.png	old	n/a
526.521	0.862	memory	test	test_new	correct	task-memory/obj334wheel.png	new	n/a
529.222	0.744	memory	test	test_old	correct	task-memory/obj217piano.png	old	n/a
531.79	1.508	memory	test	test_old	incorrect	task-memory/obj201owl.png	new	n/a
534.624	0.712	memory	test	test_old	correct	task-memory/obj106flashlight.png	old	n/a
537.425	1.065	memory	test	test_new	correct	task-memory/obj316turkey.png	new	n/a
540.31	0.831	memory	test	test_old	correct	task-memory/obj040butterfly.png	old	n/a
543.344	0.738	memory	test	test_old	correct	task-memory/obj251rose.png	old	n/a
546.195	1.03	memory	test	test_new	correct	task-memory/obj222pipe.png	new	n/a
549.046	1.207	memory	test	test_new	correct	task-memory/obj263seahorse.png	new	n/a
551.781	1.028	memory	test	test_old	correct	task-memory/obj094elephant.png	old	n/a
554.482	0.74	memory	test	test_old	correct	task-memory/obj280sofa.png	old	n/a
557.5	0.804	memory	test	test_new	correct	task-memory/obj291swing.png	new	n/a
560.367	0.653	memory	test	test_new	correct	task-memory/obj219pillow.png	new	n/a
563.118	0.651	memory	test	test_new	correct	task-memory/obj032boot.png	new	n/a
565.953	0.83	memory	test	test_old	correct	task-memory/obj220pineapple.png	old	n/a
568.82	0.736	memory	test	test_old	correct	task-memory/obj300thermos.png	old	n/a
571.805	0.684	memory	test	test_new	correct	task-memory/obj100feather.png	new	n/a
574.823	0.894	memory	test	test_old	correct	task-memory/obj276snail.png	old	n/a
577.59	0.774	memory	test	test_old	correct	task-memory/obj259scarf.png	old	n/a
580.625	1.039	memory	test	test_new	correct	task-memory/obj296telephone.png	new	n/a
583.209	1.304	memory	test	test_old	correct	task-memory/obj158knight.png	old	n/a
585.893	1.244	memory	test	test_new	correct	task-memory/obj065clown.png	new	n/a
588.761	0.83	memory	test	test_old	correct	task-memory/obj261scorpion.png	old	n/a
591.412	1.038	memory	test	test_new	correct	task-memory/obj303tiger.png	new	n/a
594.113	0.774	memory	test	test_new	correct	task-memory/obj266shovel.png	new	n/a
596.931	1.436	memory	test	test_new	correct	task-memory/obj346yoyo.png	new	n/a
599.815	0.793	memory	test	test_old	correct	task-memory/obj057cherry.png	old	n/a
