onset	duration	subtask_type	question	event_type	participant_response	normative_response	response_accuracy	stim_file	trial_index
0.052	2.067	tomspunt	reaching?	block_question_presentation	n/a	n/a	n/a	n/a	0
5.03	1.286	tomspunt	reaching?	how_hand	yes	yes	correct	task-tomspunt/H_006.jpg	0
6.63	1.469	tomspunt	reaching?	how_hand	no	no	correct	task-tomspunt/H_438.jpg	1
8.414	1.353	tomspunt	reaching?	how_hand	yes	yes	correct	task-tomspunt/H_003.jpg	2
10.082	1.586	tomspunt	reaching?	how_hand	yes	yes	correct	task-tomspunt/H_474.jpg	3
11.982	0.921	tomspunt	reaching?	how_hand	no	no	correct	task-tomspunt/H_532.jpg	4
13.216	1.147	tomspunt	reaching?	how_hand	yes	yes	correct	task-tomspunt/H_364.jpg	5
14.667	0.685	tomspunt	reaching?	how_hand	yes	yes	correct	task-tomspunt/H_007.jpg	6
15.667	0.952	tomspunt	reaching?	how_hand	no	no	correct	task-tomspunt/H_132.jpg	7
18.976	2.101	tomspunt	healthy?	block_question_presentation	n/a	n/a	n/a	n/a	8
23.987	0.853	tomspunt	healthy?	why_hand	yes	yes	correct	task-tomspunt/H_438.jpg	8
25.154	1.492	tomspunt	healthy?	why_hand	yes	no	incorrect	task-tomspunt/H_007.jpg	9
26.955	0.025	tomspunt	healthy?	why_hand	yes	yes	correct	task-tomspunt/H_364.jpg	10
27.288	1.185	tomspunt	healthy?	why_hand	no	no	correct	task-tomspunt/H_019.jpg	11
28.789	0.758	tomspunt	healthy?	why_hand	yes	yes	correct	task-tomspunt/H_167.jpg	12
29.856	0.941	tomspunt	healthy?	why_hand	no	no	correct	task-tomspunt/H_130.jpg	13
31.106	0.786	tomspunt	healthy?	why_hand	yes	yes	correct	task-tomspunt/H_627.jpg	14
32.207	0.84	tomspunt	healthy?	why_hand	yes	yes	correct	task-tomspunt/H_362.jpg	15
41.451	2.101	tomspunt	proud?	block_question_presentation	n/a	n/a	n/a	n/a	16
46.462	1.085	tomspunt	proud?	why_face	yes	yes	correct	task-tomspunt/F_083.jpg	16
47.862	0.668	tomspunt	proud?	why_face	no	no	correct	task-tomspunt/F_412.jpg	17
48.846	0.735	tomspunt	proud?	why_face	yes	yes	correct	task-tomspunt/F_695.jpg	18
49.896	0.651	tomspunt	proud?	why_face	yes	yes	correct	task-tomspunt/F_598.jpg	19
50.863	0.669	tomspunt	proud?	why_face	yes	yes	correct	task-tomspunt/F_618.jpg	20
51.847	0.685	tomspunt	proud?	why_face	yes	yes	correct	task-tomspunt/F_582.jpg	21
52.848	0.685	tomspunt	proud?	why_face	no	no	correct	task-tomspunt/F_760.jpg	22
53.848	0.769	tomspunt	proud?	why_face	no	no	correct	task-tomspunt/F_776.jpg	23
59.341	2.084	tomspunt	smiling?	block_question_presentation	n/a	n/a	n/a	n/a	24
64.335	0.662	tomspunt	smiling?	how_face	yes	yes	correct	task-tomspunt/F_695.jpg	24
65.302	0.568	tomspunt	smiling?	how_face	no	no	correct	task-tomspunt/F_412.jpg	25
66.186	0.594	tomspunt	smiling?	how_face	yes	yes	correct	task-tomspunt/F_083.jpg	26
67.086	0.685	tomspunt	smiling?	how_face	yes	yes	correct	task-tomspunt/F_593.jpg	27
68.087	0.61	tomspunt	smiling?	how_face	no	no	correct	task-tomspunt/F_712.jpg	28
69.004	0.585	tomspunt	smiling?	how_face	yes	yes	correct	task-tomspunt/F_139.jpg	29
69.904	0.559	tomspunt	smiling?	how_face	yes	yes	correct	task-tomspunt/F_759.jpg	30
70.771	0.609	tomspunt	smiling?	how_face	no	no	correct	task-tomspunt/F_758.jpg	31
78.448	2.101	tomspunt	both hands?	block_question_presentation	n/a	n/a	n/a	n/a	32
83.459	1.005	tomspunt	both hands?	how_hand	yes	yes	correct	task-tomspunt/H_167.jpg	32
84.776	0.721	tomspunt	both hands?	how_hand	no	no	correct	task-tomspunt/H_159.jpg	33
85.81	0.754	tomspunt	both hands?	how_hand	yes	yes	correct	task-tomspunt/H_027.jpg	34
86.877	0.836	tomspunt	both hands?	how_hand	yes	yes	correct	task-tomspunt/H_581.jpg	35
88.027	0.769	tomspunt	both hands?	how_hand	no	no	correct	task-tomspunt/H_091.jpg	36
89.111	0.769	tomspunt	both hands?	how_hand	yes	yes	correct	task-tomspunt/H_111.jpg	37
90.195	0.702	tomspunt	both hands?	how_hand	no	no	correct	task-tomspunt/H_627.jpg	38
91.212	0.635	tomspunt	both hands?	how_hand	yes	yes	correct	task-tomspunt/H_349.jpg	39
95.955	2.101	tomspunt	helping?	block_question_presentation	n/a	n/a	n/a	n/a	40
100.966	0.718	tomspunt	helping?	why_hand	yes	yes	correct	task-tomspunt/H_111.jpg	40
101.999	0.614	tomspunt	helping?	why_hand	yes	yes	correct	task-tomspunt/H_077.jpg	41
102.916	0.818	tomspunt	helping?	why_hand	no	no	correct	task-tomspunt/H_159.jpg	42
104.05	0.602	tomspunt	helping?	why_hand	yes	yes	correct	task-tomspunt/H_474.jpg	43
104.967	0.751	tomspunt	helping?	why_hand	no	no	correct	task-tomspunt/H_012.jpg	44
106.034	0.985	tomspunt	helping?	why_hand	no	yes	incorrect	task-tomspunt/H_024.jpg	45
107.335	0.685	tomspunt	helping?	why_hand	no	no	correct	task-tomspunt/H_091.jpg	46
108.335	0.651	tomspunt	helping?	why_hand	yes	yes	correct	task-tomspunt/H_349.jpg	47
115.012	2.101	tomspunt	self-doubt?	block_question_presentation	n/a	n/a	n/a	n/a	48
120.023	1.007	tomspunt	self-doubt?	why_face	yes	yes	correct	task-tomspunt/F_754.jpg	48
121.34	0.852	tomspunt	self-doubt?	why_face	yes	no	incorrect	task-tomspunt/F_128.jpg	49
122.507	0.857	tomspunt	self-doubt?	why_face	yes	yes	correct	task-tomspunt/F_544.jpg	50
123.674	0.685	tomspunt	self-doubt?	why_face	no	no	correct	task-tomspunt/F_086.jpg	51
124.674	0.672	tomspunt	self-doubt?	why_face	yes	yes	correct	task-tomspunt/F_798.jpg	52
125.658	0.872	tomspunt	self-doubt?	why_face	yes	yes	correct	task-tomspunt/F_584.jpg	53
126.842	0.718	tomspunt	self-doubt?	why_face	yes	yes	correct	task-tomspunt/F_111.jpg	54
127.876	0.754	tomspunt	self-doubt?	why_face	no	no	correct	task-tomspunt/F_774.jpg	55
132.802	2.101	tomspunt	looking to side?	block_question_presentation	n/a	n/a	n/a	n/a	56
137.813	0.718	tomspunt	looking to side?	how_face	yes	yes	correct	task-tomspunt/F_433.jpg	56
138.846	0.985	tomspunt	looking to side?	how_face	no	no	correct	task-tomspunt/F_779.jpg	57
140.147	0.701	tomspunt	looking to side?	how_face	yes	yes	correct	task-tomspunt/F_760.jpg	58
141.164	0.799	tomspunt	looking to side?	how_face	no	no	correct	task-tomspunt/F_111.jpg	59
142.264	0.735	tomspunt	looking to side?	how_face	no	no	correct	task-tomspunt/F_798.jpg	60
143.315	0.585	tomspunt	looking to side?	how_face	yes	yes	correct	task-tomspunt/F_716.jpg	61
144.215	0.615	tomspunt	looking to side?	how_face	yes	yes	correct	task-tomspunt/F_590.jpg	62
145.132	0.869	tomspunt	looking to side?	how_face	yes	yes	correct	task-tomspunt/F_110.jpg	63
150.325	2.101	tomspunt	argument?	block_question_presentation	n/a	n/a	n/a	n/a	64
155.336	0.951	tomspunt	argument?	why_face	yes	yes	correct	task-tomspunt/F_716.jpg	64
156.603	0.66	tomspunt	argument?	why_face	no	no	correct	task-tomspunt/F_139.jpg	65
157.57	0.618	tomspunt	argument?	why_face	yes	yes	correct	task-tomspunt/F_743.jpg	66
158.504	0.802	tomspunt	argument?	why_face	yes	yes	correct	task-tomspunt/F_403.jpg	67
159.621	0.918	tomspunt	argument?	why_face	yes	yes	correct	task-tomspunt/F_758.jpg	68
160.855	0.608	tomspunt	argument?	why_face	no	no	correct	task-tomspunt/F_844.jpg	69
161.772	0.758	tomspunt	argument?	why_face	yes	yes	correct	task-tomspunt/F_712.jpg	70
162.839	0.652	tomspunt	argument?	why_face	no	no	correct	task-tomspunt/F_433.jpg	71
169.115	2.101	tomspunt	open mouth?	block_question_presentation	n/a	n/a	n/a	n/a	72
174.126	0.653	tomspunt	open mouth?	how_face	yes	yes	correct	task-tomspunt/F_844.jpg	72
175.093	0.537	tomspunt	open mouth?	how_face	yes	yes	correct	task-tomspunt/F_692.jpg	73
175.943	0.57	tomspunt	open mouth?	how_face	no	no	correct	task-tomspunt/F_584.jpg	74
176.827	0.503	tomspunt	open mouth?	how_face	yes	yes	correct	task-tomspunt/F_086.jpg	75
177.644	0.686	tomspunt	open mouth?	how_face	yes	yes	correct	task-tomspunt/F_403.jpg	76
178.644	0.786	tomspunt	open mouth?	how_face	no	no	correct	task-tomspunt/F_544.jpg	77
179.745	0.835	tomspunt	open mouth?	how_face	no	no	correct	task-tomspunt/F_648.jpg	78
180.895	0.518	tomspunt	open mouth?	how_face	yes	yes	correct	task-tomspunt/F_776.jpg	79
187.189	2.101	tomspunt	lifting?	block_question_presentation	n/a	n/a	n/a	n/a	80
192.2	0.719	tomspunt	lifting?	how_hand	yes	yes	correct	task-tomspunt/H_170.jpg	80
193.233	0.735	tomspunt	lifting?	how_hand	no	no	correct	task-tomspunt/H_077.jpg	81
194.284	1.213	tomspunt	lifting?	how_hand	yes	yes	correct	task-tomspunt/H_189.jpg	82
195.801	0.635	tomspunt	lifting?	how_hand	yes	yes	correct	task-tomspunt/H_362.jpg	83
196.751	0.628	tomspunt	lifting?	how_hand	no	no	correct	task-tomspunt/H_012.jpg	84
197.685	0.778	tomspunt	lifting?	how_hand	yes	yes	correct	task-tomspunt/H_443.jpg	85
198.769	0.868	tomspunt	lifting?	how_hand	yes	yes	correct	task-tomspunt/H_136.jpg	86
199.952	0.894	tomspunt	lifting?	how_hand	no	no	correct	task-tomspunt/H_038.jpg	87
204.729	2.101	tomspunt	competing?	block_question_presentation	n/a	n/a	n/a	n/a	88
209.739	0.807	tomspunt	competing?	why_hand	yes	yes	correct	task-tomspunt/H_003.jpg	88
210.856	0.785	tomspunt	competing?	why_hand	no	no	correct	task-tomspunt/H_483.jpg	89
211.957	0.656	tomspunt	competing?	why_hand	yes	yes	correct	task-tomspunt/H_132.jpg	90
212.924	0.64	tomspunt	competing?	why_hand	yes	yes	correct	task-tomspunt/H_170.jpg	91
213.874	0.735	tomspunt	competing?	why_hand	no	no	correct	task-tomspunt/H_502.jpg	92
214.925	0.739	tomspunt	competing?	why_hand	yes	yes	correct	task-tomspunt/H_136.jpg	93
215.975	0.905	tomspunt	competing?	why_hand	no	no	correct	task-tomspunt/H_126.jpg	94
217.192	0.621	tomspunt	competing?	why_hand	yes	yes	correct	task-tomspunt/H_261.jpg	95
222.935	2.101	tomspunt	admiring?	block_question_presentation	n/a	n/a	n/a	n/a	96
227.946	0.701	tomspunt	admiring?	why_face	yes	yes	correct	task-tomspunt/F_759.jpg	96
228.963	0.602	tomspunt	admiring?	why_face	yes	yes	correct	task-tomspunt/F_593.jpg	97
229.88	0.869	tomspunt	admiring?	why_face	no	no	correct	task-tomspunt/F_692.jpg	98
231.064	0.602	tomspunt	admiring?	why_face	yes	yes	correct	task-tomspunt/F_590.jpg	99
231.981	0.785	tomspunt	admiring?	why_face	no	no	correct	task-tomspunt/F_129.jpg	100
233.081	0.635	tomspunt	admiring?	why_face	yes	yes	correct	task-tomspunt/F_648.jpg	101
234.032	0.768	tomspunt	admiring?	why_face	no	no	correct	task-tomspunt/F_110.jpg	102
235.116	0.669	tomspunt	admiring?	why_face	yes	yes	correct	task-tomspunt/F_779.jpg	103
240.825	2.101	tomspunt	looking at camera?	block_question_presentation	n/a	n/a	n/a	n/a	104
245.836	0.535	tomspunt	looking at camera?	how_face	yes	yes	correct	task-tomspunt/F_128.jpg	104
246.687	0.577	tomspunt	looking at camera?	how_face	no	no	correct	task-tomspunt/F_754.jpg	105
247.57	0.518	tomspunt	looking at camera?	how_face	yes	yes	correct	task-tomspunt/F_598.jpg	106
248.404	0.609	tomspunt	looking at camera?	how_face	yes	yes	correct	task-tomspunt/F_129.jpg	107
249.321	0.525	tomspunt	looking at camera?	how_face	yes	yes	correct	task-tomspunt/F_618.jpg	108
250.154	0.526	tomspunt	looking at camera?	how_face	no	no	correct	task-tomspunt/F_743.jpg	109
250.988	0.675	tomspunt	looking at camera?	how_face	yes	yes	correct	task-tomspunt/F_774.jpg	110
251.972	0.708	tomspunt	looking at camera?	how_face	no	no	correct	task-tomspunt/F_582.jpg	111
262.317	2.101	tomspunt	pressing button?	block_question_presentation	n/a	n/a	n/a	n/a	112
267.328	0.669	tomspunt	pressing button?	how_hand	yes	yes	correct	task-tomspunt/H_019.jpg	112
268.311	0.652	tomspunt	pressing button?	how_hand	yes	yes	correct	task-tomspunt/H_126.jpg	113
269.278	0.669	tomspunt	pressing button?	how_hand	no	no	correct	task-tomspunt/H_130.jpg	114
270.262	0.568	tomspunt	pressing button?	how_hand	yes	yes	correct	task-tomspunt/H_332.jpg	115
271.146	0.601	tomspunt	pressing button?	how_hand	no	no	correct	task-tomspunt/H_024.jpg	116
272.063	0.651	tomspunt	pressing button?	how_hand	yes	yes	correct	task-tomspunt/H_483.jpg	117
273.03	0.601	tomspunt	pressing button?	how_hand	no	no	correct	task-tomspunt/H_261.jpg	118
273.947	0.551	tomspunt	pressing button?	how_hand	yes	yes	correct	task-tomspunt/H_502.jpg	119
280.157	2.101	tomspunt	self-protection?	block_question_presentation	n/a	n/a	n/a	n/a	120
285.168	0.912	tomspunt	self-protection?	why_hand	no	yes	incorrect	task-tomspunt/H_443.jpg	120
286.385	0.885	tomspunt	self-protection?	why_hand	yes	yes	correct	task-tomspunt/H_189.jpg	121
287.585	0.811	tomspunt	self-protection?	why_hand	yes	yes	correct	task-tomspunt/H_027.jpg	122
288.702	0.828	tomspunt	self-protection?	why_hand	no	no	correct	task-tomspunt/H_532.jpg	123
289.836	0.844	tomspunt	self-protection?	why_hand	yes	yes	correct	task-tomspunt/H_038.jpg	124
290.986	0.894	tomspunt	self-protection?	why_hand	no	no	correct	task-tomspunt/H_006.jpg	125
292.187	0.735	tomspunt	self-protection?	why_hand	no	no	correct	task-tomspunt/H_332.jpg	126
293.237	1.552	tomspunt	self-protection?	why_hand	no	yes	incorrect	task-tomspunt/H_581.jpg	127
298.83	2.101	tomspunt	reaching?	block_question_presentation	n/a	n/a	n/a	n/a	128
303.841	0.656	tomspunt	reaching?	how_hand	yes	yes	correct	task-tomspunt/H_007.jpg	128
304.808	0.719	tomspunt	reaching?	how_hand	no	no	correct	task-tomspunt/H_532.jpg	129
305.842	0.885	tomspunt	reaching?	how_hand	yes	yes	correct	task-tomspunt/H_474.jpg	130
307.042	0.837	tomspunt	reaching?	how_hand	no	no	correct	task-tomspunt/H_438.jpg	131
308.193	0.787	tomspunt	reaching?	how_hand	yes	yes	correct	task-tomspunt/H_364.jpg	132
309.293	0.703	tomspunt	reaching?	how_hand	yes	yes	correct	task-tomspunt/H_006.jpg	133
310.31	0.77	tomspunt	reaching?	how_hand	yes	yes	correct	task-tomspunt/H_003.jpg	134
311.394	0.819	tomspunt	reaching?	how_hand	no	no	correct	task-tomspunt/H_132.jpg	135
317.787	2.101	tomspunt	healthy?	block_question_presentation	n/a	n/a	n/a	n/a	136
322.798	0.718	tomspunt	healthy?	why_hand	yes	yes	correct	task-tomspunt/H_627.jpg	136
323.832	1.031	tomspunt	healthy?	why_hand	yes	yes	correct	task-tomspunt/H_438.jpg	137
325.166	1.068	tomspunt	healthy?	why_hand	yes	yes	correct	task-tomspunt/H_364.jpg	138
326.55	0.785	tomspunt	healthy?	why_hand	no	no	correct	task-tomspunt/H_130.jpg	139
327.65	0.768	tomspunt	healthy?	why_hand	yes	yes	correct	task-tomspunt/H_362.jpg	140
328.734	0.812	tomspunt	healthy?	why_hand	no	no	correct	task-tomspunt/H_007.jpg	141
329.851	1.102	tomspunt	healthy?	why_hand	yes	yes	correct	task-tomspunt/H_167.jpg	142
331.268	0.919	tomspunt	healthy?	why_hand	no	no	correct	task-tomspunt/H_019.jpg	143
340.279	2.101	tomspunt	admiring?	block_question_presentation	n/a	n/a	n/a	n/a	144
345.29	0.606	tomspunt	admiring?	why_face	yes	yes	correct	task-tomspunt/F_779.jpg	144
346.207	0.806	tomspunt	admiring?	why_face	yes	yes	correct	task-tomspunt/F_593.jpg	145
347.324	0.606	tomspunt	admiring?	why_face	no	no	correct	task-tomspunt/F_110.jpg	146
348.241	0.506	tomspunt	admiring?	why_face	yes	yes	correct	task-tomspunt/F_590.jpg	147
349.058	0.789	tomspunt	admiring?	why_face	no	no	correct	task-tomspunt/F_692.jpg	148
350.158	0.505	tomspunt	admiring?	why_face	yes	yes	correct	task-tomspunt/F_759.jpg	149
350.975	0.655	tomspunt	admiring?	why_face	yes	yes	correct	task-tomspunt/F_648.jpg	150
351.942	0.638	tomspunt	admiring?	why_face	no	no	correct	task-tomspunt/F_129.jpg	151
358.152	2.101	tomspunt	smiling?	block_question_presentation	n/a	n/a	n/a	n/a	152
363.163	0.617	tomspunt	smiling?	how_face	yes	yes	correct	task-tomspunt/F_139.jpg	152
364.08	0.635	tomspunt	smiling?	how_face	no	no	correct	task-tomspunt/F_712.jpg	153
365.031	0.635	tomspunt	smiling?	how_face	yes	yes	correct	task-tomspunt/F_695.jpg	154
365.981	0.602	tomspunt	smiling?	how_face	no	no	correct	task-tomspunt/F_758.jpg	155
366.898	0.452	tomspunt	smiling?	how_face	yes	yes	correct	task-tomspunt/F_083.jpg	156
367.665	0.552	tomspunt	smiling?	how_face	yes	yes	correct	task-tomspunt/F_759.jpg	157
368.532	0.518	tomspunt	smiling?	how_face	no	no	correct	task-tomspunt/F_412.jpg	158
369.366	0.619	tomspunt	smiling?	how_face	yes	yes	correct	task-tomspunt/F_593.jpg	159
377.26	2.101	tomspunt	lifting?	block_question_presentation	n/a	n/a	n/a	n/a	160
382.27	0.819	tomspunt	lifting?	how_hand	yes	yes	correct	task-tomspunt/H_136.jpg	160
383.404	0.726	tomspunt	lifting?	how_hand	no	no	correct	task-tomspunt/H_038.jpg	161
384.438	0.608	tomspunt	lifting?	how_hand	yes	yes	correct	task-tomspunt/H_189.jpg	162
385.355	0.652	tomspunt	lifting?	how_hand	no	no	correct	task-tomspunt/H_077.jpg	163
386.322	0.758	tomspunt	lifting?	how_hand	yes	yes	correct	task-tomspunt/H_443.jpg	164
387.389	0.635	tomspunt	lifting?	how_hand	no	no	correct	task-tomspunt/H_012.jpg	165
388.339	0.624	tomspunt	lifting?	how_hand	yes	yes	correct	task-tomspunt/H_362.jpg	166
389.273	0.874	tomspunt	lifting?	how_hand	no	yes	incorrect	task-tomspunt/H_170.jpg	167
394.783	2.084	tomspunt	helping?	block_question_presentation	n/a	n/a	n/a	n/a	168
399.777	0.87	tomspunt	helping?	why_hand	yes	yes	correct	task-tomspunt/H_077.jpg	168
400.961	0.569	tomspunt	helping?	why_hand	yes	yes	correct	task-tomspunt/H_349.jpg	169
401.844	0.652	tomspunt	helping?	why_hand	yes	yes	correct	task-tomspunt/H_474.jpg	170
402.811	0.685	tomspunt	helping?	why_hand	no	yes	incorrect	task-tomspunt/H_024.jpg	171
403.812	0.835	tomspunt	helping?	why_hand	no	no	correct	task-tomspunt/H_012.jpg	172
404.962	0.901	tomspunt	helping?	why_hand	no	no	correct	task-tomspunt/H_159.jpg	173
406.179	0.752	tomspunt	helping?	why_hand	yes	yes	correct	task-tomspunt/H_111.jpg	174
407.246	0.751	tomspunt	helping?	why_hand	no	no	correct	task-tomspunt/H_091.jpg	175
413.823	2.101	tomspunt	proud?	block_question_presentation	n/a	n/a	n/a	n/a	176
418.834	0.669	tomspunt	proud?	why_face	yes	yes	correct	task-tomspunt/F_598.jpg	176
419.818	0.635	tomspunt	proud?	why_face	no	no	correct	task-tomspunt/F_760.jpg	177
420.768	0.585	tomspunt	proud?	why_face	yes	yes	correct	task-tomspunt/F_582.jpg	178
421.668	0.569	tomspunt	proud?	why_face	no	no	correct	task-tomspunt/F_412.jpg	179
422.552	0.718	tomspunt	proud?	why_face	yes	yes	correct	task-tomspunt/F_083.jpg	180
423.586	1.327	tomspunt	proud?	why_face	no	no	correct	task-tomspunt/F_776.jpg	181
425.22	0.635	tomspunt	proud?	why_face	yes	yes	correct	task-tomspunt/F_618.jpg	182
426.17	0.743	tomspunt	proud?	why_face	yes	yes	correct	task-tomspunt/F_695.jpg	183
431.613	2.101	tomspunt	looking to side?	block_question_presentation	n/a	n/a	n/a	n/a	184
436.624	0.718	tomspunt	looking to side?	how_face	yes	yes	correct	task-tomspunt/F_590.jpg	184
437.658	0.589	tomspunt	looking to side?	how_face	yes	yes	correct	task-tomspunt/F_433.jpg	185
438.558	0.589	tomspunt	looking to side?	how_face	yes	yes	correct	task-tomspunt/F_716.jpg	186
439.458	0.989	tomspunt	looking to side?	how_face	no	no	correct	task-tomspunt/F_779.jpg	187
440.759	0.654	tomspunt	looking to side?	how_face	yes	yes	correct	task-tomspunt/F_760.jpg	188
441.726	0.635	tomspunt	looking to side?	how_face	no	no	correct	task-tomspunt/F_111.jpg	189
442.676	0.603	tomspunt	looking to side?	how_face	yes	yes	correct	task-tomspunt/F_110.jpg	190
443.593	0.62	tomspunt	looking to side?	how_face	no	no	correct	task-tomspunt/F_798.jpg	191
449.153	2.101	tomspunt	argument?	block_question_presentation	n/a	n/a	n/a	n/a	192
454.164	0.918	tomspunt	argument?	why_face	yes	yes	correct	task-tomspunt/F_716.jpg	192
455.398	0.018	tomspunt	argument?	why_face	yes	no	incorrect	task-tomspunt/F_139.jpg	193
455.731	0.999	tomspunt	argument?	why_face	yes	yes	correct	task-tomspunt/F_712.jpg	194
457.032	1.085	tomspunt	argument?	why_face	yes	no	incorrect	task-tomspunt/F_433.jpg	195
458.432	0.801	tomspunt	argument?	why_face	yes	yes	correct	task-tomspunt/F_403.jpg	196
459.549	0.681	tomspunt	argument?	why_face	no	no	correct	task-tomspunt/F_844.jpg	197
460.533	0.769	tomspunt	argument?	why_face	yes	yes	correct	task-tomspunt/F_743.jpg	198
461.617	0.935	tomspunt	argument?	why_face	yes	yes	correct	task-tomspunt/F_758.jpg	199
467.943	2.101	tomspunt	open mouth?	block_question_presentation	n/a	n/a	n/a	n/a	200
472.954	0.559	tomspunt	open mouth?	how_face	yes	yes	correct	task-tomspunt/F_844.jpg	200
473.821	0.476	tomspunt	open mouth?	how_face	yes	yes	correct	task-tomspunt/F_776.jpg	201
474.605	0.675	tomspunt	open mouth?	how_face	no	no	correct	task-tomspunt/F_544.jpg	202
475.589	0.425	tomspunt	open mouth?	how_face	yes	yes	correct	task-tomspunt/F_692.jpg	203
476.322	0.657	tomspunt	open mouth?	how_face	no	no	correct	task-tomspunt/F_584.jpg	204
477.289	0.507	tomspunt	open mouth?	how_face	yes	yes	correct	task-tomspunt/F_403.jpg	205
478.106	0.607	tomspunt	open mouth?	how_face	yes	yes	correct	task-tomspunt/F_086.jpg	206
479.023	0.635	tomspunt	open mouth?	how_face	no	no	correct	task-tomspunt/F_648.jpg	207
486.017	2.084	tomspunt	pressing button?	block_question_presentation	n/a	n/a	n/a	n/a	208
491.011	0.835	tomspunt	pressing button?	how_hand	yes	yes	correct	task-tomspunt/H_019.jpg	208
492.161	0.652	tomspunt	pressing button?	how_hand	no	no	correct	task-tomspunt/H_024.jpg	209
493.128	0.801	tomspunt	pressing button?	how_hand	no	no	correct	task-tomspunt/H_130.jpg	210
494.246	0.535	tomspunt	pressing button?	how_hand	yes	yes	correct	task-tomspunt/H_502.jpg	211
495.096	0.551	tomspunt	pressing button?	how_hand	no	no	correct	task-tomspunt/H_261.jpg	212
495.963	0.568	tomspunt	pressing button?	how_hand	yes	yes	correct	task-tomspunt/H_332.jpg	213
496.846	0.685	tomspunt	pressing button?	how_hand	yes	yes	correct	task-tomspunt/H_126.jpg	214
497.847	0.685	tomspunt	pressing button?	how_hand	yes	yes	correct	task-tomspunt/H_483.jpg	215
503.54	2.101	tomspunt	competing?	block_question_presentation	n/a	n/a	n/a	n/a	216
508.551	0.535	tomspunt	competing?	why_hand	yes	yes	correct	task-tomspunt/H_261.jpg	216
509.401	0.612	tomspunt	competing?	why_hand	no	no	correct	task-tomspunt/H_483.jpg	217
510.318	0.585	tomspunt	competing?	why_hand	yes	yes	correct	task-tomspunt/H_132.jpg	218
511.218	0.695	tomspunt	competing?	why_hand	no	no	correct	task-tomspunt/H_126.jpg	219
512.219	0.685	tomspunt	competing?	why_hand	yes	yes	correct	task-tomspunt/H_136.jpg	220
513.219	0.677	tomspunt	competing?	why_hand	no	no	correct	task-tomspunt/H_502.jpg	221
514.203	0.594	tomspunt	competing?	why_hand	yes	yes	correct	task-tomspunt/H_003.jpg	222
515.103	0.569	tomspunt	competing?	why_hand	yes	yes	correct	task-tomspunt/H_170.jpg	223
521.763	2.101	tomspunt	self-doubt?	block_question_presentation	n/a	n/a	n/a	n/a	224
526.774	0.739	tomspunt	self-doubt?	why_face	yes	yes	correct	task-tomspunt/F_544.jpg	224
527.825	0.569	tomspunt	self-doubt?	why_face	no	no	correct	task-tomspunt/F_086.jpg	225
528.708	0.522	tomspunt	self-doubt?	why_face	yes	yes	correct	task-tomspunt/F_798.jpg	226
529.542	0.701	tomspunt	self-doubt?	why_face	yes	yes	correct	task-tomspunt/F_111.jpg	227
530.559	0.554	tomspunt	self-doubt?	why_face	no	no	correct	task-tomspunt/F_774.jpg	228
531.426	0.553	tomspunt	self-doubt?	why_face	yes	yes	correct	task-tomspunt/F_754.jpg	229
532.293	0.753	tomspunt	self-doubt?	why_face	no	no	correct	task-tomspunt/F_128.jpg	230
533.36	0.67	tomspunt	self-doubt?	why_face	yes	yes	correct	task-tomspunt/F_584.jpg	231
539.653	2.101	tomspunt	looking at camera?	block_question_presentation	n/a	n/a	n/a	n/a	232
544.664	1.252	tomspunt	looking at camera?	how_face	yes	yes	correct	task-tomspunt/F_128.jpg	232
546.232	0.669	tomspunt	looking at camera?	how_face	yes	yes	correct	task-tomspunt/F_618.jpg	233
547.215	0.635	tomspunt	looking at camera?	how_face	yes	yes	correct	task-tomspunt/F_598.jpg	234
548.166	0.701	tomspunt	looking at camera?	how_face	no	no	correct	task-tomspunt/F_743.jpg	235
549.183	0.631	tomspunt	looking at camera?	how_face	yes	yes	correct	task-tomspunt/F_774.jpg	236
550.116	0.831	tomspunt	looking at camera?	how_face	no	no	correct	task-tomspunt/F_582.jpg	237
551.25	1.118	tomspunt	looking at camera?	how_face	yes	no	incorrect	task-tomspunt/F_754.jpg	238
552.684	1.035	tomspunt	looking at camera?	how_face	yes	yes	correct	task-tomspunt/F_129.jpg	239
561.128	2.101	tomspunt	both hands?	block_question_presentation	n/a	n/a	n/a	n/a	240
566.139	0.791	tomspunt	both hands?	how_hand	yes	yes	correct	task-tomspunt/H_167.jpg	240
567.239	0.623	tomspunt	both hands?	how_hand	no	no	correct	task-tomspunt/H_091.jpg	241
568.173	0.606	tomspunt	both hands?	how_hand	yes	no	incorrect	task-tomspunt/H_627.jpg	242
569.09	0.706	tomspunt	both hands?	how_hand	yes	yes	correct	task-tomspunt/H_027.jpg	243
570.107	0.718	tomspunt	both hands?	how_hand	yes	yes	correct	task-tomspunt/H_111.jpg	244
571.141	0.723	tomspunt	both hands?	how_hand	no	no	correct	task-tomspunt/H_159.jpg	245
572.175	1.006	tomspunt	both hands?	how_hand	yes	yes	correct	task-tomspunt/H_581.jpg	246
573.492	0.555	tomspunt	both hands?	how_hand	yes	yes	correct	task-tomspunt/H_349.jpg	247
578.968	2.101	tomspunt	self-protection?	block_question_presentation	n/a	n/a	n/a	n/a	248
583.979	0.919	tomspunt	self-protection?	why_hand	no	yes	incorrect	task-tomspunt/H_443.jpg	248
585.213	1.301	tomspunt	self-protection?	why_hand	no	no	correct	task-tomspunt/H_006.jpg	249
586.813	1.118	tomspunt	self-protection?	why_hand	no	yes	incorrect	task-tomspunt/H_581.jpg	250
588.247	0.818	tomspunt	self-protection?	why_hand	no	no	correct	task-tomspunt/H_532.jpg	251
589.381	0.685	tomspunt	self-protection?	why_hand	yes	yes	correct	task-tomspunt/H_027.jpg	252
590.381	0.601	tomspunt	self-protection?	why_hand	yes	yes	correct	task-tomspunt/H_038.jpg	253
591.298	0.852	tomspunt	self-protection?	why_hand	no	no	correct	task-tomspunt/H_332.jpg	254
592.465	0.702	tomspunt	self-protection?	why_hand	yes	yes	correct	task-tomspunt/H_189.jpg	255
