onset	duration	run_type	trial_type	trial_index	cue	stimulusintensity	rating_value	rating_glmslabel	rating_value_fillna	rating_glmslabel_fillna	rating_mouseonset	rating_mousedur	stim_file	pain_onset_ttl1	pain_onset_ttl2	pain_onset_ttl3	pain_onset_ttl4	pain_stimulus_delivery_success	cognitive_correct_response	cognitive_participant_response	cognitive_response_accuracy
7.89	0.98	vicarious	cue	1	high_cue	n/a	n/a	n/a	n/a	n/a	n/a	n/a	task-social/cue/runtype-vicarious/sch/h040.png	n/a	n/a	n/a	n/a	n/a	n/a	n/a	n/a
10.11	n/a	vicarious	expectrating	1	high_cue	n/a	n/a	n/a	n/a	n/a	n/a	n/a	task-social/cue/runtype-vicarious/sch/h040.png	n/a	n/a	n/a	n/a	n/a	n/a	n/a	n/a
20.78	5.0	vicarious	stimulus	1	high_cue	low_stim	n/a	n/a	n/a	n/a	n/a	n/a	task-social/stim/runtype-vicarious/vw121t1aeaff_L.mp4	n/a	n/a	n/a	n/a	n/a	n/a	n/a	n/a
33.0	n/a	vicarious	outcomerating	1	high_cue	low_stim	n/a	n/a	n/a	n/a	n/a	n/a	task-social/outcomerating/task-vicarious_scale.png	n/a	n/a	n/a	n/a	n/a	n/a	n/a	n/a
37.59	0.99	vicarious	cue	2	low_cue	n/a	n/a	n/a	n/a	n/a	n/a	n/a	task-social/cue/runtype-vicarious/scl/l054.png	n/a	n/a	n/a	n/a	n/a	n/a	n/a	n/a
39.99	1.48	vicarious	expectrating	2	low_cue	n/a	32.33	Strong	32.33	Strong	0.05	1.43	task-social/cue/runtype-vicarious/scl/l054.png	n/a	n/a	n/a	n/a	n/a	n/a	n/a	n/a
47.38	5.0	vicarious	stimulus	2	low_cue	med_stim	n/a	n/a	n/a	n/a	n/a	n/a	task-social/stim/runtype-vicarious/jh043t2aeunaff_M.mp4	n/a	n/a	n/a	n/a	n/a	n/a	n/a	n/a
57.5	n/a	vicarious	outcomerating	2	low_cue	med_stim	n/a	n/a	0.0	n/a	0.05	1.43	task-social/outcomerating/task-vicarious_scale.png	n/a	n/a	n/a	n/a	n/a	n/a	n/a	n/a
66.68	0.99	vicarious	cue	3	high_cue	n/a	n/a	n/a	n/a	n/a	n/a	n/a	task-social/cue/runtype-vicarious/sch/h003.png	n/a	n/a	n/a	n/a	n/a	n/a	n/a	n/a
68.9	2.95	vicarious	expectrating	3	high_cue	n/a	37.58	Strong	37.58	Strong	1.3	1.65	task-social/cue/runtype-vicarious/sch/h003.png	n/a	n/a	n/a	n/a	n/a	n/a	n/a	n/a
81.88	5.0	vicarious	stimulus	3	high_cue	low_stim	n/a	n/a	n/a	n/a	n/a	n/a	task-social/stim/runtype-vicarious/ib109t1aiunaff_L.mp4	n/a	n/a	n/a	n/a	n/a	n/a	n/a	n/a
90.41	3.62	vicarious	outcomerating	3	high_cue	low_stim	42.68	Strong	42.68	Strong	1.3	1.65	task-social/outcomerating/task-vicarious_scale.png	n/a	n/a	n/a	n/a	n/a	n/a	n/a	n/a
95.49	0.98	vicarious	cue	4	low_cue	n/a	n/a	n/a	n/a	n/a	n/a	n/a	task-social/cue/runtype-vicarious/scl/l045.png	n/a	n/a	n/a	n/a	n/a	n/a	n/a	n/a
99.0	n/a	vicarious	expectrating	4	low_cue	n/a	n/a	n/a	n/a	n/a	n/a	n/a	task-social/cue/runtype-vicarious/scl/l045.png	n/a	n/a	n/a	n/a	n/a	n/a	n/a	n/a
107.58	5.0	vicarious	stimulus	4	low_cue	med_stim	n/a	n/a	n/a	n/a	n/a	n/a	task-social/stim/runtype-vicarious/jl047t1aiunaff_M.mp4	n/a	n/a	n/a	n/a	n/a	n/a	n/a	n/a
120.8	n/a	vicarious	outcomerating	4	low_cue	med_stim	n/a	n/a	n/a	n/a	n/a	n/a	task-social/outcomerating/task-vicarious_scale.png	n/a	n/a	n/a	n/a	n/a	n/a	n/a	n/a
125.89	0.99	vicarious	cue	5	high_cue	n/a	n/a	n/a	n/a	n/a	n/a	n/a	task-social/cue/runtype-vicarious/sch/h054.png	n/a	n/a	n/a	n/a	n/a	n/a	n/a	n/a
127.59	3.54	vicarious	expectrating	5	high_cue	n/a	21.89	Moderate	21.89	Moderate	0.87	2.68	task-social/cue/runtype-vicarious/sch/h054.png	n/a	n/a	n/a	n/a	n/a	n/a	n/a	n/a
134.18	5.0	vicarious	stimulus	5	high_cue	high_stim	n/a	n/a	n/a	n/a	n/a	n/a	task-social/stim/runtype-vicarious/ch092t2aiaff_H.mp4	n/a	n/a	n/a	n/a	n/a	n/a	n/a	n/a
147.4	n/a	vicarious	outcomerating	5	high_cue	high_stim	n/a	n/a	n/a	n/a	0.87	2.68	task-social/outcomerating/task-vicarious_scale.png	n/a	n/a	n/a	n/a	n/a	n/a	n/a	n/a
151.98	1.0	vicarious	cue	6	low_cue	n/a	n/a	n/a	n/a	n/a	n/a	n/a	task-social/cue/runtype-vicarious/scl/l029.png	n/a	n/a	n/a	n/a	n/a	n/a	n/a	n/a
155.5	n/a	vicarious	expectrating	6	low_cue	n/a	n/a	n/a	28.42	Moderate	1.83	3.78	task-social/cue/runtype-vicarious/scl/l029.png	n/a	n/a	n/a	n/a	n/a	n/a	n/a	n/a
169.68	5.0	vicarious	stimulus	6	low_cue	low_stim	n/a	n/a	n/a	n/a	n/a	n/a	task-social/stim/runtype-vicarious/mg066t2aeunaff_L.mp4	n/a	n/a	n/a	n/a	n/a	n/a	n/a	n/a
181.89	2.56	vicarious	outcomerating	6	low_cue	low_stim	31.71	Strong	31.71	Strong	1.83	3.78	task-social/outcomerating/task-vicarious_scale.png	n/a	n/a	n/a	n/a	n/a	n/a	n/a	n/a
187.49	0.98	vicarious	cue	7	low_cue	n/a	n/a	n/a	n/a	n/a	n/a	n/a	task-social/cue/runtype-vicarious/scl/l001.png	n/a	n/a	n/a	n/a	n/a	n/a	n/a	n/a
189.7	3.54	vicarious	expectrating	7	low_cue	n/a	9.67	Weak	9.67	Weak	1.47	2.07	task-social/cue/runtype-vicarious/scl/l001.png	n/a	n/a	n/a	n/a	n/a	n/a	n/a	n/a
203.88	5.0	vicarious	stimulus	7	low_cue	high_stim	n/a	n/a	n/a	n/a	n/a	n/a	task-social/stim/runtype-vicarious/jl047t1aiaff_H.mp4	n/a	n/a	n/a	n/a	n/a	n/a	n/a	n/a
217.21	1.95	vicarious	outcomerating	7	low_cue	high_stim	90.0	Very-Strong	90.0	Very-Strong	1.47	2.07	task-social/outcomerating/task-vicarious_scale.png	n/a	n/a	n/a	n/a	n/a	n/a	n/a	n/a
223.39	0.99	vicarious	cue	8	low_cue	n/a	n/a	n/a	n/a	n/a	n/a	n/a	task-social/cue/runtype-vicarious/scl/l042.png	n/a	n/a	n/a	n/a	n/a	n/a	n/a	n/a
225.59	n/a	vicarious	expectrating	8	low_cue	n/a	n/a	n/a	n/a	n/a	n/a	n/a	task-social/cue/runtype-vicarious/scl/l042.png	n/a	n/a	n/a	n/a	n/a	n/a	n/a	n/a
232.18	5.0	vicarious	stimulus	8	low_cue	low_stim	n/a	n/a	n/a	n/a	n/a	n/a	task-social/stim/runtype-vicarious/ch092t2aeaff_L.mp4	n/a	n/a	n/a	n/a	n/a	n/a	n/a	n/a
245.5	2.63	vicarious	outcomerating	8	low_cue	low_stim	30.37	Strong	30.37	Strong	n/a	n/a	task-social/outcomerating/task-vicarious_scale.png	n/a	n/a	n/a	n/a	n/a	n/a	n/a	n/a
259.29	0.99	vicarious	cue	9	high_cue	n/a	n/a	n/a	n/a	n/a	n/a	n/a	task-social/cue/runtype-vicarious/sch/h001.png	n/a	n/a	n/a	n/a	n/a	n/a	n/a	n/a
262.79	2.9	vicarious	expectrating	9	high_cue	n/a	163.03	Strongest-sensation-of-any-kind	163.03	Strongest-sensation-of-any-kind	1.0	1.9	task-social/cue/runtype-vicarious/sch/h001.png	n/a	n/a	n/a	n/a	n/a	n/a	n/a	n/a
271.38	5.0	vicarious	stimulus	9	high_cue	high_stim	n/a	n/a	n/a	n/a	n/a	n/a	task-social/stim/runtype-vicarious/vw121t1aaaff_H.mp4	n/a	n/a	n/a	n/a	n/a	n/a	n/a	n/a
281.5	n/a	vicarious	outcomerating	9	high_cue	high_stim	n/a	n/a	n/a	n/a	1.0	1.9	task-social/outcomerating/task-vicarious_scale.png	n/a	n/a	n/a	n/a	n/a	n/a	n/a	n/a
291.68	0.99	vicarious	cue	10	low_cue	n/a	n/a	n/a	n/a	n/a	n/a	n/a	task-social/cue/runtype-vicarious/scl/l041.png	n/a	n/a	n/a	n/a	n/a	n/a	n/a	n/a
294.1	1.33	vicarious	expectrating	10	low_cue	n/a	29.74	Strong	29.74	Strong	0.05	1.28	task-social/cue/runtype-vicarious/scl/l041.png	n/a	n/a	n/a	n/a	n/a	n/a	n/a	n/a
301.68	5.0	vicarious	stimulus	10	low_cue	high_stim	n/a	n/a	n/a	n/a	n/a	n/a	task-social/stim/runtype-vicarious/bg096t1aeaff_H.mp4	n/a	n/a	n/a	n/a	n/a	n/a	n/a	n/a
310.21	3.99	vicarious	outcomerating	10	low_cue	high_stim	29.86	Strong	29.86	Strong	0.05	1.28	task-social/outcomerating/task-vicarious_scale.png	n/a	n/a	n/a	n/a	n/a	n/a	n/a	n/a
328.7	0.98	vicarious	cue	11	high_cue	n/a	n/a	n/a	n/a	n/a	n/a	n/a	task-social/cue/runtype-vicarious/sch/h033.png	n/a	n/a	n/a	n/a	n/a	n/a	n/a	n/a
331.1	n/a	vicarious	expectrating	11	high_cue	n/a	n/a	n/a	55.79	Strong	0.85	3.88	task-social/cue/runtype-vicarious/sch/h033.png	n/a	n/a	n/a	n/a	n/a	n/a	n/a	n/a
346.78	5.0	vicarious	stimulus	11	high_cue	med_stim	n/a	n/a	n/a	n/a	n/a	n/a	task-social/stim/runtype-vicarious/ch092t2aaaff_M.mp4	n/a	n/a	n/a	n/a	n/a	n/a	n/a	n/a
359.81	n/a	vicarious	outcomerating	11	high_cue	med_stim	n/a	n/a	n/a	n/a	0.85	3.88	task-social/outcomerating/task-vicarious_scale.png	n/a	n/a	n/a	n/a	n/a	n/a	n/a	n/a
369.6	0.98	vicarious	cue	12	high_cue	n/a	n/a	n/a	n/a	n/a	n/a	n/a	task-social/cue/runtype-vicarious/sch/h022.png	n/a	n/a	n/a	n/a	n/a	n/a	n/a	n/a
371.6	n/a	vicarious	expectrating	12	high_cue	n/a	n/a	n/a	n/a	n/a	n/a	n/a	task-social/cue/runtype-vicarious/sch/h022.png	n/a	n/a	n/a	n/a	n/a	n/a	n/a	n/a
384.58	5.0	vicarious	stimulus	12	high_cue	med_stim	n/a	n/a	n/a	n/a	n/a	n/a	task-social/stim/runtype-vicarious/bg096t2aaaff_M.mp4	n/a	n/a	n/a	n/a	n/a	n/a	n/a	n/a
394.81	0.18	vicarious	outcomerating	12	high_cue	med_stim	n/a	n/a	180.0	Strongest-sensation-of-any-kind	n/a	n/a	task-social/outcomerating/task-vicarious_scale.png	n/a	n/a	n/a	n/a	n/a	n/a	n/a	n/a
