onset	duration	run_type	trial_type	trial_index	cue	stimulusintensity	rating_value	rating_glmslabel	rating_value_fillna	rating_glmslabel_fillna	rating_mouseonset	rating_mousedur	stim_file	pain_onset_ttl1	pain_onset_ttl2	pain_onset_ttl3	pain_onset_ttl4	pain_stimulus_delivery_success	cognitive_correct_response	cognitive_participant_response	cognitive_response_accuracy
3.41	1.0	pain	cue	1	low_cue	n/a	n/a	n/a	n/a	n/a	n/a	n/a	task-social/cue/runtype-pain/scl/l027.png	n/a	n/a	n/a	n/a	n/a	n/a	n/a	n/a
6.16	2.62	pain	expectrating	1	low_cue	n/a	36.36	Strong	36.36	Strong	0.63	1.99	task-social/cue/runtype-pain/scl/l027.png	n/a	n/a	n/a	n/a	n/a	n/a	n/a	n/a
16.63	12.82	pain	stimulus	1	low_cue	high_stim	n/a	n/a	n/a	n/a	n/a	n/a	n/a	16.63	20.64	25.64	29.45	success	n/a	n/a	n/a
32.61	2.9	pain	outcomerating	1	low_cue	high_stim	44.35	Strong	44.35	Strong	0.63	1.99	task-social/outcomerating/task-pain_scale.png	n/a	n/a	n/a	n/a	success	n/a	n/a	n/a
41.61	1.0	pain	cue	2	high_cue	n/a	n/a	n/a	n/a	n/a	n/a	n/a	task-social/cue/runtype-pain/sch/h036.png	n/a	n/a	n/a	n/a	n/a	n/a	n/a	n/a
44.71	1.38	pain	expectrating	2	high_cue	n/a	53.7	Strong	53.7	Strong	0.05	1.33	task-social/cue/runtype-pain/sch/h036.png	n/a	n/a	n/a	n/a	n/a	n/a	n/a	n/a
53.24	12.369999999999997	pain	stimulus	2	high_cue	med_stim	n/a	n/a	n/a	n/a	n/a	n/a	n/a	53.24	57.0	62.0	65.61	success	n/a	n/a	n/a
69.3	1.4	pain	outcomerating	2	high_cue	med_stim	17.27	Moderate	17.27	Moderate	0.05	1.33	task-social/outcomerating/task-pain_scale.png	n/a	n/a	n/a	n/a	success	n/a	n/a	n/a
78.41	1.0	pain	cue	3	low_cue	n/a	n/a	n/a	n/a	n/a	n/a	n/a	task-social/cue/runtype-pain/scl/l032.png	n/a	n/a	n/a	n/a	n/a	n/a	n/a	n/a
81.53	2.15	pain	expectrating	3	low_cue	n/a	62.81	Strong	62.81	Strong	0.27	1.89	task-social/cue/runtype-pain/scl/l032.png	n/a	n/a	n/a	n/a	n/a	n/a	n/a	n/a
86.04	11.899999999999991	pain	stimulus	3	low_cue	low_stim	n/a	n/a	n/a	n/a	n/a	n/a	n/a	86.04	89.54	94.54	97.94	success	n/a	n/a	n/a
97.81	1.77	pain	outcomerating	3	low_cue	low_stim	19.53	Moderate	19.53	Moderate	0.27	1.89	task-social/outcomerating/task-pain_scale.png	n/a	n/a	n/a	n/a	success	n/a	n/a	n/a
105.9	1.0	pain	cue	4	low_cue	n/a	n/a	n/a	n/a	n/a	n/a	n/a	task-social/cue/runtype-pain/scl/l023.png	n/a	n/a	n/a	n/a	n/a	n/a	n/a	n/a
107.42	2.04	pain	expectrating	4	low_cue	n/a	39.06	Strong	39.06	Strong	0.62	1.42	task-social/cue/runtype-pain/scl/l023.png	n/a	n/a	n/a	n/a	n/a	n/a	n/a	n/a
112.25	11.900000000000006	pain	stimulus	4	low_cue	low_stim	n/a	n/a	n/a	n/a	n/a	n/a	n/a	112.25	115.75	120.75	124.15	success	n/a	n/a	n/a
128.01	2.12	pain	outcomerating	4	low_cue	low_stim	24.35	Moderate	24.35	Moderate	0.62	1.42	task-social/outcomerating/task-pain_scale.png	n/a	n/a	n/a	n/a	success	n/a	n/a	n/a
137.11	1.0	pain	cue	5	high_cue	n/a	n/a	n/a	n/a	n/a	n/a	n/a	task-social/cue/runtype-pain/sch/h027.png	n/a	n/a	n/a	n/a	n/a	n/a	n/a	n/a
140.21	1.22	pain	expectrating	5	high_cue	n/a	77.52	Very-Strong	77.52	Very-Strong	0.05	1.17	task-social/cue/runtype-pain/sch/h027.png	n/a	n/a	n/a	n/a	n/a	n/a	n/a	n/a
147.96	11.900000000000006	pain	stimulus	5	high_cue	low_stim	n/a	n/a	n/a	n/a	n/a	n/a	n/a	147.96	151.46	156.46	159.86	success	n/a	n/a	n/a
159.9	1.62	pain	outcomerating	5	high_cue	low_stim	27.39	Moderate	27.39	Moderate	0.05	1.17	task-social/outcomerating/task-pain_scale.png	n/a	n/a	n/a	n/a	success	n/a	n/a	n/a
169.01	1.0	pain	cue	6	high_cue	n/a	n/a	n/a	n/a	n/a	n/a	n/a	task-social/cue/runtype-pain/sch/h042.png	n/a	n/a	n/a	n/a	n/a	n/a	n/a	n/a
171.01	1.68	pain	expectrating	6	high_cue	n/a	86.63	Very-Strong	86.63	Very-Strong	0.25	1.43	task-social/cue/runtype-pain/sch/h042.png	n/a	n/a	n/a	n/a	n/a	n/a	n/a	n/a
175.54	12.360000000000014	pain	stimulus	6	high_cue	med_stim	n/a	n/a	n/a	n/a	n/a	n/a	n/a	175.54	179.3	184.3	187.91	success	n/a	n/a	n/a
187.31	2.11	pain	outcomerating	6	high_cue	med_stim	56.18	Strong	56.18	Strong	0.25	1.43	task-social/outcomerating/task-pain_scale.png	n/a	n/a	n/a	n/a	success	n/a	n/a	n/a
194.4	1.0	pain	cue	7	high_cue	n/a	n/a	n/a	n/a	n/a	n/a	n/a	task-social/cue/runtype-pain/sch/h011.png	n/a	n/a	n/a	n/a	n/a	n/a	n/a	n/a
196.4	1.6	pain	expectrating	7	high_cue	n/a	69.61	Very-Strong	69.61	Very-Strong	0.05	1.55	task-social/cue/runtype-pain/sch/h011.png	n/a	n/a	n/a	n/a	n/a	n/a	n/a	n/a
207.45	11.910000000000025	pain	stimulus	7	high_cue	low_stim	n/a	n/a	n/a	n/a	n/a	n/a	n/a	207.45	210.95	215.95	219.35	success	n/a	n/a	n/a
222.31	1.86	pain	outcomerating	7	high_cue	low_stim	29.46	Strong	29.46	Strong	0.05	1.55	task-social/outcomerating/task-pain_scale.png	n/a	n/a	n/a	n/a	success	n/a	n/a	n/a
234.8	1.0	pain	cue	8	low_cue	n/a	n/a	n/a	n/a	n/a	n/a	n/a	task-social/cue/runtype-pain/scl/l039.png	n/a	n/a	n/a	n/a	n/a	n/a	n/a	n/a
237.32	1.25	pain	expectrating	8	low_cue	n/a	47.15	Strong	47.15	Strong	0.12	1.14	task-social/cue/runtype-pain/scl/l039.png	n/a	n/a	n/a	n/a	n/a	n/a	n/a	n/a
249.34	12.820000000000022	pain	stimulus	8	low_cue	high_stim	n/a	n/a	n/a	n/a	n/a	n/a	n/a	249.34	253.35	258.35	262.16	success	n/a	n/a	n/a
262.71	1.9	pain	outcomerating	8	low_cue	high_stim	55.61	Strong	55.61	Strong	0.12	1.14	task-social/outcomerating/task-pain_scale.png	n/a	n/a	n/a	n/a	success	n/a	n/a	n/a
271.81	0.98	pain	cue	9	low_cue	n/a	n/a	n/a	n/a	n/a	n/a	n/a	task-social/cue/runtype-pain/scl/l053.png	n/a	n/a	n/a	n/a	n/a	n/a	n/a	n/a
274.91	3.04	pain	expectrating	9	low_cue	n/a	54.01	Strong	54.01	Strong	1.48	1.56	task-social/cue/runtype-pain/scl/l053.png	n/a	n/a	n/a	n/a	n/a	n/a	n/a	n/a
284.64	12.370000000000005	pain	stimulus	9	low_cue	med_stim	n/a	n/a	n/a	n/a	n/a	n/a	n/a	284.64	288.4	293.4	297.01	success	n/a	n/a	n/a
294.4	2.45	pain	outcomerating	9	low_cue	med_stim	61.37	Strong	61.37	Strong	1.48	1.56	task-social/outcomerating/task-pain_scale.png	n/a	n/a	n/a	n/a	success	n/a	n/a	n/a
299.91	1.0	pain	cue	10	low_cue	n/a	n/a	n/a	n/a	n/a	n/a	n/a	task-social/cue/runtype-pain/scl/l004.png	n/a	n/a	n/a	n/a	n/a	n/a	n/a	n/a
301.81	2.58	pain	expectrating	10	low_cue	n/a	61.79	Strong	61.79	Strong	0.38	2.2	task-social/cue/runtype-pain/scl/l004.png	n/a	n/a	n/a	n/a	n/a	n/a	n/a	n/a
313.53	12.370000000000005	pain	stimulus	10	low_cue	med_stim	n/a	n/a	n/a	n/a	n/a	n/a	n/a	313.53	317.29	322.29	325.9	success	n/a	n/a	n/a
326.12	3.35	pain	outcomerating	10	low_cue	med_stim	51.12	Strong	51.12	Strong	0.38	2.2	task-social/outcomerating/task-pain_scale.png	n/a	n/a	n/a	n/a	success	n/a	n/a	n/a
337.9	1.0	pain	cue	11	high_cue	n/a	n/a	n/a	n/a	n/a	n/a	n/a	task-social/cue/runtype-pain/sch/h026.png	n/a	n/a	n/a	n/a	n/a	n/a	n/a	n/a
340.61	3.05	pain	expectrating	11	high_cue	n/a	81.18	Very-Strong	81.18	Very-Strong	0.17	2.89	task-social/cue/runtype-pain/sch/h026.png	n/a	n/a	n/a	n/a	n/a	n/a	n/a	n/a
346.04	12.819999999999993	pain	stimulus	11	high_cue	high_stim	n/a	n/a	n/a	n/a	n/a	n/a	n/a	346.04	350.05	355.05	358.86	success	n/a	n/a	n/a
355.51	n/a	pain	outcomerating	11	high_cue	high_stim	n/a	n/a	48.08	Strong	0.17	2.89	task-social/outcomerating/task-pain_scale.png	n/a	n/a	n/a	n/a	success	n/a	n/a	n/a
362.61	0.98	pain	cue	12	high_cue	n/a	n/a	n/a	n/a	n/a	n/a	n/a	task-social/cue/runtype-pain/sch/h028.png	n/a	n/a	n/a	n/a	n/a	n/a	n/a	n/a
364.81	2.06	pain	expectrating	12	high_cue	n/a	100.3	Strongest-sensation-of-any-kind	100.3	Strongest-sensation-of-any-kind	0.15	1.91	task-social/cue/runtype-pain/sch/h028.png	n/a	n/a	n/a	n/a	n/a	n/a	n/a	n/a
376.53	12.830000000000041	pain	stimulus	12	high_cue	high_stim	n/a	n/a	n/a	n/a	n/a	n/a	n/a	376.53	380.54	385.54	389.35	success	n/a	n/a	n/a
394.61	3.04	pain	outcomerating	12	high_cue	high_stim	71.42	Very-Strong	71.42	Very-Strong	0.15	1.91	task-social/outcomerating/task-pain_scale.png	n/a	n/a	n/a	n/a	success	n/a	n/a	n/a
