onset	duration	run_type	trial_type	trial_index	cue	stimulusintensity	rating_value	rating_glmslabel	rating_value_fillna	rating_glmslabel_fillna	rating_mouseonset	rating_mousedur	stim_file_TODO	pain_onset_ttl1	pain_onset_ttl2	pain_onset_ttl3	pain_onset_ttl4	pain_stimulus_delivery_success	cognitive_correct_response	cognitive_participant_response	cognitive_response_accuracy
3.4	0.98	cognitive	cue	1	low_cue	n/a	n/a	n/a	n/a	n/a	n/a	n/a	task-social/cue/runtype-cognitive/scl/l019.png	n/a	n/a	n/a	n/a	n/a	n/a	n/a	n/a
6.11	1.14	cognitive	expectrating	1	low_cue	n/a	6.72	Weak	6.72	Weak	0.37	0.78	task-social/cue/runtype-cognitive/scl/l019.png	n/a	n/a	n/a	n/a	n/a	n/a	n/a	n/a
18.51	5.0	cognitive	stimulus	1	low_cue	high_stim	n/a	n/a	n/a	n/a	n/a	n/a	task-social/stim/runtype-cognitive/47_150.jpg	n/a	n/a	n/a	n/a	n/a	same	same	True
32.6	1.63	cognitive	outcomerating	1	low_cue	high_stim	21.42	Moderate	21.42	Moderate	0.37	0.78	task-social/outcomerating/task-cognitive_scale.png	n/a	n/a	n/a	n/a	n/a	n/a	n/a	n/a
41.6	0.98	cognitive	cue	2	high_cue	n/a	n/a	n/a	n/a	n/a	n/a	n/a	task-social/cue/runtype-cognitive/sch/h046.png	n/a	n/a	n/a	n/a	n/a	n/a	n/a	n/a
44.7	2.15	cognitive	expectrating	2	high_cue	n/a	38.3	Strong	38.3	Strong	0.3	1.85	task-social/cue/runtype-cognitive/sch/h046.png	n/a	n/a	n/a	n/a	n/a	n/a	n/a	n/a
55.21	5.0	cognitive	stimulus	2	high_cue	med_stim	n/a	n/a	n/a	n/a	n/a	n/a	task-social/stim/runtype-cognitive/44_100.jpg	n/a	n/a	n/a	n/a	n/a	same	diff	False
69.3	1.9	cognitive	outcomerating	2	high_cue	med_stim	53.64	Strong	53.64	Strong	0.3	1.85	task-social/outcomerating/task-cognitive_scale.png	n/a	n/a	n/a	n/a	n/a	n/a	n/a	n/a
78.4	0.99	cognitive	cue	3	low_cue	n/a	n/a	n/a	n/a	n/a	n/a	n/a	task-social/cue/runtype-cognitive/scl/l022.png	n/a	n/a	n/a	n/a	n/a	n/a	n/a	n/a
81.5	3.47	cognitive	expectrating	3	low_cue	n/a	18.43	Moderate	18.43	Moderate	0.47	3.0	task-social/cue/runtype-cognitive/scl/l022.png	n/a	n/a	n/a	n/a	n/a	n/a	n/a	n/a
88.0	5.0	cognitive	stimulus	3	low_cue	low_stim	n/a	n/a	n/a	n/a	n/a	n/a	task-social/stim/runtype-cognitive/10_50.jpg	n/a	n/a	n/a	n/a	n/a	same	same	True
97.81	3.37	cognitive	outcomerating	3	low_cue	low_stim	13.08	Moderate	13.08	Moderate	0.47	3.0	task-social/outcomerating/task-cognitive_scale.png	n/a	n/a	n/a	n/a	n/a	n/a	n/a	n/a
105.89	0.99	cognitive	cue	4	low_cue	n/a	n/a	n/a	n/a	n/a	n/a	n/a	task-social/cue/runtype-cognitive/scl/l030.png	n/a	n/a	n/a	n/a	n/a	n/a	n/a	n/a
107.39	2.57	cognitive	expectrating	4	low_cue	n/a	0.46	No sensation	0.46	No sensation	0.05	2.52	task-social/cue/runtype-cognitive/scl/l030.png	n/a	n/a	n/a	n/a	n/a	n/a	n/a	n/a
114.2	5.0	cognitive	stimulus	4	low_cue	low_stim	n/a	n/a	n/a	n/a	n/a	n/a	task-social/stim/runtype-cognitive/5_50_R.jpg	n/a	n/a	n/a	n/a	n/a	diff	diff	True
128.0	2.88	cognitive	outcomerating	4	low_cue	low_stim	26.78	Moderate	26.78	Moderate	0.05	2.52	task-social/outcomerating/task-cognitive_scale.png	n/a	n/a	n/a	n/a	n/a	n/a	n/a	n/a
137.1	0.98	cognitive	cue	5	high_cue	n/a	n/a	n/a	n/a	n/a	n/a	n/a	task-social/cue/runtype-cognitive/sch/h055.png	n/a	n/a	n/a	n/a	n/a	n/a	n/a	n/a
140.21	1.36	cognitive	expectrating	5	high_cue	n/a	6.28	Weak	6.28	Weak	0.42	0.94	task-social/cue/runtype-cognitive/sch/h055.png	n/a	n/a	n/a	n/a	n/a	n/a	n/a	n/a
149.91	5.0	cognitive	stimulus	5	high_cue	low_stim	n/a	n/a	n/a	n/a	n/a	n/a	task-social/stim/runtype-cognitive/11_50_R.jpg	n/a	n/a	n/a	n/a	n/a	diff	diff	True
159.9	2.35	cognitive	outcomerating	5	high_cue	low_stim	n/a	n/a	180.0	Strongest sensation of any kind	0.42	0.94	task-social/outcomerating/task-cognitive_scale.png	n/a	n/a	n/a	n/a	n/a	n/a	n/a	n/a
169.0	0.98	cognitive	cue	6	high_cue	n/a	n/a	n/a	n/a	n/a	n/a	n/a	task-social/cue/runtype-cognitive/sch/h033.png	n/a	n/a	n/a	n/a	n/a	n/a	n/a	n/a
171.0	1.2	cognitive	expectrating	6	high_cue	n/a	49.93	Strong	49.93	Strong	0.08	1.12	task-social/cue/runtype-cognitive/sch/h033.png	n/a	n/a	n/a	n/a	n/a	n/a	n/a	n/a
177.5	5.0	cognitive	stimulus	6	high_cue	med_stim	n/a	n/a	n/a	n/a	n/a	n/a	task-social/stim/runtype-cognitive/10_100_R.jpg	n/a	n/a	n/a	n/a	n/a	diff	diff	True
187.31	1.5	cognitive	outcomerating	6	high_cue	med_stim	48.44	Strong	48.44	Strong	0.08	1.12	task-social/outcomerating/task-cognitive_scale.png	n/a	n/a	n/a	n/a	n/a	n/a	n/a	n/a
194.39	0.99	cognitive	cue	7	high_cue	n/a	n/a	n/a	n/a	n/a	n/a	n/a	task-social/cue/runtype-cognitive/sch/h018.png	n/a	n/a	n/a	n/a	n/a	n/a	n/a	n/a
196.39	2.17	cognitive	expectrating	7	high_cue	n/a	71.27	Very Strong	71.27	Very Strong	0.17	2.0	task-social/cue/runtype-cognitive/sch/h018.png	n/a	n/a	n/a	n/a	n/a	n/a	n/a	n/a
209.4	5.0	cognitive	stimulus	7	high_cue	low_stim	n/a	n/a	n/a	n/a	n/a	n/a	task-social/stim/runtype-cognitive/43_50_R.jpg	n/a	n/a	n/a	n/a	n/a	diff	n/a	False
222.3	1.13	cognitive	outcomerating	7	high_cue	low_stim	45.18	Strong	45.18	Strong	0.17	2.0	task-social/outcomerating/task-cognitive_scale.png	n/a	n/a	n/a	n/a	n/a	n/a	n/a	n/a
234.79	0.99	cognitive	cue	8	low_cue	n/a	n/a	n/a	n/a	n/a	n/a	n/a	task-social/cue/runtype-cognitive/scl/l013.png	n/a	n/a	n/a	n/a	n/a	n/a	n/a	n/a
237.29	1.42	cognitive	expectrating	8	low_cue	n/a	6.16	Weak	6.16	Weak	0.52	0.91	task-social/cue/runtype-cognitive/scl/l013.png	n/a	n/a	n/a	n/a	n/a	n/a	n/a	n/a
251.3	5.0	cognitive	stimulus	8	low_cue	high_stim	n/a	n/a	n/a	n/a	n/a	n/a	task-social/stim/runtype-cognitive/35_150_R.jpg	n/a	n/a	n/a	n/a	n/a	diff	diff	True
262.7	2.1	cognitive	outcomerating	8	low_cue	high_stim	40.58	Strong	40.58	Strong	0.52	0.91	task-social/outcomerating/task-cognitive_scale.png	n/a	n/a	n/a	n/a	n/a	n/a	n/a	n/a
271.8	0.98	cognitive	cue	9	low_cue	n/a	n/a	n/a	n/a	n/a	n/a	n/a	task-social/cue/runtype-cognitive/scl/l029.png	n/a	n/a	n/a	n/a	n/a	n/a	n/a	n/a
274.91	1.81	cognitive	expectrating	9	low_cue	n/a	2.31	Barely detectable	2.31	Barely detectable	0.42	1.39	task-social/cue/runtype-cognitive/scl/l029.png	n/a	n/a	n/a	n/a	n/a	n/a	n/a	n/a
286.59	5.0	cognitive	stimulus	9	low_cue	med_stim	n/a	n/a	n/a	n/a	n/a	n/a	task-social/stim/runtype-cognitive/18_100.jpg	n/a	n/a	n/a	n/a	n/a	same	same	True
294.4	2.43	cognitive	outcomerating	9	low_cue	med_stim	61.83	Strong	61.83	Strong	0.42	1.39	task-social/outcomerating/task-cognitive_scale.png	n/a	n/a	n/a	n/a	n/a	n/a	n/a	n/a
299.9	0.99	cognitive	cue	10	low_cue	n/a	n/a	n/a	n/a	n/a	n/a	n/a	task-social/cue/runtype-cognitive/scl/l044.png	n/a	n/a	n/a	n/a	n/a	n/a	n/a	n/a
301.8	2.13	cognitive	expectrating	10	low_cue	n/a	18.14	Moderate	18.14	Moderate	0.57	1.57	task-social/cue/runtype-cognitive/scl/l044.png	n/a	n/a	n/a	n/a	n/a	n/a	n/a	n/a
315.5	5.0	cognitive	stimulus	10	low_cue	med_stim	n/a	n/a	n/a	n/a	n/a	n/a	task-social/stim/runtype-cognitive/29_100_R.jpg	n/a	n/a	n/a	n/a	n/a	diff	diff	True
326.09	2.57	cognitive	outcomerating	10	low_cue	med_stim	48.92	Strong	48.92	Strong	0.57	1.57	task-social/outcomerating/task-cognitive_scale.png	n/a	n/a	n/a	n/a	n/a	n/a	n/a	n/a
337.9	0.99	cognitive	cue	11	high_cue	n/a	n/a	n/a	n/a	n/a	n/a	n/a	task-social/cue/runtype-cognitive/sch/h039.png	n/a	n/a	n/a	n/a	n/a	n/a	n/a	n/a
340.6	2.0	cognitive	expectrating	11	high_cue	n/a	67.08	Very Strong	67.08	Very Strong	1.0	1.0	task-social/cue/runtype-cognitive/sch/h039.png	n/a	n/a	n/a	n/a	n/a	n/a	n/a	n/a
348.0	5.0	cognitive	stimulus	11	high_cue	high_stim	n/a	n/a	n/a	n/a	n/a	n/a	task-social/stim/runtype-cognitive/18_150_R.jpg	n/a	n/a	n/a	n/a	n/a	diff	diff	True
355.5	1.85	cognitive	outcomerating	11	high_cue	high_stim	30.69	Strong	30.69	Strong	1.0	1.0	task-social/outcomerating/task-cognitive_scale.png	n/a	n/a	n/a	n/a	n/a	n/a	n/a	n/a
362.59	1.0	cognitive	cue	12	high_cue	n/a	n/a	n/a	n/a	n/a	n/a	n/a	task-social/cue/runtype-cognitive/sch/h042.png	n/a	n/a	n/a	n/a	n/a	n/a	n/a	n/a
364.81	1.63	cognitive	expectrating	12	high_cue	n/a	59.45	Strong	59.45	Strong	0.25	1.38	task-social/cue/runtype-cognitive/sch/h042.png	n/a	n/a	n/a	n/a	n/a	n/a	n/a	n/a
378.49	5.0	cognitive	stimulus	12	high_cue	high_stim	n/a	n/a	n/a	n/a	n/a	n/a	task-social/stim/runtype-cognitive/29_150.jpg	n/a	n/a	n/a	n/a	n/a	same	diff	False
394.6	2.75	cognitive	outcomerating	12	high_cue	high_stim	66.62	Very Strong	66.62	Very Strong	0.25	1.38	task-social/outcomerating/task-cognitive_scale.png	n/a	n/a	n/a	n/a	n/a	n/a	n/a	n/a
