onset	duration	trial_type	response_x	response_y	situation	context	modality	stim_file
8.833	32.166	narrative_presentation	n/a	n/a	Slaying of kin unrecognized	town	Text	task-narratives/Narrative3Situation1.txt
40.999	2.472	rating_feeling	731.0	452.0	Slaying of kin unrecognized	town	Text	task-narratives/Narrative3Situation1.txt
42.082	1.388	feeling_mouse_trajectory	731.0	452.0	Slaying of kin unrecognized	town	Text	task-narratives/Narrative3Situation1.txt
45.085	3.983	rating_expectation	889.0	620.0	Slaying of kin unrecognized	town	Text	task-narratives/Narrative3Situation1.txt
45.519	3.55	expectation_mouse_trajectory	889.0	620.0	Slaying of kin unrecognized	town	Text	task-narratives/Narrative3Situation1.txt
53.183	17.094	narrative_presentation	n/a	n/a	Adultery	swamp	Text	task-narratives/Narrative3Situation2.txt
70.277	3.533	rating_feeling	731.0	452.0	Adultery	swamp	Text	task-narratives/Narrative3Situation2.txt
71.26	2.55	feeling_mouse_trajectory	731.0	452.0	Adultery	swamp	Text	task-narratives/Narrative3Situation2.txt
74.293	0.076	rating_expectation	889.0	620.0	Adultery	swamp	Text	task-narratives/Narrative3Situation2.txt
n/a	n/a	expectation_mouse_trajectory	889.0	620.0	Adultery	swamp	Text	task-narratives/Narrative3Situation2.txt
80.359	10.395	narrative_presentation	n/a	n/a	Revolt	town	Text	task-narratives/Narrative3Situation3.txt
90.754	2.936	rating_feeling	731.0	452.0	Revolt	town	Text	task-narratives/Narrative3Situation3.txt
92.021	1.67	feeling_mouse_trajectory	731.0	452.0	Revolt	town	Text	task-narratives/Narrative3Situation3.txt
94.785	n/a	rating_expectation	889.0	620.0	Revolt	town	Text	task-narratives/Narrative3Situation3.txt
n/a	n/a	expectation_mouse_trajectory	889.0	620.0	Revolt	town	Text	task-narratives/Narrative3Situation3.txt
99.85	28.147	narrative_presentation	n/a	n/a	Fatal imprudence	hospital	Text	task-narratives/Narrative3Situation4.txt
127.997	2.923	rating_feeling	731.0	452.0	Fatal imprudence	hospital	Text	task-narratives/Narrative3Situation4.txt
128.064	2.856	feeling_mouse_trajectory	731.0	452.0	Fatal imprudence	hospital	Text	task-narratives/Narrative3Situation4.txt
132.035	3.5	rating_expectation	889.0	620.0	Fatal imprudence	hospital	Text	task-narratives/Narrative3Situation4.txt
135.035	0.5	expectation_mouse_trajectory	889.0	620.0	Fatal imprudence	hospital	Text	task-narratives/Narrative3Situation4.txt
139.131	15.079	narrative_presentation	n/a	n/a	Deliverance	city	Text	task-narratives/Narrative3Situation5.txt
154.21	3.95	rating_feeling	731.0	452.0	Deliverance	city	Text	task-narratives/Narrative3Situation5.txt
154.994	3.167	feeling_mouse_trajectory	731.0	452.0	Deliverance	city	Text	task-narratives/Narrative3Situation5.txt
158.224	2.267	rating_expectation	889.0	620.0	Deliverance	city	Text	task-narratives/Narrative3Situation5.txt
158.257	2.233	expectation_mouse_trajectory	889.0	620.0	Deliverance	city	Text	task-narratives/Narrative3Situation5.txt
165.291	15.079	narrative_presentation	n/a	n/a	Necessity of sacrificing loved ones	hospital	Text	task-narratives/Narrative3Situation6.txt
180.37	3.883	rating_feeling	731.0	452.0	Necessity of sacrificing loved ones	hospital	Text	task-narratives/Narrative3Situation6.txt
180.987	3.267	feeling_mouse_trajectory	731.0	452.0	Necessity of sacrificing loved ones	hospital	Text	task-narratives/Narrative3Situation6.txt
184.385	2.885	rating_expectation	889.0	620.0	Necessity of sacrificing loved ones	hospital	Text	task-narratives/Narrative3Situation6.txt
184.418	2.852	expectation_mouse_trajectory	889.0	620.0	Necessity of sacrificing loved ones	hospital	Text	task-narratives/Narrative3Situation6.txt
192.451	36.852	narrative_presentation	n/a	n/a	Loss of loved one	forest	Text	task-narratives/Narrative3Situation7.txt
229.303	3.735	rating_feeling	731.0	452.0	Loss of loved one	forest	Text	task-narratives/Narrative3Situation7.txt
230.353	2.685	feeling_mouse_trajectory	731.0	452.0	Loss of loved one	forest	Text	task-narratives/Narrative3Situation7.txt
233.318	n/a	rating_expectation	889.0	620.0	Loss of loved one	forest	Text	task-narratives/Narrative3Situation7.txt
n/a	n/a	expectation_mouse_trajectory	889.0	620.0	Loss of loved one	forest	Text	task-narratives/Narrative3Situation7.txt
239.385	9.706	narrative_presentation	n/a	n/a	Crimes of love	prison	Text	task-narratives/Narrative3Situation8.txt
249.091	3.7	rating_feeling	731.0	452.0	Crimes of love	prison	Text	task-narratives/Narrative3Situation8.txt
249.941	2.85	feeling_mouse_trajectory	731.0	452.0	Crimes of love	prison	Text	task-narratives/Narrative3Situation8.txt
253.109	0.126	rating_expectation	889.0	620.0	Crimes of love	prison	Text	task-narratives/Narrative3Situation8.txt
253.259	-0.024	expectation_mouse_trajectory	889.0	620.0	Crimes of love	prison	Text	task-narratives/Narrative3Situation8.txt
258.176	27.48	narrative_presentation	n/a	n/a	Discovery of dishonour of loved one	forest	Text	task-narratives/Narrative3Situation9.txt
285.656	2.918	rating_feeling	731.0	452.0	Discovery of dishonour of loved one	forest	Text	task-narratives/Narrative3Situation9.txt
286.073	2.501	feeling_mouse_trajectory	731.0	452.0	Discovery of dishonour of loved one	forest	Text	task-narratives/Narrative3Situation9.txt
289.673	3.185	rating_expectation	889.0	620.0	Discovery of dishonour of loved one	forest	Text	task-narratives/Narrative3Situation9.txt
291.073	1.785	expectation_mouse_trajectory	889.0	620.0	Discovery of dishonour of loved one	forest	Text	task-narratives/Narrative3Situation9.txt
295.74	22.447	narrative_presentation	n/a	n/a	Slaying of kin unrecognized	town	Text	task-narratives/Narrative4Situation1.txt
318.187	2.552	rating_feeling	731.0	452.0	Slaying of kin unrecognized	town	Text	task-narratives/Narrative4Situation1.txt
318.737	2.002	feeling_mouse_trajectory	731.0	452.0	Slaying of kin unrecognized	town	Text	task-narratives/Narrative4Situation1.txt
322.201	3.917	rating_expectation	889.0	620.0	Slaying of kin unrecognized	town	Text	task-narratives/Narrative4Situation1.txt
323.485	2.633	expectation_mouse_trajectory	889.0	620.0	Slaying of kin unrecognized	town	Text	task-narratives/Narrative4Situation1.txt
331.27	24.796	narrative_presentation	n/a	n/a	Adultery	swamp	Text	task-narratives/Narrative4Situation2.txt
356.066	3.05	rating_feeling	731.0	452.0	Adultery	swamp	Text	task-narratives/Narrative4Situation2.txt
356.816	2.3	feeling_mouse_trajectory	731.0	452.0	Adultery	swamp	Text	task-narratives/Narrative4Situation2.txt
360.085	0.019	rating_expectation	889.0	620.0	Adultery	swamp	Text	task-narratives/Narrative4Situation2.txt
360.135	-0.031	expectation_mouse_trajectory	889.0	620.0	Adultery	swamp	Text	task-narratives/Narrative4Situation2.txt
366.149	21.111	narrative_presentation	n/a	n/a	Revolt	town	Text	task-narratives/Narrative4Situation3.txt
387.26	3.976	rating_feeling	731.0	452.0	Revolt	town	Text	task-narratives/Narrative4Situation3.txt
387.96	3.276	feeling_mouse_trajectory	731.0	452.0	Revolt	town	Text	task-narratives/Narrative4Situation3.txt
391.285	0.017	rating_expectation	889.0	620.0	Revolt	town	Text	task-narratives/Narrative4Situation3.txt
n/a	n/a	expectation_mouse_trajectory	889.0	620.0	Revolt	town	Text	task-narratives/Narrative4Situation3.txt
396.36	21.111	narrative_presentation	n/a	n/a	Fatal imprudence	hospital	Text	task-narratives/Narrative4Situation4.txt
417.472	3.702	rating_feeling	731.0	452.0	Fatal imprudence	hospital	Text	task-narratives/Narrative4Situation4.txt
417.572	3.602	feeling_mouse_trajectory	731.0	452.0	Fatal imprudence	hospital	Text	task-narratives/Narrative4Situation4.txt
421.488	3.933	rating_expectation	889.0	620.0	Fatal imprudence	hospital	Text	task-narratives/Narrative4Situation4.txt
425.422	0.0	expectation_mouse_trajectory	889.0	620.0	Fatal imprudence	hospital	Text	task-narratives/Narrative4Situation4.txt
426.555	25.798	narrative_presentation	n/a	n/a	Deliverance	city	Text	task-narratives/Narrative4Situation5.txt
452.353	2.952	rating_feeling	731.0	452.0	Deliverance	city	Text	task-narratives/Narrative4Situation5.txt
453.07	2.235	feeling_mouse_trajectory	731.0	452.0	Deliverance	city	Text	task-narratives/Narrative4Situation5.txt
456.368	3.933	rating_expectation	889.0	620.0	Deliverance	city	Text	task-narratives/Narrative4Situation5.txt
459.785	0.517	expectation_mouse_trajectory	889.0	620.0	Deliverance	city	Text	task-narratives/Narrative4Situation5.txt
461.435	23.445	narrative_presentation	n/a	n/a	Necessity of sacrificing loved ones	hospital	Text	task-narratives/Narrative4Situation6.txt
484.88	3.906	rating_feeling	731.0	452.0	Necessity of sacrificing loved ones	hospital	Text	task-narratives/Narrative4Situation6.txt
485.53	3.256	feeling_mouse_trajectory	731.0	452.0	Necessity of sacrificing loved ones	hospital	Text	task-narratives/Narrative4Situation6.txt
488.902	3.517	rating_expectation	889.0	620.0	Necessity of sacrificing loved ones	hospital	Text	task-narratives/Narrative4Situation6.txt
490.685	1.733	expectation_mouse_trajectory	889.0	620.0	Necessity of sacrificing loved ones	hospital	Text	task-narratives/Narrative4Situation6.txt
493.964	19.093	narrative_presentation	n/a	n/a	Loss of loved one	forest	Text	task-narratives/Narrative4Situation7.txt
513.057	3.702	rating_feeling	731.0	452.0	Loss of loved one	forest	Text	task-narratives/Narrative4Situation7.txt
513.84	2.918	feeling_mouse_trajectory	731.0	452.0	Loss of loved one	forest	Text	task-narratives/Narrative4Situation7.txt
517.074	3.983	rating_expectation	889.0	620.0	Loss of loved one	forest	Text	task-narratives/Narrative4Situation7.txt
519.274	1.783	expectation_mouse_trajectory	889.0	620.0	Loss of loved one	forest	Text	task-narratives/Narrative4Situation7.txt
522.157	38.534	narrative_presentation	n/a	n/a	Crimes of love	prison	Text	task-narratives/Narrative4Situation8.txt
560.692	n/a	rating_feeling	731.0	452.0	Crimes of love	prison	Text	task-narratives/Narrative4Situation8.txt
n/a	n/a	feeling_mouse_trajectory	731.0	452.0	Crimes of love	prison	Text	task-narratives/Narrative4Situation8.txt
564.718	n/a	rating_expectation	889.0	620.0	Crimes of love	prison	Text	task-narratives/Narrative4Situation8.txt
n/a	n/a	expectation_mouse_trajectory	889.0	620.0	Crimes of love	prison	Text	task-narratives/Narrative4Situation8.txt
573.793	12.394	narrative_presentation	n/a	n/a	Discovery of dishonour of loved one	forest	Text	task-narratives/Narrative4Situation9.txt
586.187	3.817	rating_feeling	731.0	452.0	Discovery of dishonour of loved one	forest	Text	task-narratives/Narrative4Situation9.txt
586.504	3.5	feeling_mouse_trajectory	731.0	452.0	Discovery of dishonour of loved one	forest	Text	task-narratives/Narrative4Situation9.txt
590.201	3.967	rating_expectation	889.0	620.0	Discovery of dishonour of loved one	forest	Text	task-narratives/Narrative4Situation9.txt
590.285	3.883	expectation_mouse_trajectory	889.0	620.0	Discovery of dishonour of loved one	forest	Text	task-narratives/Narrative4Situation9.txt
