onset	duration	run_type	trial_type	trial_index	cue	stimulusintensity	rating_value	rating_glmslabel	rating_value_fillna	rating_glmslabel_fillna	rating_mouseonset	rating_mousedur	stim_file	pain_onset_ttl1	pain_onset_ttl2	pain_onset_ttl3	pain_onset_ttl4	pain_stimulus_delivery_success	cognitive_correct_response	cognitive_participant_response	cognitive_response_accuracy
5.69	0.99	vicarious	cue	1	low_cue	n/a	n/a	n/a	n/a	n/a	n/a	n/a	task-social/cue/runtype-vicarious/scl/l004.png	n/a	n/a	n/a	n/a	n/a	n/a	n/a	n/a
7.7	3.5	vicarious	expectrating	1	low_cue	n/a	13.7	Moderate	13.7	Moderate	0.2	3.3	task-social/cue/runtype-vicarious/scl/l004.png	n/a	n/a	n/a	n/a	n/a	n/a	n/a	n/a
15.68	5.0	vicarious	stimulus	1	low_cue	med_stim	n/a	n/a	n/a	n/a	n/a	n/a	task-social/stim/runtype-vicarious/ll042t1afunaff_M.mp4	n/a	n/a	n/a	n/a	n/a	n/a	n/a	n/a
27.93	1.75	vicarious	outcomerating	1	low_cue	med_stim	2.54	Barely-detectable	2.54	Barely-detectable	0.2	3.3	task-social/outcomerating/task-vicarious_scale.png	n/a	n/a	n/a	n/a	n/a	n/a	n/a	n/a
33.4	0.98	vicarious	cue	2	low_cue	n/a	n/a	n/a	n/a	n/a	n/a	n/a	task-social/cue/runtype-vicarious/scl/l029.png	n/a	n/a	n/a	n/a	n/a	n/a	n/a	n/a
35.7	2.53	vicarious	expectrating	2	low_cue	n/a	8.1	Weak	8.1	Weak	1.07	1.46	task-social/cue/runtype-vicarious/scl/l029.png	n/a	n/a	n/a	n/a	n/a	n/a	n/a	n/a
46.48	5.0	vicarious	stimulus	2	low_cue	low_stim	n/a	n/a	n/a	n/a	n/a	n/a	task-social/stim/runtype-vicarious/mg066t2aeunaff_L.mp4	n/a	n/a	n/a	n/a	n/a	n/a	n/a	n/a
55.41	2.23	vicarious	outcomerating	2	low_cue	low_stim	4.88	Weak	4.88	Weak	1.07	1.46	task-social/outcomerating/task-vicarious_scale.png	n/a	n/a	n/a	n/a	n/a	n/a	n/a	n/a
71.09	0.99	vicarious	cue	3	low_cue	n/a	n/a	n/a	n/a	n/a	n/a	n/a	task-social/cue/runtype-vicarious/scl/l043.png	n/a	n/a	n/a	n/a	n/a	n/a	n/a	n/a
73.4	2.9	vicarious	expectrating	3	low_cue	n/a	6.21	Weak	6.21	Weak	0.5	2.4	task-social/cue/runtype-vicarious/scl/l043.png	n/a	n/a	n/a	n/a	n/a	n/a	n/a	n/a
84.18	5.0	vicarious	stimulus	3	low_cue	high_stim	n/a	n/a	n/a	n/a	n/a	n/a	task-social/stim/runtype-vicarious/gf097t2aaunaff_H.mp4	n/a	n/a	n/a	n/a	n/a	n/a	n/a	n/a
93.3	3.54	vicarious	outcomerating	3	low_cue	high_stim	9.01	Weak	9.01	Weak	0.5	2.4	task-social/outcomerating/task-vicarious_scale.png	n/a	n/a	n/a	n/a	n/a	n/a	n/a	n/a
100.69	0.99	vicarious	cue	4	high_cue	n/a	n/a	n/a	n/a	n/a	n/a	n/a	task-social/cue/runtype-vicarious/sch/h017.png	n/a	n/a	n/a	n/a	n/a	n/a	n/a	n/a
103.51	1.5	vicarious	expectrating	4	high_cue	n/a	32.91	Strong	32.91	Strong	0.05	1.45	task-social/cue/runtype-vicarious/sch/h017.png	n/a	n/a	n/a	n/a	n/a	n/a	n/a	n/a
114.78	5.0	vicarious	stimulus	4	high_cue	low_stim	n/a	n/a	n/a	n/a	n/a	n/a	task-social/stim/runtype-vicarious/aa048t2aaunaff_L.mp4	n/a	n/a	n/a	n/a	n/a	n/a	n/a	n/a
124.7	1.42	vicarious	outcomerating	4	high_cue	low_stim	12.13	Moderate	12.13	Moderate	0.05	1.45	task-social/outcomerating/task-vicarious_scale.png	n/a	n/a	n/a	n/a	n/a	n/a	n/a	n/a
135.8	0.98	vicarious	cue	5	high_cue	n/a	n/a	n/a	n/a	n/a	n/a	n/a	task-social/cue/runtype-vicarious/sch/h040.png	n/a	n/a	n/a	n/a	n/a	n/a	n/a	n/a
137.5	1.87	vicarious	expectrating	5	high_cue	n/a	37.26	Strong	37.26	Strong	0.4	1.47	task-social/cue/runtype-vicarious/sch/h040.png	n/a	n/a	n/a	n/a	n/a	n/a	n/a	n/a
149.79	5.0	vicarious	stimulus	5	high_cue	med_stim	n/a	n/a	n/a	n/a	n/a	n/a	task-social/stim/runtype-vicarious/th108t2aaunaff_M.mp4	n/a	n/a	n/a	n/a	n/a	n/a	n/a	n/a
159.71	1.57	vicarious	outcomerating	5	high_cue	med_stim	7.5	Weak	7.5	Weak	0.4	1.47	task-social/outcomerating/task-vicarious_scale.png	n/a	n/a	n/a	n/a	n/a	n/a	n/a	n/a
170.6	0.98	vicarious	cue	6	high_cue	n/a	n/a	n/a	n/a	n/a	n/a	n/a	task-social/cue/runtype-vicarious/sch/h018.png	n/a	n/a	n/a	n/a	n/a	n/a	n/a	n/a
172.4	2.27	vicarious	expectrating	6	high_cue	n/a	31.41	Strong	31.41	Strong	0.55	1.72	task-social/cue/runtype-vicarious/sch/h018.png	n/a	n/a	n/a	n/a	n/a	n/a	n/a	n/a
180.98	5.0	vicarious	stimulus	6	high_cue	high_stim	n/a	n/a	n/a	n/a	n/a	n/a	task-social/stim/runtype-vicarious/jl047t1aiaff_H.mp4	n/a	n/a	n/a	n/a	n/a	n/a	n/a	n/a
190.91	2.58	vicarious	outcomerating	6	high_cue	high_stim	4.6	Weak	4.6	Weak	0.55	1.72	task-social/outcomerating/task-vicarious_scale.png	n/a	n/a	n/a	n/a	n/a	n/a	n/a	n/a
196.89	0.99	vicarious	cue	7	high_cue	n/a	n/a	n/a	n/a	n/a	n/a	n/a	task-social/cue/runtype-vicarious/sch/h024.png	n/a	n/a	n/a	n/a	n/a	n/a	n/a	n/a
199.89	2.03	vicarious	expectrating	7	high_cue	n/a	32.56	Strong	32.56	Strong	0.05	1.98	task-social/cue/runtype-vicarious/sch/h024.png	n/a	n/a	n/a	n/a	n/a	n/a	n/a	n/a
212.18	5.0	vicarious	stimulus	7	high_cue	low_stim	n/a	n/a	n/a	n/a	n/a	n/a	task-social/stim/runtype-vicarious/ll042t1aaunaff_L.mp4	n/a	n/a	n/a	n/a	n/a	n/a	n/a	n/a
231.0	2.04	vicarious	outcomerating	7	high_cue	low_stim	9.69	Weak	9.69	Weak	0.05	1.98	task-social/outcomerating/task-vicarious_scale.png	n/a	n/a	n/a	n/a	n/a	n/a	n/a	n/a
236.99	0.99	vicarious	cue	8	low_cue	n/a	n/a	n/a	n/a	n/a	n/a	n/a	task-social/cue/runtype-vicarious/scl/l002.png	n/a	n/a	n/a	n/a	n/a	n/a	n/a	n/a
239.69	1.85	vicarious	expectrating	8	low_cue	n/a	2.54	Barely-detectable	2.54	Barely-detectable	0.53	1.32	task-social/cue/runtype-vicarious/scl/l002.png	n/a	n/a	n/a	n/a	n/a	n/a	n/a	n/a
251.28	5.0	vicarious	stimulus	8	low_cue	high_stim	n/a	n/a	n/a	n/a	n/a	n/a	task-social/stim/runtype-vicarious/aa048t2aeaff_H.mp4	n/a	n/a	n/a	n/a	n/a	n/a	n/a	n/a
259.3	1.43	vicarious	outcomerating	8	low_cue	high_stim	0.0	n/a	0.0	n/a	0.53	1.32	task-social/outcomerating/task-vicarious_scale.png	n/a	n/a	n/a	n/a	n/a	n/a	n/a	n/a
268.28	0.99	vicarious	cue	9	high_cue	n/a	n/a	n/a	n/a	n/a	n/a	n/a	task-social/cue/runtype-vicarious/sch/h046.png	n/a	n/a	n/a	n/a	n/a	n/a	n/a	n/a
271.3	3.75	vicarious	expectrating	9	high_cue	n/a	15.54	Moderate	15.54	Moderate	0.92	2.84	task-social/cue/runtype-vicarious/sch/h046.png	n/a	n/a	n/a	n/a	n/a	n/a	n/a	n/a
279.18	5.0	vicarious	stimulus	9	high_cue	high_stim	n/a	n/a	n/a	n/a	n/a	n/a	task-social/stim/runtype-vicarious/ll042t1aiaff_H.mp4	n/a	n/a	n/a	n/a	n/a	n/a	n/a	n/a
295.7	1.5	vicarious	outcomerating	9	high_cue	high_stim	28.8	Moderate	28.8	Moderate	0.92	2.84	task-social/outcomerating/task-vicarious_scale.png	n/a	n/a	n/a	n/a	n/a	n/a	n/a	n/a
301.9	0.98	vicarious	cue	10	low_cue	n/a	n/a	n/a	n/a	n/a	n/a	n/a	task-social/cue/runtype-vicarious/scl/l008.png	n/a	n/a	n/a	n/a	n/a	n/a	n/a	n/a
304.2	1.28	vicarious	expectrating	10	low_cue	n/a	3.49	Weak	3.49	Weak	0.18	1.1	task-social/cue/runtype-vicarious/scl/l008.png	n/a	n/a	n/a	n/a	n/a	n/a	n/a	n/a
316.48	5.0	vicarious	stimulus	10	low_cue	med_stim	n/a	n/a	n/a	n/a	n/a	n/a	task-social/stim/runtype-vicarious/jy115t1aeaff_M.mp4	n/a	n/a	n/a	n/a	n/a	n/a	n/a	n/a
327.71	1.87	vicarious	outcomerating	10	low_cue	med_stim	24.91	Moderate	24.91	Moderate	0.18	1.1	task-social/outcomerating/task-vicarious_scale.png	n/a	n/a	n/a	n/a	n/a	n/a	n/a	n/a
333.89	0.99	vicarious	cue	11	high_cue	n/a	n/a	n/a	n/a	n/a	n/a	n/a	task-social/cue/runtype-vicarious/sch/h056.png	n/a	n/a	n/a	n/a	n/a	n/a	n/a	n/a
336.89	1.75	vicarious	expectrating	11	high_cue	n/a	42.72	Strong	42.72	Strong	0.15	1.6	task-social/cue/runtype-vicarious/sch/h056.png	n/a	n/a	n/a	n/a	n/a	n/a	n/a	n/a
349.18	5.0	vicarious	stimulus	11	high_cue	med_stim	n/a	n/a	n/a	n/a	n/a	n/a	task-social/stim/runtype-vicarious/gf097t1aiaff_M.mp4	n/a	n/a	n/a	n/a	n/a	n/a	n/a	n/a
361.6	3.07	vicarious	outcomerating	11	high_cue	med_stim	14.89	Moderate	14.89	Moderate	0.15	1.6	task-social/outcomerating/task-vicarious_scale.png	n/a	n/a	n/a	n/a	n/a	n/a	n/a	n/a
372.49	0.99	vicarious	cue	12	low_cue	n/a	n/a	n/a	n/a	n/a	n/a	n/a	task-social/cue/runtype-vicarious/scl/l032.png	n/a	n/a	n/a	n/a	n/a	n/a	n/a	n/a
375.49	n/a	vicarious	expectrating	12	low_cue	n/a	n/a	n/a	15.59	Moderate	0.07	3.97	task-social/cue/runtype-vicarious/scl/l032.png	n/a	n/a	n/a	n/a	n/a	n/a	n/a	n/a
383.38	5.0	vicarious	stimulus	12	low_cue	low_stim	n/a	n/a	n/a	n/a	n/a	n/a	task-social/stim/runtype-vicarious/jy115t1aaunaff_L.mp4	n/a	n/a	n/a	n/a	n/a	n/a	n/a	n/a
394.7	1.3	vicarious	outcomerating	12	low_cue	low_stim	3.99	Weak	3.99	Weak	0.07	3.97	task-social/outcomerating/task-vicarious_scale.png	n/a	n/a	n/a	n/a	n/a	n/a	n/a	n/a
