onset	duration	run_type	trial_type	trial_index	cue	stimulusintensity	rating_value	rating_glmslabel	rating_value_fillna	rating_glmslabel_fillna	rating_mouseonset	rating_mousedur	stim_file	pain_onset_ttl1	pain_onset_ttl2	pain_onset_ttl3	pain_onset_ttl4	pain_stimulus_delivery_success	cognitive_correct_response	cognitive_participant_response	cognitive_response_accuracy
5.5	1.0	pain	cue	1	low_cue	n/a	n/a	n/a	n/a	n/a	n/a	n/a	task-social/cue/runtype-pain/scl/l038.png	n/a	n/a	n/a	n/a	n/a	n/a	n/a	n/a
7.52	2.59	pain	expectrating	1	low_cue	n/a	6.98	Weak	6.98	Weak	1.38	1.21	task-social/cue/runtype-pain/scl/l038.png	n/a	n/a	n/a	n/a	n/a	n/a	n/a	n/a
16.27	12.36	pain	stimulus	1	low_cue	med_stim	n/a	n/a	n/a	n/a	n/a	n/a	n/a	16.27	20.03	25.03	28.64	success	n/a	n/a	n/a
28.11	2.68	pain	outcomerating	1	low_cue	med_stim	67.33	Very-Strong	67.33	Very-Strong	1.38	1.21	task-social/outcomerating/task-pain_scale.png	n/a	n/a	n/a	n/a	success	n/a	n/a	n/a
33.8	1.0	pain	cue	2	low_cue	n/a	n/a	n/a	n/a	n/a	n/a	n/a	task-social/cue/runtype-pain/scl/l048.png	n/a	n/a	n/a	n/a	n/a	n/a	n/a	n/a
36.1	1.72	pain	expectrating	2	low_cue	n/a	7.38	Weak	7.38	Weak	0.43	1.28	task-social/cue/runtype-pain/scl/l048.png	n/a	n/a	n/a	n/a	n/a	n/a	n/a	n/a
47.64	11.899999999999999	pain	stimulus	2	low_cue	low_stim	n/a	n/a	n/a	n/a	n/a	n/a	n/a	47.64	51.14	56.14	59.54	success	n/a	n/a	n/a
58.51	3.54	pain	outcomerating	2	low_cue	low_stim	45.16	Strong	45.16	Strong	0.43	1.28	task-social/outcomerating/task-pain_scale.png	n/a	n/a	n/a	n/a	success	n/a	n/a	n/a
74.2	1.0	pain	cue	3	low_cue	n/a	n/a	n/a	n/a	n/a	n/a	n/a	task-social/cue/runtype-pain/scl/l015.png	n/a	n/a	n/a	n/a	n/a	n/a	n/a	n/a
76.51	2.83	pain	expectrating	3	low_cue	n/a	22.12	Moderate	22.12	Moderate	0.7	2.13	task-social/cue/runtype-pain/scl/l015.png	n/a	n/a	n/a	n/a	n/a	n/a	n/a	n/a
85.33	12.829999999999998	pain	stimulus	3	low_cue	high_stim	n/a	n/a	n/a	n/a	n/a	n/a	n/a	85.33	89.34	94.34	98.15	success	n/a	n/a	n/a
96.4	n/a	pain	outcomerating	3	low_cue	high_stim	n/a	n/a	51.84	Strong	0.7	2.13	task-social/outcomerating/task-pain_scale.png	n/a	n/a	n/a	n/a	success	n/a	n/a	n/a
103.81	1.0	pain	cue	4	high_cue	n/a	n/a	n/a	n/a	n/a	n/a	n/a	task-social/cue/runtype-pain/sch/h017.png	n/a	n/a	n/a	n/a	n/a	n/a	n/a	n/a
106.61	2.64	pain	expectrating	4	high_cue	n/a	88.81	Very-Strong	88.81	Very-Strong	0.08	2.55	task-social/cue/runtype-pain/sch/h017.png	n/a	n/a	n/a	n/a	n/a	n/a	n/a	n/a
113.25	11.900000000000006	pain	stimulus	4	high_cue	low_stim	n/a	n/a	n/a	n/a	n/a	n/a	n/a	113.25	116.75	121.75	125.15	success	n/a	n/a	n/a
127.42	3.52	pain	outcomerating	4	high_cue	low_stim	89.54	Very-Strong	89.54	Very-Strong	0.08	2.55	task-social/outcomerating/task-pain_scale.png	n/a	n/a	n/a	n/a	success	n/a	n/a	n/a
138.3	1.0	pain	cue	5	high_cue	n/a	n/a	n/a	n/a	n/a	n/a	n/a	task-social/cue/runtype-pain/sch/h046.png	n/a	n/a	n/a	n/a	n/a	n/a	n/a	n/a
140.0	1.69	pain	expectrating	5	high_cue	n/a	93.71	Very-Strong	93.71	Very-Strong	0.05	1.64	task-social/cue/runtype-pain/sch/h046.png	n/a	n/a	n/a	n/a	n/a	n/a	n/a	n/a
153.04	12.360000000000014	pain	stimulus	5	high_cue	med_stim	n/a	n/a	n/a	n/a	n/a	n/a	n/a	153.04	156.8	161.8	165.41	success	n/a	n/a	n/a
167.21	n/a	pain	outcomerating	5	high_cue	med_stim	n/a	n/a	60.95	Strong	0.05	1.64	task-social/outcomerating/task-pain_scale.png	n/a	n/a	n/a	n/a	success	n/a	n/a	n/a
178.1	1.0	pain	cue	6	high_cue	n/a	n/a	n/a	n/a	n/a	n/a	n/a	task-social/cue/runtype-pain/sch/h052.png	n/a	n/a	n/a	n/a	n/a	n/a	n/a	n/a
179.9	3.82	pain	expectrating	6	high_cue	n/a	79.19	Very-Strong	79.19	Very-Strong	0.07	3.76	task-social/cue/runtype-pain/sch/h052.png	n/a	n/a	n/a	n/a	n/a	n/a	n/a	n/a
186.52	12.819999999999993	pain	stimulus	6	high_cue	high_stim	n/a	n/a	n/a	n/a	n/a	n/a	n/a	186.52	190.53	195.53	199.34	success	n/a	n/a	n/a
200.71	n/a	pain	outcomerating	6	high_cue	high_stim	n/a	n/a	n/a	n/a	0.07	3.76	task-social/outcomerating/task-pain_scale.png	n/a	n/a	n/a	n/a	success	n/a	n/a	n/a
206.7	1.0	pain	cue	7	high_cue	n/a	n/a	n/a	n/a	n/a	n/a	n/a	task-social/cue/runtype-pain/sch/h042.png	n/a	n/a	n/a	n/a	n/a	n/a	n/a	n/a
209.71	3.92	pain	expectrating	7	high_cue	n/a	72.44	Very-Strong	72.44	Very-Strong	0.52	3.4	task-social/cue/runtype-pain/sch/h042.png	n/a	n/a	n/a	n/a	n/a	n/a	n/a	n/a
217.33	11.909999999999997	pain	stimulus	7	high_cue	low_stim	n/a	n/a	n/a	n/a	n/a	n/a	n/a	217.33	220.83	225.83	229.23	success	n/a	n/a	n/a
235.81	n/a	pain	outcomerating	7	high_cue	low_stim	n/a	n/a	63.43	Strong	0.52	3.4	task-social/outcomerating/task-pain_scale.png	n/a	n/a	n/a	n/a	success	n/a	n/a	n/a
242.01	1.0	pain	cue	8	low_cue	n/a	n/a	n/a	n/a	n/a	n/a	n/a	task-social/cue/runtype-pain/scl/l014.png	n/a	n/a	n/a	n/a	n/a	n/a	n/a	n/a
244.71	1.83	pain	expectrating	8	low_cue	n/a	34.2	Strong	34.2	Strong	0.45	1.38	task-social/cue/runtype-pain/scl/l014.png	n/a	n/a	n/a	n/a	n/a	n/a	n/a	n/a
251.63	12.819999999999993	pain	stimulus	8	low_cue	high_stim	n/a	n/a	n/a	n/a	n/a	n/a	n/a	251.63	255.64	260.64	264.45	success	n/a	n/a	n/a
261.6	3.82	pain	outcomerating	8	low_cue	high_stim	58.29	Strong	58.29	Strong	0.45	1.38	task-social/outcomerating/task-pain_scale.png	n/a	n/a	n/a	n/a	success	n/a	n/a	n/a
270.8	1.0	pain	cue	9	high_cue	n/a	n/a	n/a	n/a	n/a	n/a	n/a	task-social/cue/runtype-pain/sch/h014.png	n/a	n/a	n/a	n/a	n/a	n/a	n/a	n/a
273.8	3.42	pain	expectrating	9	high_cue	n/a	79.24	Very-Strong	79.24	Very-Strong	0.05	3.37	task-social/cue/runtype-pain/sch/h014.png	n/a	n/a	n/a	n/a	n/a	n/a	n/a	n/a
279.73	12.819999999999993	pain	stimulus	9	high_cue	high_stim	n/a	n/a	n/a	n/a	n/a	n/a	n/a	279.73	283.74	288.74	292.55	success	n/a	n/a	n/a
300.51	3.15	pain	outcomerating	9	high_cue	high_stim	81.69	Very-Strong	81.69	Very-Strong	0.05	3.37	task-social/outcomerating/task-pain_scale.png	n/a	n/a	n/a	n/a	success	n/a	n/a	n/a
306.5	1.0	pain	cue	10	low_cue	n/a	n/a	n/a	n/a	n/a	n/a	n/a	task-social/cue/runtype-pain/scl/l053.png	n/a	n/a	n/a	n/a	n/a	n/a	n/a	n/a
308.8	1.98	pain	expectrating	10	low_cue	n/a	47.15	Strong	47.15	Strong	0.87	1.11	task-social/cue/runtype-pain/scl/l053.png	n/a	n/a	n/a	n/a	n/a	n/a	n/a	n/a
316.43	12.360000000000014	pain	stimulus	10	low_cue	med_stim	n/a	n/a	n/a	n/a	n/a	n/a	n/a	316.43	320.19	325.19	328.8	success	n/a	n/a	n/a
327.31	2.82	pain	outcomerating	10	low_cue	med_stim	52.25	Strong	52.25	Strong	0.87	1.11	task-social/outcomerating/task-pain_scale.png	n/a	n/a	n/a	n/a	success	n/a	n/a	n/a
333.51	1.0	pain	cue	11	high_cue	n/a	n/a	n/a	n/a	n/a	n/a	n/a	task-social/cue/runtype-pain/sch/h033.png	n/a	n/a	n/a	n/a	n/a	n/a	n/a	n/a
336.51	2.5	pain	expectrating	11	high_cue	n/a	52.06	Strong	52.06	Strong	0.6	1.9	task-social/cue/runtype-pain/sch/h033.png	n/a	n/a	n/a	n/a	n/a	n/a	n/a	n/a
346.86	12.370000000000005	pain	stimulus	11	high_cue	med_stim	n/a	n/a	n/a	n/a	n/a	n/a	n/a	346.86	350.62	355.62	359.23	success	n/a	n/a	n/a
361.2	2.49	pain	outcomerating	11	high_cue	med_stim	49.72	Strong	49.72	Strong	0.6	1.9	task-social/outcomerating/task-pain_scale.png	n/a	n/a	n/a	n/a	success	n/a	n/a	n/a
372.11	1.0	pain	cue	12	low_cue	n/a	n/a	n/a	n/a	n/a	n/a	n/a	task-social/cue/runtype-pain/scl/l025.png	n/a	n/a	n/a	n/a	n/a	n/a	n/a	n/a
375.11	3.69	pain	expectrating	12	low_cue	n/a	72.3	Very-Strong	72.3	Very-Strong	0.12	3.57	task-social/cue/runtype-pain/scl/l025.png	n/a	n/a	n/a	n/a	n/a	n/a	n/a	n/a
383.73	11.899999999999977	pain	stimulus	12	low_cue	low_stim	n/a	n/a	n/a	n/a	n/a	n/a	n/a	383.73	387.23	392.23	395.63	success	n/a	n/a	n/a
394.72	3.23	pain	outcomerating	12	low_cue	low_stim	108.14	Strongest-sensation-of-any-kind	108.14	Strongest-sensation-of-any-kind	0.12	3.57	task-social/outcomerating/task-pain_scale.png	n/a	n/a	n/a	n/a	success	n/a	n/a	n/a
