onset	duration	run_type	trial_type	trial_index	cue	stimulusintensity	rating_value	rating_glmslabel	rating_value_fillna	rating_glmslabel_fillna	rating_mouseonset	rating_mousedur	stim_file_TODO	pain_onset_ttl1	pain_onset_ttl2	pain_onset_ttl3	pain_onset_ttl4	pain_stimulus_delivery_success	cognitive_correct_response	cognitive_participant_response	cognitive_response_accuracy
11.6	0.98	cognitive	cue	1	low_cue	n/a	n/a	n/a	n/a	n/a	n/a	n/a	task-social/cue/runtype-cognitive/scl/l042.png	n/a	n/a	n/a	n/a	n/a	n/a	n/a	n/a
14.82	1.33	cognitive	expectrating	1	low_cue	n/a	22.8	Moderate	22.8	Moderate	0.53	0.8	task-social/cue/runtype-cognitive/scl/l042.png	n/a	n/a	n/a	n/a	n/a	n/a	n/a	n/a
21.5	5.0	cognitive	stimulus	1	low_cue	low_stim	n/a	n/a	n/a	n/a	n/a	n/a	task-social/stim/runtype-cognitive/24_50.jpg	n/a	n/a	n/a	n/a	n/a	same	same	True
36.89	2.74	cognitive	outcomerating	1	low_cue	low_stim	16.77	Moderate	16.77	Moderate	0.53	0.8	task-social/outcomerating/task-cognitive_scale.png	n/a	n/a	n/a	n/a	n/a	n/a	n/a	n/a
42.39	0.99	cognitive	cue	2	high_cue	n/a	n/a	n/a	n/a	n/a	n/a	n/a	task-social/cue/runtype-cognitive/sch/h029.png	n/a	n/a	n/a	n/a	n/a	n/a	n/a	n/a
44.19	3.02	cognitive	expectrating	2	high_cue	n/a	83.74	Very Strong	83.74	Very Strong	1.22	1.8	task-social/cue/runtype-cognitive/sch/h029.png	n/a	n/a	n/a	n/a	n/a	n/a	n/a	n/a
57.5	5.0	cognitive	stimulus	2	high_cue	med_stim	n/a	n/a	n/a	n/a	n/a	n/a	task-social/stim/runtype-cognitive/19_100_R.jpg	n/a	n/a	n/a	n/a	n/a	diff	diff	True
67.5	2.3	cognitive	outcomerating	2	high_cue	med_stim	60.77	Strong	60.77	Strong	1.22	1.8	task-social/outcomerating/task-cognitive_scale.png	n/a	n/a	n/a	n/a	n/a	n/a	n/a	n/a
74.19	0.99	cognitive	cue	3	high_cue	n/a	n/a	n/a	n/a	n/a	n/a	n/a	task-social/cue/runtype-cognitive/sch/h025.png	n/a	n/a	n/a	n/a	n/a	n/a	n/a	n/a
77.39	2.37	cognitive	expectrating	3	high_cue	n/a	87.24	Very Strong	87.24	Very Strong	0.63	1.74	task-social/cue/runtype-cognitive/sch/h025.png	n/a	n/a	n/a	n/a	n/a	n/a	n/a	n/a
85.09	5.0	cognitive	stimulus	3	high_cue	low_stim	n/a	n/a	n/a	n/a	n/a	n/a	task-social/stim/runtype-cognitive/35_50_R.jpg	n/a	n/a	n/a	n/a	n/a	diff	n/a	False
96.6	2.8	cognitive	outcomerating	3	high_cue	low_stim	53.27	Strong	53.27	Strong	0.63	1.74	task-social/outcomerating/task-cognitive_scale.png	n/a	n/a	n/a	n/a	n/a	n/a	n/a	n/a
110.58	1.0	cognitive	cue	4	high_cue	n/a	n/a	n/a	n/a	n/a	n/a	n/a	task-social/cue/runtype-cognitive/sch/h024.png	n/a	n/a	n/a	n/a	n/a	n/a	n/a	n/a
113.3	2.22	cognitive	expectrating	4	high_cue	n/a	77.34	Very Strong	77.34	Very Strong	0.47	1.75	task-social/cue/runtype-cognitive/sch/h024.png	n/a	n/a	n/a	n/a	n/a	n/a	n/a	n/a
119.99	5.0	cognitive	stimulus	4	high_cue	high_stim	n/a	n/a	n/a	n/a	n/a	n/a	task-social/stim/runtype-cognitive/19_150_R.jpg	n/a	n/a	n/a	n/a	n/a	diff	diff	True
133.19	2.05	cognitive	outcomerating	4	high_cue	high_stim	39.07	Strong	39.07	Strong	0.47	1.75	task-social/outcomerating/task-cognitive_scale.png	n/a	n/a	n/a	n/a	n/a	n/a	n/a	n/a
139.9	0.98	cognitive	cue	5	low_cue	n/a	n/a	n/a	n/a	n/a	n/a	n/a	task-social/cue/runtype-cognitive/scl/l040.png	n/a	n/a	n/a	n/a	n/a	n/a	n/a	n/a
143.1	2.15	cognitive	expectrating	5	low_cue	n/a	19.45	Moderate	19.45	Moderate	0.72	1.43	task-social/cue/runtype-cognitive/scl/l040.png	n/a	n/a	n/a	n/a	n/a	n/a	n/a	n/a
156.8	5.0	cognitive	stimulus	5	low_cue	med_stim	n/a	n/a	n/a	n/a	n/a	n/a	task-social/stim/runtype-cognitive/44_100.jpg	n/a	n/a	n/a	n/a	n/a	same	diff	False
165.69	2.04	cognitive	outcomerating	5	low_cue	med_stim	53.79	Strong	53.79	Strong	0.72	1.43	task-social/outcomerating/task-cognitive_scale.png	n/a	n/a	n/a	n/a	n/a	n/a	n/a	n/a
181.29	0.99	cognitive	cue	6	low_cue	n/a	n/a	n/a	n/a	n/a	n/a	n/a	task-social/cue/runtype-cognitive/scl/l050.png	n/a	n/a	n/a	n/a	n/a	n/a	n/a	n/a
183.7	1.87	cognitive	expectrating	6	low_cue	n/a	33.05	Strong	33.05	Strong	0.42	1.45	task-social/cue/runtype-cognitive/scl/l050.png	n/a	n/a	n/a	n/a	n/a	n/a	n/a	n/a
196.8	5.0	cognitive	stimulus	6	low_cue	high_stim	n/a	n/a	n/a	n/a	n/a	n/a	task-social/stim/runtype-cognitive/20_150_R.jpg	n/a	n/a	n/a	n/a	n/a	diff	diff	True
210.39	2.04	cognitive	outcomerating	6	low_cue	high_stim	48.12	Strong	48.12	Strong	0.42	1.45	task-social/outcomerating/task-cognitive_scale.png	n/a	n/a	n/a	n/a	n/a	n/a	n/a	n/a
216.09	0.99	cognitive	cue	7	low_cue	n/a	n/a	n/a	n/a	n/a	n/a	n/a	task-social/cue/runtype-cognitive/scl/l032.png	n/a	n/a	n/a	n/a	n/a	n/a	n/a	n/a
218.69	1.74	cognitive	expectrating	7	low_cue	n/a	8.16	Weak	8.16	Weak	0.45	1.29	task-social/cue/runtype-cognitive/scl/l032.png	n/a	n/a	n/a	n/a	n/a	n/a	n/a	n/a
235.8	5.0	cognitive	stimulus	7	low_cue	med_stim	n/a	n/a	n/a	n/a	n/a	n/a	task-social/stim/runtype-cognitive/14_100_R.jpg	n/a	n/a	n/a	n/a	n/a	diff	same	False
244.5	2.22	cognitive	outcomerating	7	low_cue	med_stim	45.16	Strong	45.16	Strong	0.45	1.29	task-social/outcomerating/task-cognitive_scale.png	n/a	n/a	n/a	n/a	n/a	n/a	n/a	n/a
250.39	0.99	cognitive	cue	8	low_cue	n/a	n/a	n/a	n/a	n/a	n/a	n/a	task-social/cue/runtype-cognitive/scl/l026.png	n/a	n/a	n/a	n/a	n/a	n/a	n/a	n/a
253.09	1.84	cognitive	expectrating	8	low_cue	n/a	21.42	Moderate	21.42	Moderate	0.53	1.31	task-social/cue/runtype-cognitive/scl/l026.png	n/a	n/a	n/a	n/a	n/a	n/a	n/a	n/a
265.79	5.0	cognitive	stimulus	8	low_cue	high_stim	n/a	n/a	n/a	n/a	n/a	n/a	task-social/stim/runtype-cognitive/24_150.jpg	n/a	n/a	n/a	n/a	n/a	same	same	True
282.7	1.62	cognitive	outcomerating	8	low_cue	high_stim	32.49	Strong	32.49	Strong	0.53	1.31	task-social/outcomerating/task-cognitive_scale.png	n/a	n/a	n/a	n/a	n/a	n/a	n/a	n/a
287.68	1.0	cognitive	cue	9	high_cue	n/a	n/a	n/a	n/a	n/a	n/a	n/a	task-social/cue/runtype-cognitive/sch/h053.png	n/a	n/a	n/a	n/a	n/a	n/a	n/a	n/a
289.5	2.2	cognitive	expectrating	9	high_cue	n/a	90.69	Very Strong	90.69	Very Strong	0.57	1.63	task-social/cue/runtype-cognitive/sch/h053.png	n/a	n/a	n/a	n/a	n/a	n/a	n/a	n/a
297.09	5.0	cognitive	stimulus	9	high_cue	low_stim	n/a	n/a	n/a	n/a	n/a	n/a	task-social/stim/runtype-cognitive/26_50.jpg	n/a	n/a	n/a	n/a	n/a	same	same	True
308.19	2.39	cognitive	outcomerating	9	high_cue	low_stim	22.68	Moderate	22.68	Moderate	0.57	1.63	task-social/outcomerating/task-cognitive_scale.png	n/a	n/a	n/a	n/a	n/a	n/a	n/a	n/a
318.0	0.98	cognitive	cue	10	high_cue	n/a	n/a	n/a	n/a	n/a	n/a	n/a	task-social/cue/runtype-cognitive/sch/h048.png	n/a	n/a	n/a	n/a	n/a	n/a	n/a	n/a
320.6	2.12	cognitive	expectrating	10	high_cue	n/a	42.4	Strong	42.4	Strong	0.67	1.45	task-social/cue/runtype-cognitive/sch/h048.png	n/a	n/a	n/a	n/a	n/a	n/a	n/a	n/a
328.2	5.0	cognitive	stimulus	10	high_cue	high_stim	n/a	n/a	n/a	n/a	n/a	n/a	task-social/stim/runtype-cognitive/44_150_R.jpg	n/a	n/a	n/a	n/a	n/a	diff	diff	True
337.5	2.85	cognitive	outcomerating	10	high_cue	high_stim	50.55	Strong	50.55	Strong	0.67	1.45	task-social/outcomerating/task-cognitive_scale.png	n/a	n/a	n/a	n/a	n/a	n/a	n/a	n/a
343.89	0.99	cognitive	cue	11	high_cue	n/a	n/a	n/a	n/a	n/a	n/a	n/a	task-social/cue/runtype-cognitive/sch/h056.png	n/a	n/a	n/a	n/a	n/a	n/a	n/a	n/a
345.69	2.82	cognitive	expectrating	11	high_cue	n/a	92.36	Very Strong	92.36	Very Strong	1.08	1.74	task-social/cue/runtype-cognitive/sch/h056.png	n/a	n/a	n/a	n/a	n/a	n/a	n/a	n/a
357.79	5.0	cognitive	stimulus	11	high_cue	med_stim	n/a	n/a	n/a	n/a	n/a	n/a	task-social/stim/runtype-cognitive/35_100_R.jpg	n/a	n/a	n/a	n/a	n/a	diff	diff	True
366.7	1.5	cognitive	outcomerating	11	high_cue	med_stim	44.02	Strong	44.02	Strong	1.08	1.74	task-social/outcomerating/task-cognitive_scale.png	n/a	n/a	n/a	n/a	n/a	n/a	n/a	n/a
374.8	0.98	cognitive	cue	12	low_cue	n/a	n/a	n/a	n/a	n/a	n/a	n/a	task-social/cue/runtype-cognitive/scl/l021.png	n/a	n/a	n/a	n/a	n/a	n/a	n/a	n/a
376.7	2.32	cognitive	expectrating	12	low_cue	n/a	29.23	Strong	29.23	Strong	0.53	1.78	task-social/cue/runtype-cognitive/scl/l021.png	n/a	n/a	n/a	n/a	n/a	n/a	n/a	n/a
384.29	5.0	cognitive	stimulus	12	low_cue	low_stim	n/a	n/a	n/a	n/a	n/a	n/a	task-social/stim/runtype-cognitive/20_50_R.jpg	n/a	n/a	n/a	n/a	n/a	diff	diff	True
394.81	2.9	cognitive	outcomerating	12	low_cue	low_stim	46.14	Strong	46.14	Strong	0.53	1.78	task-social/outcomerating/task-cognitive_scale.png	n/a	n/a	n/a	n/a	n/a	n/a	n/a	n/a
