onset	duration	run_type	trial_type	trial_index	cue	stimulusintensity	rating_value	rating_glmslabel	rating_value_fillna	rating_glmslabel_fillna	rating_mouseonset	rating_mousedur	stim_file_TODO	pain_onset_ttl1	pain_onset_ttl2	pain_onset_ttl3	pain_onset_ttl4	pain_stimulus_delivery_success	cognitive_correct_response	cognitive_participant_response	cognitive_response_accuracy
3.89	1.0	pain	cue	1	high_cue	n/a	n/a	n/a	n/a	n/a	n/a	n/a	task-social/cue/runtype-pain/sch/h032.png	n/a	n/a	n/a	n/a	n/a	n/a	n/a	n/a
6.11	1.47	pain	expectrating	1	high_cue	n/a	44.02	Strong	44.02	Strong	0.37	1.1	task-social/cue/runtype-pain/sch/h032.png	n/a	n/a	n/a	n/a	n/a	n/a	n/a	n/a
14.82	11.899999999999999	pain	stimulus	1	high_cue	low_stim	n/a	n/a	n/a	n/a	n/a	n/a	n/a	14.82	18.32	23.32	26.72	success	n/a	n/a	n/a
29.0	3.37	pain	outcomerating	1	high_cue	low_stim	12.63	Moderate	12.63	Moderate	0.37	1.1	task-social/outcomerating/task-pain_scale.png	n/a	n/a	n/a	n/a	success	n/a	n/a	n/a
33.59	1.0	pain	cue	2	low_cue	n/a	n/a	n/a	n/a	n/a	n/a	n/a	task-social/cue/runtype-pain/scl/l014.png	n/a	n/a	n/a	n/a	n/a	n/a	n/a	n/a
36.0	2.58	pain	expectrating	2	low_cue	n/a	3.58	Weak	3.58	Weak	1.12	1.47	task-social/cue/runtype-pain/scl/l014.png	n/a	n/a	n/a	n/a	n/a	n/a	n/a	n/a
47.84	12.369999999999997	pain	stimulus	2	low_cue	med_stim	n/a	n/a	n/a	n/a	n/a	n/a	n/a	47.84	51.6	56.6	60.21	success	n/a	n/a	n/a
59.9	2.43	pain	outcomerating	2	low_cue	med_stim	11.81	Moderate	11.81	Moderate	1.12	1.47	task-social/outcomerating/task-pain_scale.png	n/a	n/a	n/a	n/a	success	n/a	n/a	n/a
65.1	1.0	pain	cue	3	high_cue	n/a	n/a	n/a	n/a	n/a	n/a	n/a	task-social/cue/runtype-pain/sch/h033.png	n/a	n/a	n/a	n/a	n/a	n/a	n/a	n/a
67.3	2.76	pain	expectrating	3	high_cue	n/a	14.37	Moderate	14.37	Moderate	0.52	2.24	task-social/cue/runtype-pain/sch/h033.png	n/a	n/a	n/a	n/a	n/a	n/a	n/a	n/a
71.91	11.900000000000006	pain	stimulus	3	high_cue	low_stim	n/a	n/a	n/a	n/a	n/a	n/a	n/a	71.91	75.41	80.41	83.81	success	n/a	n/a	n/a
82.4	2.2	pain	outcomerating	3	high_cue	low_stim	8.51	Weak	8.51	Weak	0.52	2.24	task-social/outcomerating/task-pain_scale.png	n/a	n/a	n/a	n/a	success	n/a	n/a	n/a
87.49	1.0	pain	cue	4	low_cue	n/a	n/a	n/a	n/a	n/a	n/a	n/a	task-social/cue/runtype-pain/scl/l023.png	n/a	n/a	n/a	n/a	n/a	n/a	n/a	n/a
90.99	1.7	pain	expectrating	4	low_cue	n/a	7.96	Weak	7.96	Weak	0.58	1.12	task-social/cue/runtype-pain/scl/l023.png	n/a	n/a	n/a	n/a	n/a	n/a	n/a	n/a
104.01	12.36	pain	stimulus	4	low_cue	med_stim	n/a	n/a	n/a	n/a	n/a	n/a	n/a	104.01	107.77	112.77	116.38	success	n/a	n/a	n/a
119.2	2.24	pain	outcomerating	4	low_cue	med_stim	7.24	Weak	7.24	Weak	0.58	1.12	task-social/outcomerating/task-pain_scale.png	n/a	n/a	n/a	n/a	success	n/a	n/a	n/a
124.29	1.0	pain	cue	5	high_cue	n/a	n/a	n/a	n/a	n/a	n/a	n/a	task-social/cue/runtype-pain/sch/h017.png	n/a	n/a	n/a	n/a	n/a	n/a	n/a	n/a
126.0	2.95	pain	expectrating	5	high_cue	n/a	48.25	Strong	48.25	Strong	0.47	2.49	task-social/cue/runtype-pain/sch/h017.png	n/a	n/a	n/a	n/a	n/a	n/a	n/a	n/a
130.63	12.830000000000013	pain	stimulus	5	high_cue	high_stim	n/a	n/a	n/a	n/a	n/a	n/a	n/a	130.63	134.64	139.64	143.45	success	n/a	n/a	n/a
145.79	3.39	pain	outcomerating	5	high_cue	high_stim	20.04	Moderate	20.04	Moderate	0.47	2.49	task-social/outcomerating/task-pain_scale.png	n/a	n/a	n/a	n/a	success	n/a	n/a	n/a
150.4	1.0	pain	cue	6	low_cue	n/a	n/a	n/a	n/a	n/a	n/a	n/a	task-social/cue/runtype-pain/scl/l028.png	n/a	n/a	n/a	n/a	n/a	n/a	n/a	n/a
153.9	2.32	pain	expectrating	6	low_cue	n/a	3.56	Weak	3.56	Weak	1.13	1.19	task-social/cue/runtype-pain/scl/l028.png	n/a	n/a	n/a	n/a	n/a	n/a	n/a	n/a
159.74	11.899999999999977	pain	stimulus	6	low_cue	low_stim	n/a	n/a	n/a	n/a	n/a	n/a	n/a	159.74	163.24	168.24	171.64	success	n/a	n/a	n/a
173.91	2.1	pain	outcomerating	6	low_cue	low_stim	6.67	Weak	6.67	Weak	1.13	1.19	task-social/outcomerating/task-pain_scale.png	n/a	n/a	n/a	n/a	success	n/a	n/a	n/a
183.49	1.0	pain	cue	7	low_cue	n/a	n/a	n/a	n/a	n/a	n/a	n/a	task-social/cue/runtype-pain/scl/l049.png	n/a	n/a	n/a	n/a	n/a	n/a	n/a	n/a
185.69	2.03	pain	expectrating	7	low_cue	n/a	0.0	n/a	0.0	n/a	0.58	1.45	task-social/cue/runtype-pain/scl/l049.png	n/a	n/a	n/a	n/a	n/a	n/a	n/a	n/a
197.96	12.819999999999993	pain	stimulus	7	low_cue	high_stim	n/a	n/a	n/a	n/a	n/a	n/a	n/a	197.96	201.97	206.97	210.78	success	n/a	n/a	n/a
213.2	2.75	pain	outcomerating	7	low_cue	high_stim	28.0	Moderate	28.0	Moderate	0.58	1.45	task-social/outcomerating/task-pain_scale.png	n/a	n/a	n/a	n/a	success	n/a	n/a	n/a
223.39	1.0	pain	cue	8	low_cue	n/a	n/a	n/a	n/a	n/a	n/a	n/a	task-social/cue/runtype-pain/scl/l004.png	n/a	n/a	n/a	n/a	n/a	n/a	n/a	n/a
225.59	2.47	pain	expectrating	8	low_cue	n/a	7.84	Weak	7.84	Weak	0.63	1.83	task-social/cue/runtype-pain/scl/l004.png	n/a	n/a	n/a	n/a	n/a	n/a	n/a	n/a
230.24	11.899999999999977	pain	stimulus	8	low_cue	low_stim	n/a	n/a	n/a	n/a	n/a	n/a	n/a	230.24	233.74	238.74	242.14	success	n/a	n/a	n/a
245.5	2.02	pain	outcomerating	8	low_cue	low_stim	13.42	Moderate	13.42	Moderate	0.63	1.83	task-social/outcomerating/task-pain_scale.png	n/a	n/a	n/a	n/a	success	n/a	n/a	n/a
259.3	0.98	pain	cue	9	high_cue	n/a	n/a	n/a	n/a	n/a	n/a	n/a	task-social/cue/runtype-pain/sch/h045.png	n/a	n/a	n/a	n/a	n/a	n/a	n/a	n/a
262.81	1.93	pain	expectrating	9	high_cue	n/a	41.83	Strong	41.83	Strong	0.68	1.25	task-social/cue/runtype-pain/sch/h045.png	n/a	n/a	n/a	n/a	n/a	n/a	n/a	n/a
275.82	12.819999999999993	pain	stimulus	9	high_cue	high_stim	n/a	n/a	n/a	n/a	n/a	n/a	n/a	275.82	279.83	284.83	288.64	success	n/a	n/a	n/a
287.9	3.66	pain	outcomerating	9	high_cue	high_stim	31.0	Strong	31.0	Strong	0.68	1.25	task-social/outcomerating/task-pain_scale.png	n/a	n/a	n/a	n/a	success	n/a	n/a	n/a
294.1	1.0	pain	cue	10	low_cue	n/a	n/a	n/a	n/a	n/a	n/a	n/a	task-social/cue/runtype-pain/scl/l055.png	n/a	n/a	n/a	n/a	n/a	n/a	n/a	n/a
296.5	2.7	pain	expectrating	10	low_cue	n/a	6.24	Weak	6.24	Weak	0.53	2.17	task-social/cue/runtype-pain/scl/l055.png	n/a	n/a	n/a	n/a	n/a	n/a	n/a	n/a
302.13	12.819999999999993	pain	stimulus	10	low_cue	high_stim	n/a	n/a	n/a	n/a	n/a	n/a	n/a	302.13	306.14	311.14	314.95	success	n/a	n/a	n/a
312.59	3.23	pain	outcomerating	10	low_cue	high_stim	21.93	Moderate	21.93	Moderate	0.53	2.17	task-social/outcomerating/task-pain_scale.png	n/a	n/a	n/a	n/a	success	n/a	n/a	n/a
331.1	1.0	pain	cue	11	high_cue	n/a	n/a	n/a	n/a	n/a	n/a	n/a	task-social/cue/runtype-pain/sch/h004.png	n/a	n/a	n/a	n/a	n/a	n/a	n/a	n/a
333.5	1.57	pain	expectrating	11	high_cue	n/a	14.09	Moderate	14.09	Moderate	0.72	0.86	task-social/cue/runtype-pain/sch/h004.png	n/a	n/a	n/a	n/a	n/a	n/a	n/a	n/a
340.82	12.370000000000005	pain	stimulus	11	high_cue	med_stim	n/a	n/a	n/a	n/a	n/a	n/a	n/a	340.82	344.58	349.58	353.19	success	n/a	n/a	n/a
355.81	2.85	pain	outcomerating	11	high_cue	med_stim	9.58	Weak	9.58	Weak	0.72	0.86	task-social/outcomerating/task-pain_scale.png	n/a	n/a	n/a	n/a	success	n/a	n/a	n/a
369.6	1.0	pain	cue	12	high_cue	n/a	n/a	n/a	n/a	n/a	n/a	n/a	task-social/cue/runtype-pain/sch/h038.png	n/a	n/a	n/a	n/a	n/a	n/a	n/a	n/a
371.6	1.81	pain	expectrating	12	high_cue	n/a	17.85	Moderate	17.85	Moderate	0.42	1.39	task-social/cue/runtype-pain/sch/h038.png	n/a	n/a	n/a	n/a	n/a	n/a	n/a	n/a
382.63	12.360000000000014	pain	stimulus	12	high_cue	med_stim	n/a	n/a	n/a	n/a	n/a	n/a	n/a	382.63	386.39	391.39	395.0	success	n/a	n/a	n/a
394.8	2.8	pain	outcomerating	12	high_cue	med_stim	15.88	Moderate	15.88	Moderate	0.42	1.39	task-social/outcomerating/task-pain_scale.png	n/a	n/a	n/a	n/a	success	n/a	n/a	n/a
