onset	duration	event_type	response_accuracy	cue_location	target_location	button_press	trial_index
6.16100430488586	0.2	valid_cue	correct	right	n/a	n/a	1
6.37775230407715	0.717284679412842	target_response	correct	right	right	right	1
9.54560041427612	0.2	invalid_cue	correct	right	n/a	n/a	2
9.7456738948822	0.526114225387573	target_response	correct	right	left	left	2
12.613410949707	0.2	invalid_cue	correct	right	n/a	n/a	3
12.8134849071503	0.459917068481445	target_response	correct	right	left	left	3
16.8816685676575	0.2	valid_cue	correct	left	n/a	n/a	4
17.0817432403564	0.403912782669067	target_response	correct	left	left	left	4
24.3511209487915	0.2	invalid_cue	correct	right	n/a	n/a	5
24.5511958599091	0.514846324920654	target_response	correct	right	left	left	5
28.4193046092987	0.2	invalid_cue	correct	right	n/a	n/a	6
28.6193790435791	0.507812976837158	target_response	correct	right	left	left	6
31.4871156215668	0.2	invalid_cue	correct	right	n/a	n/a	7
31.68718957901	0.529508590698242	target_response	correct	right	left	left	7
36.7557468414307	0.2	invalid_cue	correct	right	n/a	n/a	8
36.9558219909668	0.486237049102783	target_response	correct	right	left	left	8
41.224080324173	0.2	invalid_cue	correct	left	n/a	n/a	9
41.4241552352905	0.465190887451172	target_response	correct	left	right	right	9
44.49196434021	0.2	invalid_cue	correct	left	n/a	n/a	10
44.6920397281647	0.404850244522095	target_response	correct	left	right	right	10
50.8610067367554	0.2	valid_cue	correct	left	n/a	n/a	11
51.0610821247101	0.474066019058228	target_response	correct	left	left	left	11
54.1288924217224	0.2	valid_cue	correct	right	n/a	n/a	12
54.32896733284	0.482443809509277	target_response	correct	right	right	right	12
57.9970021247864	0.2	valid_cue	correct	left	n/a	n/a	13
58.1970763206482	0.504271745681763	target_response	correct	left	left	left	13
61.0648128986359	0.2	invalid_cue	correct	right	n/a	n/a	14
61.2648873329163	0.501353740692139	target_response	correct	right	left	left	14
64.0325860977173	0.2	invalid_cue	correct	right	n/a	n/a	15
64.2326600551605	0.501483917236328	target_response	correct	right	left	left	15
67.3004724979401	0.2	valid_cue	correct	right	n/a	n/a	16
67.5005462169647	0.462883949279785	target_response	correct	right	right	right	16
71.4686920642853	0.2	valid_cue	correct	right	n/a	n/a	17
71.66876745224	0.397294521331787	target_response	correct	right	right	right	17
78.337920665741	0.2	valid_cue	correct	right	n/a	n/a	18
78.5379958152771	0.411605358123779	target_response	correct	right	right	right	18
83.7065906524658	0.2	valid_cue	correct	left	n/a	n/a	19
83.9066641330719	0.440441846847534	target_response	correct	left	left	left	19
91.1760408878326	0.2	valid_cue	correct	left	n/a	n/a	20
91.3761160373688	0.463387012481689	target_response	correct	left	left	left	20
96.0445241928101	0.2	invalid_cue	correct	left	n/a	n/a	21
96.2445981502533	0.458510875701904	target_response	correct	left	right	right	21
100.012670993805	0.2	valid_cue	correct	left	n/a	n/a	22
100.212745428085	0.409420728683472	target_response	correct	left	left	left	22
104.781115293503	0.2	invalid_cue	correct	left	n/a	n/a	23
104.98118853569	0.658304452896118	target_response	correct	left	right	right	23
110.24982047081	0.2	valid_cue	correct	left	n/a	n/a	24
110.44989657402	0.4715576171875	target_response	correct	left	left	left	24
114.418041944504	0.2	invalid_cue	correct	right	n/a	n/a	25
114.618116855621	0.465914249420166	target_response	correct	right	left	left	25
121.887494087219	0.2	invalid_cue	correct	right	n/a	n/a	26
122.087569475174	0.480496644973755	target_response	correct	right	left	left	26
129.356947183609	0.2	invalid_cue	correct	right	n/a	n/a	27
129.557021617889	0.49864935874939	target_response	correct	right	left	left	27
136.726361513138	0.2	invalid_cue	correct	left	n/a	n/a	28
136.926435947418	0.394660234451294	target_response	correct	left	right	right	28
140.9946205616	0.2	valid_cue	correct	right	n/a	n/a	29
141.19469499588	0.409136056900024	target_response	correct	right	right	right	29
148.464072465897	0.2	invalid_cue	correct	left	n/a	n/a	30
148.664147615433	0.468132495880127	target_response	correct	left	right	right	30
151.831995010376	0.2	invalid_cue	correct	left	n/a	n/a	31
152.032070398331	0.532920598983765	target_response	correct	left	right	right	31
154.89980506897	0.2	invalid_cue	correct	right	n/a	n/a	32
155.099880218506	0.515678882598877	target_response	correct	right	left	left	32
159.168064117432	0.2	invalid_cue	correct	right	n/a	n/a	33
159.368138551712	0.464929580688477	target_response	correct	right	left	left	33
166.637516260147	0.2	invalid_cue	correct	left	n/a	n/a	34
166.837591409683	0.448907613754272	target_response	correct	left	right	right	34
174.106968402863	0.2	valid_cue	correct	right	n/a	n/a	35
174.307043552399	0.419228553771973	target_response	correct	right	right	right	35
178.275189876556	0.2	invalid_cue	correct	left	n/a	n/a	36
178.475264310837	0.43823766708374	target_response	correct	left	right	right	36
182.243335962296	0.2	invalid_cue	correct	left	n/a	n/a	37
182.443411111832	0.402173042297363	target_response	correct	left	right	right	37
185.411183357239	0.2	invalid_cue	correct	right	n/a	n/a	38
185.611258745193	0.479248285293579	target_response	correct	right	left	left	38
191.180001497269	0.2	invalid_cue	correct	left	n/a	n/a	39
191.380076885223	0.378265142440796	target_response	correct	left	right	right	39
194.147775888443	0.2	invalid_cue	correct	right	n/a	n/a	40
194.347849607468	0.464402437210083	target_response	correct	right	left	left	40
198.416033744812	0.2	invalid_cue	correct	left	n/a	n/a	41
198.616107463837	0.41209864616394	target_response	correct	left	right	right	41
201.483845472336	0.2	valid_cue	correct	right	n/a	n/a	42
201.683919668198	0.401881456375122	target_response	correct	right	right	right	42
208.953297615051	0.2	valid_cue	correct	right	n/a	n/a	43
209.15337228775	0.395732879638672	target_response	correct	right	right	right	43
213.52166724205	0.2	valid_cue	correct	right	n/a	n/a	44
213.721742391586	0.395371675491333	target_response	correct	right	right	right	44
217.789925575256	0.2	invalid_cue	correct	left	n/a	n/a	45
217.990000247955	0.444092750549316	target_response	correct	left	right	right	45
221.057811260223	0.2	valid_cue	correct	left	n/a	n/a	46
221.257885456085	0.441305637359619	target_response	correct	left	left	left	46
226.626554489136	0.2	invalid_cue	correct	right	n/a	n/a	47
226.826629400253	0.491156578063965	target_response	correct	right	left	left	47
234.596193313599	0.2	invalid_cue	correct	right	n/a	n/a	48
234.796267032623	0.483771085739136	target_response	correct	right	left	left	48
238.16419005394	0.2	invalid_cue	correct	right	n/a	n/a	49
238.364264965057	0.454851150512695	target_response	correct	right	left	left	49
243.933007478714	0.2	valid_cue	correct	left	n/a	n/a	50
244.133083105087	0.382706880569458	target_response	correct	left	left	left	50
251.402460336685	0.2	invalid_cue	correct	right	n/a	n/a	51
251.602534770966	0.467770338058472	target_response	correct	right	left	left	51
258.871911525726	0.2	valid_cue	correct	right	n/a	n/a	52
259.071987628937	0.414152383804321	target_response	correct	right	right	right	52
262.239835262299	0.2	invalid_cue	correct	left	n/a	n/a	53
262.439910173416	0.444187879562378	target_response	correct	left	right	right	53
268.108690261841	0.2	invalid_cue	correct	left	n/a	n/a	54
268.30876493454	0.444323062896729	target_response	correct	left	right	right	54
274.777844190598	0.2	valid_cue	correct	left	n/a	n/a	55
274.977919340134	0.437353849411011	target_response	correct	left	left	left	55
278.545916080475	0.2	valid_cue	correct	left	n/a	n/a	56
278.7459897995	0.384213209152222	target_response	correct	left	left	left	56
286.01536822319	0.2	valid_cue	correct	right	n/a	n/a	57
286.215443134308	0.380844831466675	target_response	correct	right	right	right	57
288.983141899109	0.2	invalid_cue	correct	left	n/a	n/a	58
289.183216094971	0.480124950408936	target_response	correct	left	right	right	58
292.851251363754	0.2	valid_cue	correct	right	n/a	n/a	59
293.05132484436	0.39301323890686	target_response	correct	right	right	right	59
300.320703268051	0.2	valid_cue	correct	right	n/a	n/a	60
300.520778179169	0.380181789398193	target_response	correct	right	right	right	60
308.290342330933	0.2	valid_cue	correct	right	n/a	n/a	61
308.490415811539	0.400720357894897	target_response	correct	right	right	right	61
312.258487224579	0.2	invalid_cue	correct	left	n/a	n/a	62
312.458562850952	0.434153318405151	target_response	correct	left	right	right	62
315.32629942894	0.2	invalid_cue	correct	right	n/a	n/a	63
315.526373386383	0.413719654083252	target_response	correct	right	left	left	63
322.795751333237	0.2	invalid_cue	correct	left	n/a	n/a	64
322.995826721191	0.381922245025635	target_response	correct	left	right	right	64
327.964344739914	0.2	valid_cue	correct	right	n/a	n/a	65
328.164419651031	0.417729377746582	target_response	correct	right	right	right	65
331.532343149185	0.2	invalid_cue	correct	left	n/a	n/a	66
331.732417583466	0.463008403778076	target_response	correct	left	right	right	66
334.500115871429	0.2	invalid_cue	correct	right	n/a	n/a	67
334.700191497803	0.491207599639893	target_response	correct	right	left	left	67
337.667964220047	0.2	valid_cue	correct	right	n/a	n/a	68
337.868037939072	0.438066244125366	target_response	correct	right	right	right	68
341.235960960388	0.2	valid_cue	correct	left	n/a	n/a	69
341.436036109924	0.35201096534729	target_response	correct	left	left	left	69
345.104070663452	0.2	valid_cue	correct	left	n/a	n/a	70
345.304145336151	0.407266855239868	target_response	correct	left	left	left	70
350.472738981247	0.2	invalid_cue	correct	right	n/a	n/a	71
350.672814130783	0.476886987686157	target_response	correct	right	left	left	71
353.740623950958	0.2	valid_cue	correct	left	n/a	n/a	72
353.940699338913	0.483402729034424	target_response	correct	left	left	left	72
358.308994531631	0.2	valid_cue	correct	right	n/a	n/a	73
358.509068727493	0.366120338439941	target_response	correct	right	right	right	73
361.676917076111	0.2	valid_cue	correct	left	n/a	n/a	74
361.876992225647	0.334515810012817	target_response	correct	left	left	left	74
369.146369934082	0.2	invalid_cue	correct	right	n/a	n/a	75
369.346444606781	0.472751379013062	target_response	correct	right	left	left	75
373.814776420593	0.2	invalid_cue	correct	left	n/a	n/a	76
374.014852523804	0.390417575836182	target_response	correct	left	right	right	76
379.783670425415	0.2	valid_cue	correct	right	n/a	n/a	77
379.983743906021	0.420707225799561	target_response	correct	right	right	right	77
387.25312256813	0.2	invalid_cue	correct	right	n/a	n/a	78
387.453196048737	0.403028964996338	target_response	correct	right	left	left	78
391.321306467056	0.2	invalid_cue	correct	right	n/a	n/a	79
391.521379947662	0.455008029937744	target_response	correct	right	left	left	79
398.790758371353	0.2	valid_cue	correct	left	n/a	n/a	80
398.990832090378	0.340807914733887	target_response	correct	left	left	left	80
404.459537982941	0.2	valid_cue	correct	left	n/a	n/a	81
404.659613132477	0.363495826721191	target_response	correct	left	left	left	81
407.627387046814	0.2	invalid_cue	correct	left	n/a	n/a	82
407.827461004257	0.469377040863037	target_response	correct	left	right	right	82
410.695197105408	0.2	invalid_cue	correct	left	n/a	n/a	83
410.895272254944	0.440114736557007	target_response	correct	left	right	right	83
414.363232374191	0.2	valid_cue	correct	left	n/a	n/a	84
414.563308954239	0.338783025741577	target_response	correct	left	left	left	84
418.631489992142	0.2	invalid_cue	correct	right	n/a	n/a	85
418.831565618515	0.413212537765503	target_response	correct	right	left	left	85
422.599637269974	0.2	valid_cue	correct	right	n/a	n/a	86
422.799710988998	0.425899982452393	target_response	correct	right	right	right	86
429.2687895298	0.2	invalid_cue	correct	right	n/a	n/a	87
429.468864917755	0.429420232772827	target_response	correct	right	left	left	87
432.436639547348	0.2	valid_cue	correct	left	n/a	n/a	88
432.636713266373	0.434266805648804	target_response	correct	left	left	left	88
435.904598712921	0.2	valid_cue	correct	left	n/a	n/a	89
436.104673624039	0.340885400772095	target_response	correct	left	left	left	89
441.373304367065	0.2	valid_cue	correct	left	n/a	n/a	90
441.573379039764	0.396852016448975	target_response	correct	left	left	left	90
444.9413022995	0.2	valid_cue	correct	left	n/a	n/a	91
445.141376256943	0.375190734863281	target_response	correct	left	left	left	91
448.509299278259	0.2	valid_cue	correct	right	n/a	n/a	92
448.709374189377	0.375762939453125	target_response	correct	right	right	right	92
453.577854394913	0.2	valid_cue	correct	right	n/a	n/a	93
453.77793097496	0.266427040100098	target_response	correct	right	right	right	93
461.547494888306	0.2	valid_cue	correct	left	n/a	n/a	94
461.747568845749	0.333393335342407	target_response	correct	left	left	left	94
469.016947507858	0.2	invalid_cue	correct	right	n/a	n/a	95
469.217022180557	0.55030083656311	target_response	correct	right	left	left	95
474.185541391373	0.2	valid_cue	correct	right	n/a	n/a	96
474.385615348816	0.411659717559814	target_response	correct	right	right	right	96
481.654992580414	0.2	valid_cue	correct	left	n/a	n/a	97
481.855067968369	0.417458057403564	target_response	correct	left	left	left	97
489.124444007874	0.2	invalid_cue	correct	left	n/a	n/a	98
489.324520587921	0.447617530822754	target_response	correct	left	right	right	98
494.593151092529	0.2	valid_cue	correct	left	n/a	n/a	99
494.79322552681	0.410962581634521	target_response	correct	left	left	left	99
499.161522388458	0.2	invalid_cue	correct	left	n/a	n/a	100
499.361596822739	0.442305326461792	target_response	correct	left	right	right	100
506.030750274658	0.2	valid_cue	correct	left	n/a	n/a	101
506.230824232101	0.433391809463501	target_response	correct	left	left	left	101
510.799195051193	0.2	invalid_cue	correct	right	n/a	n/a	102
510.999270200729	0.502153873443604	target_response	correct	right	left	left	102
514.067080020905	0.2	invalid_cue	correct	left	n/a	n/a	103
514.267155170441	0.447717905044556	target_response	correct	left	right	right	103
521.536532878876	0.2	invalid_cue	correct	right	n/a	n/a	104
521.736606121063	0.416673898696899	target_response	correct	right	left	left	104
526.505051851273	0.2	valid_cue	correct	right	n/a	n/a	105
526.705127239227	0.43303394317627	target_response	correct	right	right	right	105
532.874094247818	0.2	valid_cue	correct	right	n/a	n/a	106
533.074169158936	0.456300020217896	target_response	correct	right	right	right	106
536.642165899277	0.2	invalid_cue	correct	right	n/a	n/a	107
536.842241287231	0.426563739776611	target_response	correct	right	left	left	107
541.110498905182	0.2	valid_cue	correct	left	n/a	n/a	108
541.310572862625	0.424334287643433	target_response	correct	left	left	left	108
544.178310394287	0.2	valid_cue	correct	left	n/a	n/a	109
544.378383636475	0.391816377639771	target_response	correct	left	left	left	109
548.946753740311	0.2	invalid_cue	correct	left	n/a	n/a	110
549.146829128265	0.455404996871948	target_response	correct	left	right	right	110
552.814863204956	0.2	valid_cue	correct	right	n/a	n/a	111
553.014937877655	0.398150205612183	target_response	correct	right	right	right	111
560.284316062927	0.2	valid_cue	correct	right	n/a	n/a	112
560.484390258789	0.39676570892334	target_response	correct	right	right	right	112
563.352127313614	0.2	invalid_cue	correct	left	n/a	n/a	113
563.55220079422	0.525209188461304	target_response	correct	left	right	right	113
567.020161628723	0.2	valid_cue	correct	left	n/a	n/a	114
567.220235586166	0.342969417572021	target_response	correct	left	left	left	114
572.388829946518	0.2	invalid_cue	correct	left	n/a	n/a	115
572.588905096054	0.686315059661865	target_response	correct	left	right	right	115
579.057984352112	0.2	valid_cue	correct	right	n/a	n/a	116
579.258058071136	0.400330066680908	target_response	correct	right	right	right	116
583.72639131546	0.2	invalid_cue	correct	left	n/a	n/a	117
583.926465749741	0.473783254623413	target_response	correct	left	right	right	117
591.195843219757	0.2	invalid_cue	correct	left	n/a	n/a	118
591.395918369293	0.42930269241333	target_response	correct	left	right	right	118
594.663803577423	0.2	valid_cue	correct	right	n/a	n/a	119
594.863878488541	0.363064527511597	target_response	correct	right	right	right	119
599.132135868073	0.2	invalid_cue	correct	left	n/a	n/a	120
599.332211494446	0.456128597259521	target_response	correct	left	right	right	120
