onset	duration	run_type	trial_type	trial_index	cue	stimulusintensity	rating_value	rating_glmslabel	rating_value_fillna	rating_glmslabel_fillna	rating_mouseonset	rating_mousedur	stim_file_TODO	pain_onset_ttl1	pain_onset_ttl2	pain_onset_ttl3	pain_onset_ttl4	pain_stimulus_delivery_success	cognitive_correct_response	cognitive_participant_response	cognitive_response_accuracy
10.61	1.0	pain	cue	1	low_cue	n/a	n/a	n/a	n/a	n/a	n/a	n/a	task-social/cue/runtype-pain/scl/l013.png	n/a	n/a	n/a	n/a	n/a	n/a	n/a	n/a
12.32	3.59	pain	expectrating	1	low_cue	n/a	32.47	Strong	32.47	Strong	1.03	2.55	task-social/cue/runtype-pain/scl/l013.png	n/a	n/a	n/a	n/a	n/a	n/a	n/a	n/a
21.17	11.909999999999997	pain	stimulus	1	low_cue	low_stim	n/a	n/a	n/a	n/a	n/a	n/a	n/a	21.17	24.67	29.67	33.07	success	n/a	n/a	n/a
31.11	2.18	pain	outcomerating	1	low_cue	low_stim	75.01	Very Strong	75.01	Very Strong	1.03	2.55	task-social/outcomerating/task-pain_scale.png	n/a	n/a	n/a	n/a	success	n/a	n/a	n/a
35.72	1.0	pain	cue	2	low_cue	n/a	n/a	n/a	n/a	n/a	n/a	n/a	task-social/cue/runtype-pain/scl/l004.png	n/a	n/a	n/a	n/a	n/a	n/a	n/a	n/a
38.02	2.78	pain	expectrating	2	low_cue	n/a	8.95	Weak	8.95	Weak	1.08	1.7	task-social/cue/runtype-pain/scl/l004.png	n/a	n/a	n/a	n/a	n/a	n/a	n/a	n/a
43.87	12.370000000000005	pain	stimulus	2	low_cue	med_stim	n/a	n/a	n/a	n/a	n/a	n/a	n/a	43.87	47.63	52.63	56.24	success	n/a	n/a	n/a
56.31	3.6	pain	outcomerating	2	low_cue	med_stim	2.77	Barely detectable	2.77	Barely detectable	1.08	1.7	task-social/outcomerating/task-pain_scale.png	n/a	n/a	n/a	n/a	success	n/a	n/a	n/a
61.31	1.0	pain	cue	3	low_cue	n/a	n/a	n/a	n/a	n/a	n/a	n/a	task-social/cue/runtype-pain/scl/l046.png	n/a	n/a	n/a	n/a	n/a	n/a	n/a	n/a
64.21	3.87	pain	expectrating	3	low_cue	n/a	30.19	Strong	30.19	Strong	1.03	2.83	task-social/cue/runtype-pain/scl/l046.png	n/a	n/a	n/a	n/a	n/a	n/a	n/a	n/a
72.27	11.91000000000001	pain	stimulus	3	low_cue	low_stim	n/a	n/a	n/a	n/a	n/a	n/a	n/a	72.27	75.77	80.77	84.17	success	n/a	n/a	n/a
86.32	2.62	pain	outcomerating	3	low_cue	low_stim	4.86	Weak	4.86	Weak	1.03	2.83	task-social/outcomerating/task-pain_scale.png	n/a	n/a	n/a	n/a	success	n/a	n/a	n/a
91.3	1.0	pain	cue	4	low_cue	n/a	n/a	n/a	n/a	n/a	n/a	n/a	task-social/cue/runtype-pain/scl/l036.png	n/a	n/a	n/a	n/a	n/a	n/a	n/a	n/a
93.72	2.07	pain	expectrating	4	low_cue	n/a	23.79	Moderate	23.79	Moderate	0.57	1.51	task-social/cue/runtype-pain/scl/l036.png	n/a	n/a	n/a	n/a	n/a	n/a	n/a	n/a
99.83	12.820000000000007	pain	stimulus	4	low_cue	high_stim	n/a	n/a	n/a	n/a	n/a	n/a	n/a	99.83	103.84	108.84	112.65	success	n/a	n/a	n/a
112.31	3.65	pain	outcomerating	4	low_cue	high_stim	57.57	Strong	57.57	Strong	0.57	1.51	task-social/outcomerating/task-pain_scale.png	n/a	n/a	n/a	n/a	success	n/a	n/a	n/a
120.01	1.0	pain	cue	5	high_cue	n/a	n/a	n/a	n/a	n/a	n/a	n/a	task-social/cue/runtype-pain/sch/h021.png	n/a	n/a	n/a	n/a	n/a	n/a	n/a	n/a
122.92	2.73	pain	expectrating	5	high_cue	n/a	48.07	Strong	48.07	Strong	1.25	1.48	task-social/cue/runtype-pain/sch/h021.png	n/a	n/a	n/a	n/a	n/a	n/a	n/a	n/a
131.85	12.360000000000014	pain	stimulus	5	high_cue	med_stim	n/a	n/a	n/a	n/a	n/a	n/a	n/a	131.85	135.61	140.61	144.22	success	n/a	n/a	n/a
142.81	3.45	pain	outcomerating	5	high_cue	med_stim	52.29	Strong	52.29	Strong	1.25	1.48	task-social/outcomerating/task-pain_scale.png	n/a	n/a	n/a	n/a	success	n/a	n/a	n/a
153.91	1.0	pain	cue	6	high_cue	n/a	n/a	n/a	n/a	n/a	n/a	n/a	task-social/cue/runtype-pain/sch/h031.png	n/a	n/a	n/a	n/a	n/a	n/a	n/a	n/a
155.81	2.67	pain	expectrating	6	high_cue	n/a	34.99	Strong	34.99	Strong	0.58	2.08	task-social/cue/runtype-pain/sch/h031.png	n/a	n/a	n/a	n/a	n/a	n/a	n/a	n/a
167.86	12.819999999999993	pain	stimulus	6	high_cue	high_stim	n/a	n/a	n/a	n/a	n/a	n/a	n/a	167.86	171.87	176.87	180.68	success	n/a	n/a	n/a
184.21	n/a	pain	outcomerating	6	high_cue	high_stim	n/a	n/a	12.92	Moderate	0.58	2.08	task-social/outcomerating/task-pain_scale.png	n/a	n/a	n/a	n/a	success	n/a	n/a	n/a
194.21	1.0	pain	cue	7	high_cue	n/a	n/a	n/a	n/a	n/a	n/a	n/a	task-social/cue/runtype-pain/sch/h028.png	n/a	n/a	n/a	n/a	n/a	n/a	n/a	n/a
197.01	2.5	pain	expectrating	7	high_cue	n/a	44.35	Strong	44.35	Strong	0.67	1.83	task-social/cue/runtype-pain/sch/h028.png	n/a	n/a	n/a	n/a	n/a	n/a	n/a	n/a
204.26	12.360000000000014	pain	stimulus	7	high_cue	med_stim	n/a	n/a	n/a	n/a	n/a	n/a	n/a	204.26	208.02	213.02	216.63	success	n/a	n/a	n/a
214.22	2.72	pain	outcomerating	7	high_cue	med_stim	52.67	Strong	52.67	Strong	0.67	1.83	task-social/outcomerating/task-pain_scale.png	n/a	n/a	n/a	n/a	success	n/a	n/a	n/a
219.2	1.0	pain	cue	8	high_cue	n/a	n/a	n/a	n/a	n/a	n/a	n/a	task-social/cue/runtype-pain/sch/h001.png	n/a	n/a	n/a	n/a	n/a	n/a	n/a	n/a
222.12	2.66	pain	expectrating	8	high_cue	n/a	53.13	Strong	53.13	Strong	0.58	2.07	task-social/cue/runtype-pain/sch/h001.png	n/a	n/a	n/a	n/a	n/a	n/a	n/a	n/a
232.53	11.909999999999997	pain	stimulus	8	high_cue	low_stim	n/a	n/a	n/a	n/a	n/a	n/a	n/a	232.53	236.03	241.03	244.43	success	n/a	n/a	n/a
242.71	1.88	pain	outcomerating	8	high_cue	low_stim	15.38	Moderate	15.38	Moderate	0.58	2.07	task-social/outcomerating/task-pain_scale.png	n/a	n/a	n/a	n/a	success	n/a	n/a	n/a
251.41	1.0	pain	cue	9	high_cue	n/a	n/a	n/a	n/a	n/a	n/a	n/a	task-social/cue/runtype-pain/sch/h043.png	n/a	n/a	n/a	n/a	n/a	n/a	n/a	n/a
253.81	2.75	pain	expectrating	9	high_cue	n/a	42.35	Strong	42.35	Strong	0.5	2.25	task-social/cue/runtype-pain/sch/h043.png	n/a	n/a	n/a	n/a	n/a	n/a	n/a	n/a
264.75	11.899999999999977	pain	stimulus	9	high_cue	low_stim	n/a	n/a	n/a	n/a	n/a	n/a	n/a	264.75	268.25	273.25	276.65	success	n/a	n/a	n/a
280.81	3.09	pain	outcomerating	9	high_cue	low_stim	13.98	Moderate	13.98	Moderate	0.5	2.25	task-social/outcomerating/task-pain_scale.png	n/a	n/a	n/a	n/a	success	n/a	n/a	n/a
285.81	1.0	pain	cue	10	high_cue	n/a	n/a	n/a	n/a	n/a	n/a	n/a	task-social/cue/runtype-pain/sch/h007.png	n/a	n/a	n/a	n/a	n/a	n/a	n/a	n/a
289.01	2.5	pain	expectrating	10	high_cue	n/a	50.61	Strong	50.61	Strong	0.62	1.88	task-social/cue/runtype-pain/sch/h007.png	n/a	n/a	n/a	n/a	n/a	n/a	n/a	n/a
296.06	12.819999999999993	pain	stimulus	10	high_cue	high_stim	n/a	n/a	n/a	n/a	n/a	n/a	n/a	296.06	300.07	305.07	308.88	success	n/a	n/a	n/a
311.32	2.39	pain	outcomerating	10	high_cue	high_stim	79.82	Very Strong	79.82	Very Strong	0.62	1.88	task-social/outcomerating/task-pain_scale.png	n/a	n/a	n/a	n/a	success	n/a	n/a	n/a
326.21	1.0	pain	cue	11	low_cue	n/a	n/a	n/a	n/a	n/a	n/a	n/a	task-social/cue/runtype-pain/scl/l027.png	n/a	n/a	n/a	n/a	n/a	n/a	n/a	n/a
328.11	n/a	pain	expectrating	11	low_cue	n/a	n/a	n/a	20.67	Moderate	0.82	3.82	task-social/cue/runtype-pain/scl/l027.png	n/a	n/a	n/a	n/a	n/a	n/a	n/a	n/a
340.46	12.370000000000005	pain	stimulus	11	low_cue	med_stim	n/a	n/a	n/a	n/a	n/a	n/a	n/a	340.46	344.22	349.22	352.83	success	n/a	n/a	n/a
353.32	1.98	pain	outcomerating	11	low_cue	med_stim	34.2	Strong	34.2	Strong	0.82	3.82	task-social/outcomerating/task-pain_scale.png	n/a	n/a	n/a	n/a	success	n/a	n/a	n/a
366.41	1.0	pain	cue	12	low_cue	n/a	n/a	n/a	n/a	n/a	n/a	n/a	task-social/cue/runtype-pain/scl/l029.png	n/a	n/a	n/a	n/a	n/a	n/a	n/a	n/a
369.21	3.02	pain	expectrating	12	low_cue	n/a	13.14	Moderate	13.14	Moderate	0.5	2.52	task-social/cue/runtype-pain/scl/l029.png	n/a	n/a	n/a	n/a	n/a	n/a	n/a	n/a
373.86	12.819999999999993	pain	stimulus	12	low_cue	high_stim	n/a	n/a	n/a	n/a	n/a	n/a	n/a	373.86	377.87	382.87	386.68	success	n/a	n/a	n/a
394.82	3.08	pain	outcomerating	12	low_cue	high_stim	29.55	Strong	29.55	Strong	0.5	2.52	task-social/outcomerating/task-pain_scale.png	n/a	n/a	n/a	n/a	success	n/a	n/a	n/a
