onset	duration	run_type	trial_type	trial_index	cue	stimulusintensity	rating_value	rating_glmslabel	rating_value_fillna	rating_glmslabel_fillna	rating_mouseonset	rating_mousedur	stim_file	pain_onset_ttl1	pain_onset_ttl2	pain_onset_ttl3	pain_onset_ttl4	pain_stimulus_delivery_success	cognitive_correct_response	cognitive_participant_response	cognitive_response_accuracy
5.68	1.0	pain	cue	1	low_cue	n/a	n/a	n/a	n/a	n/a	n/a	n/a	task-social/cue/runtype-pain/scl/l021.png	n/a	n/a	n/a	n/a	n/a	n/a	n/a	n/a
7.7	1.5	pain	expectrating	1	low_cue	n/a	21.18	Moderate	21.18	Moderate	0.43	1.07	task-social/cue/runtype-pain/scl/l021.png	n/a	n/a	n/a	n/a	n/a	n/a	n/a	n/a
13.72	12.359999999999998	pain	stimulus	1	low_cue	med_stim	n/a	n/a	n/a	n/a	n/a	n/a	n/a	13.72	17.48	22.48	26.09	success	n/a	n/a	n/a
27.89	2.36	pain	outcomerating	1	low_cue	med_stim	41.25	Strong	41.25	Strong	0.43	1.07	task-social/outcomerating/task-pain_scale.png	n/a	n/a	n/a	n/a	success	n/a	n/a	n/a
33.39	1.0	pain	cue	2	low_cue	n/a	n/a	n/a	n/a	n/a	n/a	n/a	task-social/cue/runtype-pain/scl/l014.png	n/a	n/a	n/a	n/a	n/a	n/a	n/a	n/a
35.69	1.3	pain	expectrating	2	low_cue	n/a	20.42	Moderate	20.42	Moderate	0.08	1.22	task-social/cue/runtype-pain/scl/l014.png	n/a	n/a	n/a	n/a	n/a	n/a	n/a	n/a
44.53	11.899999999999999	pain	stimulus	2	low_cue	low_stim	n/a	n/a	n/a	n/a	n/a	n/a	n/a	44.53	48.03	53.03	56.43	success	n/a	n/a	n/a
55.38	1.98	pain	outcomerating	2	low_cue	low_stim	9.46	Weak	9.46	Weak	0.08	1.22	task-social/outcomerating/task-pain_scale.png	n/a	n/a	n/a	n/a	success	n/a	n/a	n/a
71.09	1.0	pain	cue	3	low_cue	n/a	n/a	n/a	n/a	n/a	n/a	n/a	task-social/cue/runtype-pain/scl/l023.png	n/a	n/a	n/a	n/a	n/a	n/a	n/a	n/a
73.39	1.47	pain	expectrating	3	low_cue	n/a	19.43	Moderate	19.43	Moderate	0.18	1.28	task-social/cue/runtype-pain/scl/l023.png	n/a	n/a	n/a	n/a	n/a	n/a	n/a	n/a
82.21	12.820000000000007	pain	stimulus	3	low_cue	high_stim	n/a	n/a	n/a	n/a	n/a	n/a	n/a	82.21	86.22	91.22	95.03	success	n/a	n/a	n/a
93.28	2.88	pain	outcomerating	3	low_cue	high_stim	39.06	Strong	39.06	Strong	0.18	1.28	task-social/outcomerating/task-pain_scale.png	n/a	n/a	n/a	n/a	success	n/a	n/a	n/a
100.68	1.0	pain	cue	4	high_cue	n/a	n/a	n/a	n/a	n/a	n/a	n/a	task-social/cue/runtype-pain/sch/h043.png	n/a	n/a	n/a	n/a	n/a	n/a	n/a	n/a
103.48	1.4	pain	expectrating	4	high_cue	n/a	60.4	Strong	60.4	Strong	0.32	1.08	task-social/cue/runtype-pain/sch/h043.png	n/a	n/a	n/a	n/a	n/a	n/a	n/a	n/a
112.8	11.909999999999997	pain	stimulus	4	high_cue	low_stim	n/a	n/a	n/a	n/a	n/a	n/a	n/a	112.8	116.3	121.3	124.7	success	n/a	n/a	n/a
124.69	1.99	pain	outcomerating	4	high_cue	low_stim	10.56	Moderate	10.56	Moderate	0.32	1.08	task-social/outcomerating/task-pain_scale.png	n/a	n/a	n/a	n/a	success	n/a	n/a	n/a
135.78	1.0	pain	cue	5	high_cue	n/a	n/a	n/a	n/a	n/a	n/a	n/a	task-social/cue/runtype-pain/sch/h018.png	n/a	n/a	n/a	n/a	n/a	n/a	n/a	n/a
137.48	2.33	pain	expectrating	5	high_cue	n/a	95.32	Very-Strong	95.32	Very-Strong	0.4	1.93	task-social/cue/runtype-pain/sch/h018.png	n/a	n/a	n/a	n/a	n/a	n/a	n/a	n/a
147.81	12.359999999999985	pain	stimulus	5	high_cue	med_stim	n/a	n/a	n/a	n/a	n/a	n/a	n/a	147.81	151.57	156.57	160.18	success	n/a	n/a	n/a
159.69	1.9	pain	outcomerating	5	high_cue	med_stim	50.19	Strong	50.19	Strong	0.4	1.93	task-social/outcomerating/task-pain_scale.png	n/a	n/a	n/a	n/a	success	n/a	n/a	n/a
170.59	0.98	pain	cue	6	high_cue	n/a	n/a	n/a	n/a	n/a	n/a	n/a	task-social/cue/runtype-pain/sch/h014.png	n/a	n/a	n/a	n/a	n/a	n/a	n/a	n/a
172.39	1.12	pain	expectrating	6	high_cue	n/a	80.54	Very-Strong	80.54	Very-Strong	0.18	0.94	task-social/cue/runtype-pain/sch/h014.png	n/a	n/a	n/a	n/a	n/a	n/a	n/a	n/a
179.01	12.820000000000022	pain	stimulus	6	high_cue	high_stim	n/a	n/a	n/a	n/a	n/a	n/a	n/a	179.01	183.02	188.02	191.83	success	n/a	n/a	n/a
190.88	2.83	pain	outcomerating	6	high_cue	high_stim	79.98	Very-Strong	79.98	Very-Strong	0.18	0.94	task-social/outcomerating/task-pain_scale.png	n/a	n/a	n/a	n/a	success	n/a	n/a	n/a
196.88	1.0	pain	cue	7	high_cue	n/a	n/a	n/a	n/a	n/a	n/a	n/a	task-social/cue/runtype-pain/sch/h001.png	n/a	n/a	n/a	n/a	n/a	n/a	n/a	n/a
199.88	1.28	pain	expectrating	7	high_cue	n/a	70.02	Very-Strong	70.02	Very-Strong	0.28	1.0	task-social/cue/runtype-pain/sch/h001.png	n/a	n/a	n/a	n/a	n/a	n/a	n/a	n/a
210.21	11.900000000000006	pain	stimulus	7	high_cue	low_stim	n/a	n/a	n/a	n/a	n/a	n/a	n/a	210.21	213.71	218.71	222.11	success	n/a	n/a	n/a
230.98	1.7	pain	outcomerating	7	high_cue	low_stim	20.58	Moderate	20.58	Moderate	0.28	1.0	task-social/outcomerating/task-pain_scale.png	n/a	n/a	n/a	n/a	success	n/a	n/a	n/a
236.98	1.0	pain	cue	8	low_cue	n/a	n/a	n/a	n/a	n/a	n/a	n/a	task-social/cue/runtype-pain/scl/l012.png	n/a	n/a	n/a	n/a	n/a	n/a	n/a	n/a
239.68	1.28	pain	expectrating	8	low_cue	n/a	12.13	Moderate	12.13	Moderate	0.37	0.92	task-social/cue/runtype-pain/scl/l012.png	n/a	n/a	n/a	n/a	n/a	n/a	n/a	n/a
249.32	12.829999999999984	pain	stimulus	8	low_cue	high_stim	n/a	n/a	n/a	n/a	n/a	n/a	n/a	249.32	253.33	258.33	262.14	success	n/a	n/a	n/a
259.29	2.77	pain	outcomerating	8	low_cue	high_stim	60.1	Strong	60.1	Strong	0.37	0.92	task-social/outcomerating/task-pain_scale.png	n/a	n/a	n/a	n/a	success	n/a	n/a	n/a
268.28	1.0	pain	cue	9	high_cue	n/a	n/a	n/a	n/a	n/a	n/a	n/a	task-social/cue/runtype-pain/sch/h050.png	n/a	n/a	n/a	n/a	n/a	n/a	n/a	n/a
271.28	1.22	pain	expectrating	9	high_cue	n/a	62.91	Strong	62.91	Strong	0.27	0.95	task-social/cue/runtype-pain/sch/h050.png	n/a	n/a	n/a	n/a	n/a	n/a	n/a	n/a
277.21	12.830000000000041	pain	stimulus	9	high_cue	high_stim	n/a	n/a	n/a	n/a	n/a	n/a	n/a	277.21	281.22	286.22	290.03	success	n/a	n/a	n/a
295.69	1.88	pain	outcomerating	9	high_cue	high_stim	40.93	Strong	40.93	Strong	0.27	0.95	task-social/outcomerating/task-pain_scale.png	n/a	n/a	n/a	n/a	success	n/a	n/a	n/a
301.89	1.0	pain	cue	10	low_cue	n/a	n/a	n/a	n/a	n/a	n/a	n/a	task-social/cue/runtype-pain/scl/l017.png	n/a	n/a	n/a	n/a	n/a	n/a	n/a	n/a
304.19	2.14	pain	expectrating	10	low_cue	n/a	27.39	Moderate	27.39	Moderate	0.05	2.09	task-social/cue/runtype-pain/scl/l017.png	n/a	n/a	n/a	n/a	n/a	n/a	n/a	n/a
314.52	12.360000000000014	pain	stimulus	10	low_cue	med_stim	n/a	n/a	n/a	n/a	n/a	n/a	n/a	314.52	318.28	323.28	326.89	success	n/a	n/a	n/a
327.68	3.03	pain	outcomerating	10	low_cue	med_stim	18.59	Moderate	18.59	Moderate	0.05	2.09	task-social/outcomerating/task-pain_scale.png	n/a	n/a	n/a	n/a	success	n/a	n/a	n/a
333.88	1.0	pain	cue	11	high_cue	n/a	n/a	n/a	n/a	n/a	n/a	n/a	task-social/cue/runtype-pain/sch/h003.png	n/a	n/a	n/a	n/a	n/a	n/a	n/a	n/a
336.89	2.48	pain	expectrating	11	high_cue	n/a	75.52	Very-Strong	75.52	Very-Strong	0.25	2.23	task-social/cue/runtype-pain/sch/h003.png	n/a	n/a	n/a	n/a	n/a	n/a	n/a	n/a
347.21	12.360000000000014	pain	stimulus	11	high_cue	med_stim	n/a	n/a	n/a	n/a	n/a	n/a	n/a	347.21	350.97	355.97	359.58	success	n/a	n/a	n/a
361.58	1.62	pain	outcomerating	11	high_cue	med_stim	39.09	Strong	39.09	Strong	0.25	2.23	task-social/outcomerating/task-pain_scale.png	n/a	n/a	n/a	n/a	success	n/a	n/a	n/a
372.48	1.0	pain	cue	12	low_cue	n/a	n/a	n/a	n/a	n/a	n/a	n/a	task-social/cue/runtype-pain/scl/l039.png	n/a	n/a	n/a	n/a	n/a	n/a	n/a	n/a
375.48	1.7	pain	expectrating	12	low_cue	n/a	31.73	Strong	31.73	Strong	0.52	1.18	task-social/cue/runtype-pain/scl/l039.png	n/a	n/a	n/a	n/a	n/a	n/a	n/a	n/a
381.41	11.909999999999968	pain	stimulus	12	low_cue	low_stim	n/a	n/a	n/a	n/a	n/a	n/a	n/a	381.41	384.91	389.91	393.31	success	n/a	n/a	n/a
394.69	1.55	pain	outcomerating	12	low_cue	low_stim	17.84	Moderate	17.84	Moderate	0.52	1.18	task-social/outcomerating/task-pain_scale.png	n/a	n/a	n/a	n/a	success	n/a	n/a	n/a
