onset	duration	run_type	trial_type	trial_index	cue	stimulusintensity	rating_value	rating_glmslabel	rating_value_fillna	rating_glmslabel_fillna	rating_mouseonset	rating_mousedur	stim_file	pain_onset_ttl1	pain_onset_ttl2	pain_onset_ttl3	pain_onset_ttl4	pain_stimulus_delivery_success	cognitive_correct_response	cognitive_participant_response	cognitive_response_accuracy
10.08	0.99	vicarious	cue	1	high_cue	n/a	n/a	n/a	n/a	n/a	n/a	n/a	task-social/cue/runtype-vicarious/sch/h011.png	n/a	n/a	n/a	n/a	n/a	n/a	n/a	n/a
12.4	1.48	vicarious	expectrating	1	high_cue	n/a	51.41	Strong	51.41	Strong	0.28	1.2	task-social/cue/runtype-vicarious/sch/h011.png	n/a	n/a	n/a	n/a	n/a	n/a	n/a	n/a
20.17	5.0	vicarious	stimulus	1	high_cue	med_stim	n/a	n/a	n/a	n/a	n/a	n/a	task-social/stim/runtype-vicarious/kz120t2aeaff_M.mp4	n/a	n/a	n/a	n/a	n/a	n/a	n/a	n/a
31.49	1.61	vicarious	outcomerating	1	high_cue	med_stim	15.69	Moderate	15.69	Moderate	0.38	1.22	task-social/outcomerating/task-vicarious_scale.png	n/a	n/a	n/a	n/a	n/a	n/a	n/a	n/a
36.29	0.98	vicarious	cue	2	high_cue	n/a	n/a	n/a	n/a	n/a	n/a	n/a	task-social/cue/runtype-vicarious/sch/h028.png	n/a	n/a	n/a	n/a	n/a	n/a	n/a	n/a
39.19	1.87	vicarious	expectrating	2	high_cue	n/a	34.46	Strong	34.46	Strong	0.07	1.8	task-social/cue/runtype-vicarious/sch/h028.png	n/a	n/a	n/a	n/a	n/a	n/a	n/a	n/a
47.47	5.0	vicarious	stimulus	2	high_cue	low_stim	n/a	n/a	n/a	n/a	n/a	n/a	task-social/stim/runtype-vicarious/jh123t1aaunaff_L.mp4	n/a	n/a	n/a	n/a	n/a	n/a	n/a	n/a
55.8	1.23	vicarious	outcomerating	2	high_cue	low_stim	20.28	Moderate	20.28	Moderate	0.48	0.75	task-social/outcomerating/task-vicarious_scale.png	n/a	n/a	n/a	n/a	n/a	n/a	n/a	n/a
68.38	0.99	vicarious	cue	3	low_cue	n/a	n/a	n/a	n/a	n/a	n/a	n/a	task-social/cue/runtype-vicarious/scl/l044.png	n/a	n/a	n/a	n/a	n/a	n/a	n/a	n/a
71.28	2.02	vicarious	expectrating	3	low_cue	n/a	15.82	Moderate	15.82	Moderate	0.6	1.42	task-social/cue/runtype-vicarious/scl/l044.png	n/a	n/a	n/a	n/a	n/a	n/a	n/a	n/a
80.47	5.0	vicarious	stimulus	3	low_cue	med_stim	n/a	n/a	n/a	n/a	n/a	n/a	task-social/stim/runtype-vicarious/jh123t2aaaff_M.mp4	n/a	n/a	n/a	n/a	n/a	n/a	n/a	n/a
96.39	3.38	vicarious	outcomerating	3	low_cue	med_stim	11.81	Moderate	11.81	Moderate	0.43	2.95	task-social/outcomerating/task-vicarious_scale.png	n/a	n/a	n/a	n/a	n/a	n/a	n/a	n/a
103.08	0.99	vicarious	cue	4	high_cue	n/a	n/a	n/a	n/a	n/a	n/a	n/a	task-social/cue/runtype-vicarious/sch/h030.png	n/a	n/a	n/a	n/a	n/a	n/a	n/a	n/a
105.98	2.3	vicarious	expectrating	4	high_cue	n/a	58.6	Strong	58.6	Strong	0.37	1.93	task-social/cue/runtype-vicarious/sch/h030.png	n/a	n/a	n/a	n/a	n/a	n/a	n/a	n/a
115.17	5.0	vicarious	stimulus	4	high_cue	high_stim	n/a	n/a	n/a	n/a	n/a	n/a	task-social/stim/runtype-vicarious/mg101t2aeaff_H.mp4	n/a	n/a	n/a	n/a	n/a	n/a	n/a	n/a
126.99	2.67	vicarious	outcomerating	4	high_cue	high_stim	60.63	Strong	60.63	Strong	0.65	2.02	task-social/outcomerating/task-vicarious_scale.png	n/a	n/a	n/a	n/a	n/a	n/a	n/a	n/a
139.58	0.99	vicarious	cue	5	high_cue	n/a	n/a	n/a	n/a	n/a	n/a	n/a	task-social/cue/runtype-vicarious/sch/h014.png	n/a	n/a	n/a	n/a	n/a	n/a	n/a	n/a
141.69	1.68	vicarious	expectrating	5	high_cue	n/a	51.52	Strong	51.52	Strong	0.05	1.63	task-social/cue/runtype-vicarious/sch/h014.png	n/a	n/a	n/a	n/a	n/a	n/a	n/a	n/a
159.77	5.0	vicarious	stimulus	5	high_cue	high_stim	n/a	n/a	n/a	n/a	n/a	n/a	task-social/stim/runtype-vicarious/jh123t1aeaff_H.mp4	n/a	n/a	n/a	n/a	n/a	n/a	n/a	n/a
169.69	2.7	vicarious	outcomerating	5	high_cue	high_stim	40.45	Strong	40.45	Strong	0.92	1.79	task-social/outcomerating/task-vicarious_scale.png	n/a	n/a	n/a	n/a	n/a	n/a	n/a	n/a
175.69	0.98	vicarious	cue	6	low_cue	n/a	n/a	n/a	n/a	n/a	n/a	n/a	task-social/cue/runtype-vicarious/scl/l031.png	n/a	n/a	n/a	n/a	n/a	n/a	n/a	n/a
178.49	2.55	vicarious	expectrating	6	low_cue	n/a	26.67	Moderate	26.67	Moderate	0.7	1.85	task-social/cue/runtype-vicarious/scl/l031.png	n/a	n/a	n/a	n/a	n/a	n/a	n/a	n/a
187.67	5.0	vicarious	stimulus	6	low_cue	high_stim	n/a	n/a	n/a	n/a	n/a	n/a	task-social/stim/runtype-vicarious/kz120t2aaaff_H.mp4	n/a	n/a	n/a	n/a	n/a	n/a	n/a	n/a
196.0	2.78	vicarious	outcomerating	6	low_cue	high_stim	11.08	Moderate	11.08	Moderate	0.43	2.35	task-social/outcomerating/task-vicarious_scale.png	n/a	n/a	n/a	n/a	n/a	n/a	n/a	n/a
203.08	0.99	vicarious	cue	7	high_cue	n/a	n/a	n/a	n/a	n/a	n/a	n/a	task-social/cue/runtype-vicarious/sch/h045.png	n/a	n/a	n/a	n/a	n/a	n/a	n/a	n/a
205.38	1.51	vicarious	expectrating	7	high_cue	n/a	80.27	Very Strong	80.27	Very Strong	0.05	1.46	task-social/cue/runtype-vicarious/sch/h045.png	n/a	n/a	n/a	n/a	n/a	n/a	n/a	n/a
217.57	5.0	vicarious	stimulus	7	high_cue	med_stim	n/a	n/a	n/a	n/a	n/a	n/a	task-social/stim/runtype-vicarious/bg096t2aaaff_M.mp4	n/a	n/a	n/a	n/a	n/a	n/a	n/a	n/a
229.99	1.97	vicarious	outcomerating	7	high_cue	med_stim	78.78	Very Strong	78.78	Very Strong	0.05	1.92	task-social/outcomerating/task-vicarious_scale.png	n/a	n/a	n/a	n/a	n/a	n/a	n/a	n/a
235.78	0.99	vicarious	cue	8	high_cue	n/a	n/a	n/a	n/a	n/a	n/a	n/a	task-social/cue/runtype-vicarious/sch/h007.png	n/a	n/a	n/a	n/a	n/a	n/a	n/a	n/a
237.78	2.58	vicarious	expectrating	8	high_cue	n/a	57.26	Strong	57.26	Strong	0.7	1.88	task-social/cue/runtype-vicarious/sch/h007.png	n/a	n/a	n/a	n/a	n/a	n/a	n/a	n/a
245.27	5.0	vicarious	stimulus	8	high_cue	low_stim	n/a	n/a	n/a	n/a	n/a	n/a	task-social/stim/runtype-vicarious/hs107t2aeunaff_L.mp4	n/a	n/a	n/a	n/a	n/a	n/a	n/a	n/a
256.99	3.54	vicarious	outcomerating	8	high_cue	low_stim	21.2	Moderate	21.2	Moderate	0.52	3.02	task-social/outcomerating/task-vicarious_scale.png	n/a	n/a	n/a	n/a	n/a	n/a	n/a	n/a
262.79	0.98	vicarious	cue	9	low_cue	n/a	n/a	n/a	n/a	n/a	n/a	n/a	task-social/cue/runtype-vicarious/scl/l014.png	n/a	n/a	n/a	n/a	n/a	n/a	n/a	n/a
264.99	2.69	vicarious	expectrating	9	low_cue	n/a	31.08	Strong	31.08	Strong	0.12	2.57	task-social/cue/runtype-vicarious/scl/l014.png	n/a	n/a	n/a	n/a	n/a	n/a	n/a	n/a
272.77	5.0	vicarious	stimulus	9	low_cue	high_stim	n/a	n/a	n/a	n/a	n/a	n/a	task-social/stim/runtype-vicarious/hs107t1afaff_H.mp4	n/a	n/a	n/a	n/a	n/a	n/a	n/a	n/a
289.8	1.98	vicarious	outcomerating	9	low_cue	high_stim	52.35	Strong	52.35	Strong	0.62	1.37	task-social/outcomerating/task-vicarious_scale.png	n/a	n/a	n/a	n/a	n/a	n/a	n/a	n/a
294.58	0.99	vicarious	cue	10	low_cue	n/a	n/a	n/a	n/a	n/a	n/a	n/a	task-social/cue/runtype-vicarious/scl/l019.png	n/a	n/a	n/a	n/a	n/a	n/a	n/a	n/a
297.49	1.94	vicarious	expectrating	10	low_cue	n/a	23.56	Moderate	23.56	Moderate	0.05	1.89	task-social/cue/runtype-vicarious/scl/l019.png	n/a	n/a	n/a	n/a	n/a	n/a	n/a	n/a
308.87	5.0	vicarious	stimulus	10	low_cue	low_stim	n/a	n/a	n/a	n/a	n/a	n/a	task-social/stim/runtype-vicarious/bg096t2afunaff_L.mp4	n/a	n/a	n/a	n/a	n/a	n/a	n/a	n/a
318.79	1.68	vicarious	outcomerating	10	low_cue	low_stim	26.67	Moderate	26.67	Moderate	0.12	1.57	task-social/outcomerating/task-vicarious_scale.png	n/a	n/a	n/a	n/a	n/a	n/a	n/a	n/a
332.98	0.99	vicarious	cue	11	low_cue	n/a	n/a	n/a	n/a	n/a	n/a	n/a	task-social/cue/runtype-vicarious/scl/l027.png	n/a	n/a	n/a	n/a	n/a	n/a	n/a	n/a
335.58	1.49	vicarious	expectrating	11	low_cue	n/a	24.29	Moderate	24.29	Moderate	0.7	0.79	task-social/cue/runtype-vicarious/scl/l027.png	n/a	n/a	n/a	n/a	n/a	n/a	n/a	n/a
353.67	5.0	vicarious	stimulus	11	low_cue	low_stim	n/a	n/a	n/a	n/a	n/a	n/a	task-social/stim/runtype-vicarious/mg101t2afunaff_L.mp4	n/a	n/a	n/a	n/a	n/a	n/a	n/a	n/a
361.99	1.8	vicarious	outcomerating	11	low_cue	low_stim	17.34	Moderate	17.34	Moderate	0.38	1.42	task-social/outcomerating/task-vicarious_scale.png	n/a	n/a	n/a	n/a	n/a	n/a	n/a	n/a
372.28	0.99	vicarious	cue	12	low_cue	n/a	n/a	n/a	n/a	n/a	n/a	n/a	task-social/cue/runtype-vicarious/scl/l010.png	n/a	n/a	n/a	n/a	n/a	n/a	n/a	n/a
374.28	1.95	vicarious	expectrating	12	low_cue	n/a	23.59	Moderate	23.59	Moderate	0.4	1.55	task-social/cue/runtype-vicarious/scl/l010.png	n/a	n/a	n/a	n/a	n/a	n/a	n/a	n/a
381.37	5.0	vicarious	stimulus	12	low_cue	med_stim	n/a	n/a	n/a	n/a	n/a	n/a	task-social/stim/runtype-vicarious/mg101t2aeunaff_M.mp4	n/a	n/a	n/a	n/a	n/a	n/a	n/a	n/a
394.79	2.27	vicarious	outcomerating	12	low_cue	med_stim	35.36	Strong	35.36	Strong	0.65	1.62	task-social/outcomerating/task-vicarious_scale.png	n/a	n/a	n/a	n/a	n/a	n/a	n/a	n/a
