onset	duration	run_type	trial_type	trial_index	cue	stimulusintensity	rating_value	rating_glmslabel	rating_value_fillna	rating_glmslabel_fillna	rating_mouseonset	rating_mousedur	stim_file_TODO	pain_onset_ttl1	pain_onset_ttl2	pain_onset_ttl3	pain_onset_ttl4	pain_stimulus_delivery_success	cognitive_correct_response	cognitive_participant_response	cognitive_response_accuracy
10.58	0.99	cognitive	cue	1	low_cue	n/a	n/a	n/a	n/a	n/a	n/a	n/a	task-social/cue/runtype-cognitive/scl/l017.png	n/a	n/a	n/a	n/a	n/a	n/a	n/a	n/a
12.34	2.04	cognitive	expectrating	1	low_cue	n/a	17.03	Moderate	17.03	Moderate	0.45	1.59	task-social/cue/runtype-cognitive/scl/l017.png	n/a	n/a	n/a	n/a	n/a	n/a	n/a	n/a
23.09	5.0	cognitive	stimulus	1	low_cue	low_stim	n/a	n/a	n/a	n/a	n/a	n/a	task-social/stim/runtype-cognitive/24_50_R.jpg	n/a	n/a	n/a	n/a	n/a	diff	diff	True
31.09	2.82	cognitive	outcomerating	1	low_cue	low_stim	10.89	Moderate	10.89	Moderate	0.45	1.59	task-social/outcomerating/task-cognitive_scale.png	n/a	n/a	n/a	n/a	n/a	n/a	n/a	n/a
35.68	0.99	cognitive	cue	2	low_cue	n/a	n/a	n/a	n/a	n/a	n/a	n/a	task-social/cue/runtype-cognitive/scl/l002.png	n/a	n/a	n/a	n/a	n/a	n/a	n/a	n/a
37.99	2.02	cognitive	expectrating	2	low_cue	n/a	13.2	Moderate	13.2	Moderate	0.08	1.93	task-social/cue/runtype-cognitive/scl/l002.png	n/a	n/a	n/a	n/a	n/a	n/a	n/a	n/a
45.8	5.0	cognitive	stimulus	2	low_cue	med_stim	n/a	n/a	n/a	n/a	n/a	n/a	task-social/stim/runtype-cognitive/45_100_R.jpg	n/a	n/a	n/a	n/a	n/a	diff	diff	True
56.29	1.47	cognitive	outcomerating	2	low_cue	med_stim	13.48	Moderate	13.48	Moderate	0.08	1.93	task-social/outcomerating/task-cognitive_scale.png	n/a	n/a	n/a	n/a	n/a	n/a	n/a	n/a
61.29	0.98	cognitive	cue	3	low_cue	n/a	n/a	n/a	n/a	n/a	n/a	n/a	task-social/cue/runtype-cognitive/scl/l006.png	n/a	n/a	n/a	n/a	n/a	n/a	n/a	n/a
64.2	2.25	cognitive	expectrating	3	low_cue	n/a	10.99	Moderate	10.99	Moderate	0.42	1.83	task-social/cue/runtype-cognitive/scl/l006.png	n/a	n/a	n/a	n/a	n/a	n/a	n/a	n/a
74.19	5.0	cognitive	stimulus	3	low_cue	low_stim	n/a	n/a	n/a	n/a	n/a	n/a	task-social/stim/runtype-cognitive/9_50.jpg	n/a	n/a	n/a	n/a	n/a	same	same	True
86.28	2.91	cognitive	outcomerating	3	low_cue	low_stim	4.17	Weak	4.17	Weak	0.42	1.83	task-social/outcomerating/task-cognitive_scale.png	n/a	n/a	n/a	n/a	n/a	n/a	n/a	n/a
91.28	0.99	cognitive	cue	4	low_cue	n/a	n/a	n/a	n/a	n/a	n/a	n/a	task-social/cue/runtype-cognitive/scl/l016.png	n/a	n/a	n/a	n/a	n/a	n/a	n/a	n/a
93.68	3.47	cognitive	expectrating	4	low_cue	n/a	4.86	Weak	4.86	Weak	2.35	1.12	task-social/cue/runtype-cognitive/scl/l016.png	n/a	n/a	n/a	n/a	n/a	n/a	n/a	n/a
101.79	5.0	cognitive	stimulus	4	low_cue	high_stim	n/a	n/a	n/a	n/a	n/a	n/a	task-social/stim/runtype-cognitive/9_150.jpg	n/a	n/a	n/a	n/a	n/a	same	diff	False
112.29	2.7	cognitive	outcomerating	4	low_cue	high_stim	22.92	Moderate	22.92	Moderate	2.35	1.12	task-social/outcomerating/task-cognitive_scale.png	n/a	n/a	n/a	n/a	n/a	n/a	n/a	n/a
119.99	0.98	cognitive	cue	5	high_cue	n/a	n/a	n/a	n/a	n/a	n/a	n/a	task-social/cue/runtype-cognitive/sch/h024.png	n/a	n/a	n/a	n/a	n/a	n/a	n/a	n/a
122.89	1.1	cognitive	expectrating	5	high_cue	n/a	76.02	Very Strong	76.02	Very Strong	0.35	0.75	task-social/cue/runtype-cognitive/sch/h024.png	n/a	n/a	n/a	n/a	n/a	n/a	n/a	n/a
133.8	5.0	cognitive	stimulus	5	high_cue	med_stim	n/a	n/a	n/a	n/a	n/a	n/a	task-social/stim/runtype-cognitive/45_100.jpg	n/a	n/a	n/a	n/a	n/a	same	same	True
142.78	3.52	cognitive	outcomerating	5	high_cue	med_stim	27.69	Moderate	27.69	Moderate	0.35	0.75	task-social/outcomerating/task-cognitive_scale.png	n/a	n/a	n/a	n/a	n/a	n/a	n/a	n/a
153.89	0.98	cognitive	cue	6	high_cue	n/a	n/a	n/a	n/a	n/a	n/a	n/a	task-social/cue/runtype-cognitive/sch/h052.png	n/a	n/a	n/a	n/a	n/a	n/a	n/a	n/a
155.79	3.32	cognitive	expectrating	6	high_cue	n/a	56.31	Strong	56.31	Strong	0.35	2.97	task-social/cue/runtype-cognitive/sch/h052.png	n/a	n/a	n/a	n/a	n/a	n/a	n/a	n/a
169.79	5.0	cognitive	stimulus	6	high_cue	high_stim	n/a	n/a	n/a	n/a	n/a	n/a	task-social/stim/runtype-cognitive/24_150.jpg	n/a	n/a	n/a	n/a	n/a	same	same	True
184.18	n/a	cognitive	outcomerating	6	high_cue	high_stim	n/a	n/a	37.83	Strong	0.35	2.97	task-social/outcomerating/task-cognitive_scale.png	n/a	n/a	n/a	n/a	n/a	n/a	n/a	n/a
194.19	0.98	cognitive	cue	7	high_cue	n/a	n/a	n/a	n/a	n/a	n/a	n/a	task-social/cue/runtype-cognitive/sch/h027.png	n/a	n/a	n/a	n/a	n/a	n/a	n/a	n/a
196.99	2.43	cognitive	expectrating	7	high_cue	n/a	70.84	Very Strong	70.84	Very Strong	0.05	2.38	task-social/cue/runtype-cognitive/sch/h027.png	n/a	n/a	n/a	n/a	n/a	n/a	n/a	n/a
206.19	5.0	cognitive	stimulus	7	high_cue	med_stim	n/a	n/a	n/a	n/a	n/a	n/a	task-social/stim/runtype-cognitive/34_100_R.jpg	n/a	n/a	n/a	n/a	n/a	diff	diff	True
214.2	1.78	cognitive	outcomerating	7	high_cue	med_stim	11.08	Moderate	11.08	Moderate	0.05	2.38	task-social/outcomerating/task-cognitive_scale.png	n/a	n/a	n/a	n/a	n/a	n/a	n/a	n/a
219.18	0.99	cognitive	cue	8	high_cue	n/a	n/a	n/a	n/a	n/a	n/a	n/a	task-social/cue/runtype-cognitive/sch/h037.png	n/a	n/a	n/a	n/a	n/a	n/a	n/a	n/a
222.08	1.39	cognitive	expectrating	8	high_cue	n/a	51.84	Strong	51.84	Strong	0.33	1.06	task-social/cue/runtype-cognitive/sch/h037.png	n/a	n/a	n/a	n/a	n/a	n/a	n/a	n/a
234.49	5.0	cognitive	stimulus	8	high_cue	low_stim	n/a	n/a	n/a	n/a	n/a	n/a	task-social/stim/runtype-cognitive/48_50.jpg	n/a	n/a	n/a	n/a	n/a	same	same	True
242.69	3.73	cognitive	outcomerating	8	high_cue	low_stim	43.35	Strong	43.35	Strong	0.33	1.06	task-social/outcomerating/task-cognitive_scale.png	n/a	n/a	n/a	n/a	n/a	n/a	n/a	n/a
251.38	1.0	cognitive	cue	9	high_cue	n/a	n/a	n/a	n/a	n/a	n/a	n/a	task-social/cue/runtype-cognitive/sch/h002.png	n/a	n/a	n/a	n/a	n/a	n/a	n/a	n/a
253.79	1.38	cognitive	expectrating	9	high_cue	n/a	41.01	Strong	41.01	Strong	0.1	1.28	task-social/cue/runtype-cognitive/sch/h002.png	n/a	n/a	n/a	n/a	n/a	n/a	n/a	n/a
266.68	5.0	cognitive	stimulus	9	high_cue	low_stim	n/a	n/a	n/a	n/a	n/a	n/a	task-social/stim/runtype-cognitive/43_50.jpg	n/a	n/a	n/a	n/a	n/a	same	same	True
280.79	2.72	cognitive	outcomerating	9	high_cue	low_stim	25.95	Moderate	25.95	Moderate	0.1	1.28	task-social/outcomerating/task-cognitive_scale.png	n/a	n/a	n/a	n/a	n/a	n/a	n/a	n/a
285.79	0.98	cognitive	cue	10	high_cue	n/a	n/a	n/a	n/a	n/a	n/a	n/a	task-social/cue/runtype-cognitive/sch/h044.png	n/a	n/a	n/a	n/a	n/a	n/a	n/a	n/a
288.99	2.65	cognitive	expectrating	10	high_cue	n/a	37.43	Strong	37.43	Strong	0.05	2.6	task-social/cue/runtype-cognitive/sch/h044.png	n/a	n/a	n/a	n/a	n/a	n/a	n/a	n/a
297.99	5.0	cognitive	stimulus	10	high_cue	high_stim	n/a	n/a	n/a	n/a	n/a	n/a	task-social/stim/runtype-cognitive/23_150.jpg	n/a	n/a	n/a	n/a	n/a	same	diff	False
311.28	1.89	cognitive	outcomerating	10	high_cue	high_stim	58.09	Strong	58.09	Strong	0.05	2.6	task-social/outcomerating/task-cognitive_scale.png	n/a	n/a	n/a	n/a	n/a	n/a	n/a	n/a
326.19	0.98	cognitive	cue	11	low_cue	n/a	n/a	n/a	n/a	n/a	n/a	n/a	task-social/cue/runtype-cognitive/scl/l031.png	n/a	n/a	n/a	n/a	n/a	n/a	n/a	n/a
328.09	2.0	cognitive	expectrating	11	low_cue	n/a	12.98	Moderate	12.98	Moderate	0.23	1.77	task-social/cue/runtype-cognitive/scl/l031.png	n/a	n/a	n/a	n/a	n/a	n/a	n/a	n/a
342.39	5.0	cognitive	stimulus	11	low_cue	med_stim	n/a	n/a	n/a	n/a	n/a	n/a	task-social/stim/runtype-cognitive/34_100.jpg	n/a	n/a	n/a	n/a	n/a	same	same	True
353.28	2.08	cognitive	outcomerating	11	low_cue	med_stim	21.93	Moderate	21.93	Moderate	0.23	1.77	task-social/outcomerating/task-cognitive_scale.png	n/a	n/a	n/a	n/a	n/a	n/a	n/a	n/a
366.39	0.99	cognitive	cue	12	low_cue	n/a	n/a	n/a	n/a	n/a	n/a	n/a	task-social/cue/runtype-cognitive/scl/l042.png	n/a	n/a	n/a	n/a	n/a	n/a	n/a	n/a
369.19	3.55	cognitive	expectrating	12	low_cue	n/a	32.03	Strong	32.03	Strong	0.65	2.9	task-social/cue/runtype-cognitive/scl/l042.png	n/a	n/a	n/a	n/a	n/a	n/a	n/a	n/a
375.79	5.0	cognitive	stimulus	12	low_cue	high_stim	n/a	n/a	n/a	n/a	n/a	n/a	task-social/stim/runtype-cognitive/22_150.jpg	n/a	n/a	n/a	n/a	n/a	same	same	True
394.78	1.9	cognitive	outcomerating	12	low_cue	high_stim	30.06	Strong	30.06	Strong	0.65	2.9	task-social/outcomerating/task-cognitive_scale.png	n/a	n/a	n/a	n/a	n/a	n/a	n/a	n/a
