onset	duration	trial_type	response_x	response_y	situation	context	modality	stim_file
8.818	32.168	narrative_presentation	n/a	n/a	Slaying of kin unrecognized	town	Text	task-narratives/Narrative3Situation1.txt
40.986	2.653	rating_feeling	592	386	Slaying of kin unrecognized	town	Text	n/a
41.636	2.003	feeling_mouse_trajectory	592	386	Slaying of kin unrecognized	town	Text	n/a
45.035	1.502	rating_expectation	612	408	Slaying of kin unrecognized	town	Text	n/a
45.585	0.952	expectation_mouse_trajectory	612	408	Slaying of kin unrecognized	town	Text	n/a
53.101	17.093	narrative_presentation	n/a	n/a	Erroneous judgement	town	Text	task-narratives/Narrative3Situation2.txt
70.194	2.159	rating_feeling	698	460	Erroneous judgement	town	Text	n/a
70.711	1.642	feeling_mouse_trajectory	698	460	Erroneous judgement	town	Text	n/a
74.211	2.357	rating_expectation	712	458	Erroneous judgement	town	Text	n/a
74.961	1.607	expectation_mouse_trajectory	712	458	Erroneous judgement	town	Text	n/a
80.278	10.391	narrative_presentation	n/a	n/a	Revolt	town	Text	task-narratives/Narrative3Situation3.txt
90.669	1.668	rating_feeling	723	501	Revolt	town	Text	n/a
91.453	0.885	feeling_mouse_trajectory	723	501	Revolt	town	Text	n/a
94.685	2.384	rating_expectation	876	507	Revolt	town	Text	n/a
95.085	1.984	expectation_mouse_trajectory	876	507	Revolt	town	Text	n/a
99.752	28.147	narrative_presentation	n/a	n/a	The enigma	city	Text	task-narratives/Narrative3Situation4.txt
127.899	2.504	rating_feeling	698	526	The enigma	city	Text	n/a
128.816	1.587	feeling_mouse_trajectory	698	526	The enigma	city	Text	n/a
131.918	2.003	rating_expectation	949	495	The enigma	city	Text	n/a
132.651	1.269	expectation_mouse_trajectory	949	495	The enigma	city	Text	n/a
139.017	15.08	narrative_presentation	n/a	n/a	Deliverance	city	Text	task-narratives/Narrative3Situation5.txt
154.097	3.011	rating_feeling	705	456	Deliverance	city	Text	n/a
155.097	2.011	feeling_mouse_trajectory	705	456	Deliverance	city	Text	n/a
158.109	1.643	rating_expectation	544	435	Deliverance	city	Text	n/a
158.909	0.843	expectation_mouse_trajectory	544	435	Deliverance	city	Text	n/a
165.177	15.076	narrative_presentation	n/a	n/a	Remorse	city	Text	task-narratives/Narrative3Situation6.txt
180.253	2.968	rating_feeling	709	493	Remorse	city	Text	n/a
180.936	2.285	feeling_mouse_trajectory	709	493	Remorse	city	Text	n/a
184.269	2.985	rating_expectation	680	491	Remorse	city	Text	n/a
185.402	1.851	expectation_mouse_trajectory	680	491	Remorse	city	Text	n/a
192.337	36.849	narrative_presentation	n/a	n/a	Loss of loved one	forest	Text	task-narratives/Narrative3Situation7.txt
229.186	3.051	rating_feeling	879	520	Loss of loved one	forest	Text	n/a
230.036	2.201	feeling_mouse_trajectory	879	520	Loss of loved one	forest	Text	n/a
233.204	2.218	rating_expectation	647	459	Loss of loved one	forest	Text	n/a
233.904	1.518	expectation_mouse_trajectory	647	459	Loss of loved one	forest	Text	n/a
239.272	9.706	narrative_presentation	n/a	n/a	All sacrificed for passion	forest	Text	task-narratives/Narrative3Situation8.txt
248.977	3.026	rating_feeling	666	463	All sacrificed for passion	forest	Text	n/a
249.544	2.459	feeling_mouse_trajectory	666	463	All sacrificed for passion	forest	Text	n/a
252.995	2.424	rating_expectation	685	476	All sacrificed for passion	forest	Text	n/a
253.745	1.674	expectation_mouse_trajectory	685	476	All sacrificed for passion	forest	Text	n/a
258.079	27.479	narrative_presentation	n/a	n/a	Discovery of dishonour of loved one	forest	Text	task-narratives/Narrative3Situation9.txt
285.558	1.251	rating_feeling	635	443	Discovery of dishonour of loved one	forest	Text	n/a
285.958	0.851	feeling_mouse_trajectory	635	443	Discovery of dishonour of loved one	forest	Text	n/a
289.575	1.227	rating_expectation	659	415	Discovery of dishonour of loved one	forest	Text	n/a
289.942	0.86	expectation_mouse_trajectory	659	415	Discovery of dishonour of loved one	forest	Text	n/a
295.643	22.444	narrative_presentation	n/a	n/a	Conflict with a god	swamp	Text	task-narratives/Narrative4Situation1.txt
318.087	2.384	rating_feeling	705	472	Conflict with a god	swamp	Text	n/a
318.72	1.751	feeling_mouse_trajectory	705	472	Conflict with a god	swamp	Text	n/a
322.104	1.501	rating_expectation	741	508	Conflict with a god	swamp	Text	n/a
322.571	1.034	expectation_mouse_trajectory	741	508	Conflict with a god	swamp	Text	n/a
331.173	24.797	narrative_presentation	n/a	n/a	Adultery	swamp	Text	task-narratives/Narrative4Situation2.txt
355.97	2.336	rating_feeling	632	428	Adultery	swamp	Text	n/a
356.62	1.686	feeling_mouse_trajectory	632	428	Adultery	swamp	Text	n/a
359.986	1.418	rating_expectation	582	395	Adultery	swamp	Text	n/a
360.452	0.951	expectation_mouse_trajectory	582	395	Adultery	swamp	Text	n/a
366.053	21.11	narrative_presentation	n/a	n/a	Slaying of kin unrecognized	swamp	Text	task-narratives/Narrative4Situation3.txt
387.163	2.657	rating_feeling	555	414	Slaying of kin unrecognized	swamp	Text	n/a
387.563	2.257	feeling_mouse_trajectory	555	414	Slaying of kin unrecognized	swamp	Text	n/a
391.18	1.175	rating_expectation	608	417	Slaying of kin unrecognized	swamp	Text	n/a
391.38	0.975	expectation_mouse_trajectory	608	417	Slaying of kin unrecognized	swamp	Text	n/a
396.264	21.11	narrative_presentation	n/a	n/a	Fatal imprudence	hospital	Text	task-narratives/Narrative4Situation4.txt
417.374	1.334	rating_feeling	618	392	Fatal imprudence	hospital	Text	n/a
417.791	0.917	feeling_mouse_trajectory	618	392	Fatal imprudence	hospital	Text	n/a
421.392	1.234	rating_expectation	612	354	Fatal imprudence	hospital	Text	n/a
421.608	1.017	expectation_mouse_trajectory	612	354	Fatal imprudence	hospital	Text	n/a
426.459	25.795	narrative_presentation	n/a	n/a	Erroneous judgement	hospital	Text	task-narratives/Narrative4Situation5.txt
452.254	2.885	rating_feeling	617	421	Erroneous judgement	hospital	Text	n/a
453.171	1.968	feeling_mouse_trajectory	617	421	Erroneous judgement	hospital	Text	n/a
456.271	1.818	rating_expectation	639	440	Erroneous judgement	hospital	Text	n/a
456.721	1.368	expectation_mouse_trajectory	639	440	Erroneous judgement	hospital	Text	n/a
461.339	23.444	narrative_presentation	n/a	n/a	Necessity of sacrificing loved ones	hospital	Text	task-narratives/Narrative4Situation6.txt
484.783	1.604	rating_feeling	633	436	Necessity of sacrificing loved ones	hospital	Text	n/a
485.199	1.188	feeling_mouse_trajectory	633	436	Necessity of sacrificing loved ones	hospital	Text	n/a
488.803	0.953	rating_expectation	580	424	Necessity of sacrificing loved ones	hospital	Text	n/a
488.903	0.853	expectation_mouse_trajectory	580	424	Necessity of sacrificing loved ones	hospital	Text	n/a
493.868	19.092	narrative_presentation	n/a	n/a	Recovery of a lost one	prison	Text	task-narratives/Narrative4Situation7.txt
512.96	1.877	rating_feeling	709	457	Recovery of a lost one	prison	Text	n/a
513.66	1.177	feeling_mouse_trajectory	709	457	Recovery of a lost one	prison	Text	n/a
516.978	1.376	rating_expectation	698	448	Recovery of a lost one	prison	Text	n/a
517.345	1.009	expectation_mouse_trajectory	698	448	Recovery of a lost one	prison	Text	n/a
522.045	38.533	narrative_presentation	n/a	n/a	Crimes of love	prison	Text	task-narratives/Narrative4Situation8.txt
560.578	2.059	rating_feeling	588	373	Crimes of love	prison	Text	n/a
561.245	1.393	feeling_mouse_trajectory	588	373	Crimes of love	prison	Text	n/a
564.596	1.241	rating_expectation	585	395	Crimes of love	prison	Text	n/a
564.913	0.924	expectation_mouse_trajectory	585	395	Crimes of love	prison	Text	n/a
573.681	12.39	narrative_presentation	n/a	n/a	Abduction	prison	Text	task-narratives/Narrative4Situation9.txt
586.071	1.651	rating_feeling	602	401	Abduction	prison	Text	n/a
586.404	1.317	feeling_mouse_trajectory	602	401	Abduction	prison	Text	n/a
590.088	1.351	rating_expectation	593	380	Abduction	prison	Text	n/a
590.205	1.234	expectation_mouse_trajectory	593	380	Abduction	prison	Text	n/a
