onset	duration	subtask_type	event_type	value	response_accuracy	stim_file	participant_response	reaction_time
8.114	1.034	memory	dummy	study_dummy	n/a	task-memory/obj185moon.png	n/a	n/a
10.182	1.017	memory	dummy	study_dummy	n/a	task-memory/obj187motorcycle.png	n/a	n/a
12.232	1.034	memory	dummy	study_dummy	n/a	task-memory/obj208paper.png	n/a	n/a
14.283	1.034	memory	study	study	n/a	task-memory/obj311train.png	n/a	n/a
16.334	1.034	memory	study	study	n/a	task-memory/obj205pan.png	n/a	n/a
18.401	1.017	memory	study	study	n/a	task-memory/obj033bottle.png	n/a	n/a
20.452	1.017	memory	study	study	n/a	task-memory/obj306toilet.png	n/a	n/a
22.503	1.017	memory	study	study	n/a	task-memory/obj190mousetrap.png	n/a	n/a
24.537	1.017	memory	study	study	n/a	task-memory/obj222pipe.png	n/a	n/a
26.571	1.017	memory	study	study	n/a	task-memory/obj203paintbrush.png	n/a	n/a
28.605	1.017	memory	study	study	n/a	task-memory/obj050cannon.png	n/a	n/a
30.639	1.017	memory	study	study	n/a	task-memory/obj121globe.png	n/a	n/a
32.673	1.017	memory	study	study	n/a	task-memory/obj217piano.png	n/a	n/a
34.707	1.017	memory	study	study	n/a	task-memory/obj304tire.png	n/a	n/a
36.742	1.017	memory	study	study	n/a	task-memory/obj154key.png	n/a	n/a
38.776	1.017	memory	study	study	n/a	task-memory/obj135heart.png	n/a	n/a
40.81	1.017	memory	study	study	n/a	task-memory/obj189mouse.png	n/a	n/a
42.844	1.017	memory	study	study	n/a	task-memory/obj126gun.png	n/a	n/a
44.878	1.017	memory	study	study	n/a	task-memory/obj235rabbit.png	n/a	n/a
46.912	1.017	memory	study	study	n/a	task-memory/obj150jar.png	n/a	n/a
48.946	1.017	memory	study	study	n/a	task-memory/obj097eye.png	n/a	n/a
50.98	1.017	memory	study	study	n/a	task-memory/obj069corn.png	n/a	n/a
53.014	1.034	memory	study	study	n/a	task-memory/obj008ashtray.png	n/a	n/a
55.065	1.034	memory	dummy	study_dummy	n/a	task-memory/obj265shoe.png	n/a	n/a
57.116	1.034	memory	dummy	study_dummy	n/a	task-memory/obj277snake.png	n/a	n/a
59.167	1.017	memory	dummy	study_dummy	n/a	task-memory/obj289submarine.png	n/a	n/a
71.555	25.0	memory	distraction_math	math	n/a	n/a	n/a	n/a
99.665	25.0	memory	distraction_math	math	n/a	n/a	n/a	n/a
127.909	25.0	memory	distraction_math	math	n/a	n/a	n/a	n/a
155.986	25.0	memory	distraction_math	math	n/a	n/a	n/a	n/a
189.615	2.0	memory	test	test_new	correct	task-memory/obj241ring.png	n/a	n/a
192.35	1.916	memory	test	test_new	correct	task-memory/obj157knife.png	new	n/a
195.401	1.038	memory	test	test_new	correct	task-memory/obj039bus.png	new	n/a
198.185	0.729	memory	test	test_old	incorrect	task-memory/obj306toilet.png	new	n/a
201.036	0.703	memory	test	test_new	correct	task-memory/obj103fire.png	new	n/a
203.721	0.597	memory	test	test_old	correct	task-memory/obj135heart.png	old	n/a
206.655	0.456	memory	test	test_old	correct	task-memory/obj222pipe.png	old	n/a
209.473	0.492	memory	test	test_old	correct	task-memory/obj126gun.png	old	n/a
212.207	1.12	memory	test	test_old	correct	task-memory/obj033bottle.png	old	n/a
214.991	0.804	memory	test	test_old	incorrect	task-memory/obj121globe.png	new	n/a
217.842	0.819	memory	test	test_new	correct	task-memory/obj060chimney.png	new	n/a
220.443	0.668	memory	test	test_old	correct	task-memory/obj203paintbrush.png	old	n/a
223.461	0.936	memory	test	test_new	correct	task-memory/obj171lizard.png	new	n/a
226.262	0.714	memory	test	test_new	incorrect	task-memory/obj285squirrel.png	old	n/a
229.263	1.053	memory	test	test_new	correct	task-memory/obj194nest.png	new	n/a
232.114	1.006	memory	test	test_new	correct	task-memory/obj316turkey.png	new	n/a
234.749	0.859	memory	test	test_new	correct	task-memory/obj329walrus.png	new	n/a
237.733	1.093	memory	test	test_old	incorrect	task-memory/obj097eye.png	new	n/a
240.618	1.073	memory	test	test_old	incorrect	task-memory/obj069corn.png	new	n/a
243.169	0.987	memory	test	test_new	correct	task-memory/obj042cactus.png	new	n/a
246.203	0.644	memory	test	test_old	correct	task-memory/obj154key.png	old	n/a
248.904	1.228	memory	test	test_old	incorrect	task-memory/obj217piano.png	new	n/a
251.638	0.598	memory	test	test_old	correct	task-memory/obj235rabbit.png	old	n/a
254.389	1.262	memory	test	test_old	correct	task-memory/obj190mousetrap.png	old	n/a
257.174	0.81	memory	test	test_old	incorrect	task-memory/obj050cannon.png	new	n/a
259.841	0.854	memory	test	test_new	incorrect	task-memory/obj258saxophone.png	old	n/a
262.492	0.698	memory	test	test_old	incorrect	task-memory/obj150jar.png	new	n/a
265.277	0.704	memory	test	test_new	correct	task-memory/obj188mountain.png	new	n/a
268.128	0.637	memory	test	test_new	correct	task-memory/obj197nurse.png	new	n/a
271.079	0.639	memory	test	test_new	correct	task-memory/obj233pyramid.png	new	n/a
273.713	0.651	memory	test	test_new	correct	task-memory/obj160ladder.png	new	n/a
276.698	1.036	memory	test	test_new	correct	task-memory/obj170lipstick.png	new	n/a
279.499	0.887	memory	test	test_new	correct	task-memory/obj031book.png	new	n/a
282.183	1.389	memory	test	test_new	correct	task-memory/obj259scarf.png	new	n/a
284.834	0.665	memory	test	test_old	incorrect	task-memory/obj304tire.png	new	n/a
287.435	0.5	memory	test	test_old	correct	task-memory/obj189mouse.png	old	n/a
290.369	0.746	memory	test	test_old	incorrect	task-memory/obj008ashtray.png	new	n/a
293.02	0.711	memory	test	test_new	correct	task-memory/obj124grapes.png	new	n/a
295.855	1.132	memory	test	test_old	incorrect	task-memory/obj205pan.png	new	n/a
298.406	0.759	memory	test	test_old	incorrect	task-memory/obj311train.png	new	n/a
308.91	1.017	memory	dummy	study_dummy	n/a	task-memory/obj007arrow.png	n/a	n/a
310.944	1.017	memory	dummy	study_dummy	n/a	task-memory/obj036bread.png	n/a	n/a
312.978	1.017	memory	dummy	study_dummy	n/a	task-memory/obj151puzzle.png	n/a	n/a
315.012	1.017	memory	study	study	n/a	task-memory/obj070cow.png	n/a	n/a
317.046	1.017	memory	study	study	n/a	task-memory/obj030bone.png	n/a	n/a
319.08	1.017	memory	study	study	n/a	task-memory/obj249rooster.png	n/a	n/a
321.114	1.017	memory	study	study	n/a	task-memory/obj331watermelon.png	n/a	n/a
323.148	1.034	memory	study	study	n/a	task-memory/obj202package.png	n/a	n/a
325.199	1.034	memory	study	study	n/a	task-memory/obj267shower.png	n/a	n/a
327.25	1.034	memory	study	study	n/a	task-memory/obj210peacock.png	n/a	n/a
329.301	1.017	memory	study	study	n/a	task-memory/obj136heel.png	n/a	n/a
331.351	1.017	memory	study	study	n/a	task-memory/obj243robot.png	n/a	n/a
333.402	1.017	memory	study	study	n/a	task-memory/obj098fan.png	n/a	n/a
335.436	1.017	memory	study	study	n/a	task-memory/obj340windmill.png	n/a	n/a
337.47	1.017	memory	study	study	n/a	task-memory/obj118giraffe.png	n/a	n/a
339.504	1.017	memory	study	study	n/a	task-memory/obj323vacuum.png	n/a	n/a
341.539	1.017	memory	study	study	n/a	task-memory/obj207pants.png	n/a	n/a
343.573	1.017	memory	study	study	n/a	task-memory/obj011backpack.png	n/a	n/a
345.607	1.017	memory	study	study	n/a	task-memory/obj173lock.png	n/a	n/a
347.641	1.017	memory	study	study	n/a	task-memory/obj002acorn.png	n/a	n/a
349.675	1.017	memory	study	study	n/a	task-memory/obj137helicopter.png	n/a	n/a
351.709	1.017	memory	study	study	n/a	task-memory/obj176man.png	n/a	n/a
353.743	1.017	memory	study	study	n/a	task-memory/obj132hanger.png	n/a	n/a
355.777	1.017	memory	dummy	study_dummy	n/a	task-memory/obj264shark.png	n/a	n/a
357.811	1.017	memory	dummy	study_dummy	n/a	task-memory/obj303tiger.png	n/a	n/a
359.845	1.017	memory	dummy	study_dummy	n/a	task-memory/obj348zipper.png	n/a	n/a
372.05	25.0	memory	distraction_math	math	n/a	n/a	n/a	n/a
400.11	25.0	memory	distraction_math	math	n/a	n/a	n/a	n/a
428.171	25.0	memory	distraction_math	math	n/a	n/a	n/a	n/a
456.231	25.0	memory	distraction_math	math	n/a	n/a	n/a	n/a
489.794	0.718	memory	test	test_old	incorrect	task-memory/obj176man.png	new	n/a
492.595	0.769	memory	test	test_old	incorrect	task-memory/obj136heel.png	new	n/a
495.613	1.399	memory	test	test_old	incorrect	task-memory/obj011backpack.png	new	n/a
498.547	0.786	memory	test	test_new	correct	task-memory/obj215pencilsharpener.png	new	n/a
501.365	0.672	memory	test	test_old	correct	task-memory/obj331watermelon.png	old	n/a
504.366	0.724	memory	test	test_new	correct	task-memory/obj012ball.png	new	n/a
506.95	0.695	memory	test	test_new	correct	task-memory/obj101fence.png	new	n/a
509.651	1.092	memory	test	test_old	incorrect	task-memory/obj137helicopter.png	new	n/a
512.302	1.215	memory	test	test_old	incorrect	task-memory/obj132hanger.png	new	n/a
515.287	0.749	memory	test	test_new	correct	task-memory/obj053cat.png	new	n/a
517.938	0.721	memory	test	test_new	correct	task-memory/obj074cross.png	new	n/a
520.622	0.708	memory	test	test_new	correct	task-memory/obj079desk.png	new	n/a
523.59	0.873	memory	test	test_new	correct	task-memory/obj015bandaid.png	new	n/a
526.424	1.081	memory	test	test_old	incorrect	task-memory/obj340windmill.png	new	n/a
529.025	0.716	memory	test	test_old	correct	task-memory/obj202package.png	old	n/a
531.743	1.034	memory	test	test_old	incorrect	task-memory/obj249rooster.png	new	n/a
534.594	0.674	memory	test	test_old	correct	task-memory/obj207pants.png	old	n/a
537.195	0.86	memory	test	test_new	correct	task-memory/obj183mirror.png	new	n/a
540.146	0.76	memory	test	test_old	correct	task-memory/obj323vacuum.png	old	n/a
542.98	1.023	memory	test	test_old	correct	task-memory/obj267shower.png	old	n/a
545.931	0.772	memory	test	test_new	correct	task-memory/obj307tomato.png	new	n/a
548.482	0.765	memory	test	test_new	correct	task-memory/obj250rope.png	new	n/a
551.283	0.818	memory	test	test_new	correct	task-memory/obj237radio.png	new	n/a
553.918	1.239	memory	test	test_old	incorrect	task-memory/obj118giraffe.png	new	n/a
556.519	0.655	memory	test	test_new	correct	task-memory/obj224pitchfork.png	new	n/a
559.253	0.933	memory	test	test_new	correct	task-memory/obj003alligator.png	new	n/a
561.971	0.951	memory	test	test_old	incorrect	task-memory/obj070cow.png	new	n/a
564.755	0.914	memory	test	test_new	correct	task-memory/obj046camera.png	new	n/a
567.756	0.876	memory	test	test_old	correct	task-memory/obj243robot.png	old	n/a
570.341	0.94	memory	test	test_old	correct	task-memory/obj098fan.png	old	n/a
573.025	1.005	memory	test	test_old	correct	task-memory/obj173lock.png	old	n/a
575.959	0.971	memory	test	test_new	correct	task-memory/obj262screw.png	new	n/a
578.677	1.716	memory	test	test_old	correct	task-memory/obj210peacock.png	old	n/a
581.611	0.982	memory	test	test_new	correct	task-memory/obj052carrot.png	new	n/a
584.579	0.983	memory	test	test_new	incorrect	task-memory/obj270skeleton.png	old	n/a
587.297	0.675	memory	test	test_old	correct	task-memory/obj030bone.png	old	n/a
589.881	1.39	memory	test	test_new	correct	task-memory/obj090drum.png	new	n/a
592.832	0.795	memory	test	test_old	incorrect	task-memory/obj002acorn.png	new	n/a
595.483	0.761	memory	test	test_new	correct	task-memory/obj343witch.png	new	n/a
598.101	0.757	memory	test	test_new	correct	task-memory/obj330watch.png	new	n/a
