onset	duration	run_type	trial_type	trial_index	cue	stimulusintensity	rating_value	rating_glmslabel	rating_value_fillna	rating_glmslabel_fillna	rating_mouseonset	rating_mousedur	stim_file	pain_onset_ttl1	pain_onset_ttl2	pain_onset_ttl3	pain_onset_ttl4	pain_stimulus_delivery_success	cognitive_correct_response	cognitive_participant_response	cognitive_response_accuracy
14.18	0.99	cognitive	cue	1	low_cue	n/a	n/a	n/a	n/a	n/a	n/a	n/a	n/a	n/a	n/a	n/a	n/a	n/a	n/a	n/a	n/a
16.0	1.74	cognitive	expectrating	1	low_cue	n/a	14.92	Moderate	14.92	Moderate	0.43	1.31	task-social/cue/runtype-cognitive/scl/l047.png	n/a	n/a	n/a	n/a	n/a	n/a	n/a	n/a
22.59	5.0	cognitive	stimulus	1	low_cue	low_stim	n/a	n/a	n/a	n/a	n/a	n/a	task-social/stim/runtype-cognitive/47_50.jpg	n/a	n/a	n/a	n/a	n/a	same	same	True
35.29	2.32	cognitive	outcomerating	1	low_cue	low_stim	15.28	Moderate	15.28	Moderate	0.52	1.8	task-social/outcomerating/task-cognitive_scale.png	n/a	n/a	n/a	n/a	n/a	n/a	n/a	n/a
40.59	0.98	cognitive	cue	2	low_cue	n/a	n/a	n/a	n/a	n/a	n/a	n/a	n/a	n/a	n/a	n/a	n/a	n/a	n/a	n/a	n/a
43.6	1.95	cognitive	expectrating	2	low_cue	n/a	12.03	Moderate	12.03	Moderate	0.55	1.4	task-social/cue/runtype-cognitive/scl/l031.png	n/a	n/a	n/a	n/a	n/a	n/a	n/a	n/a
50.18	5.0	cognitive	stimulus	2	low_cue	med_stim	n/a	n/a	n/a	n/a	n/a	n/a	task-social/stim/runtype-cognitive/27_100.jpg	n/a	n/a	n/a	n/a	n/a	same	same	True
63.69	2.66	cognitive	outcomerating	2	low_cue	med_stim	28.52	Moderate	28.52	Moderate	1.0	1.66	task-social/outcomerating/task-cognitive_scale.png	n/a	n/a	n/a	n/a	n/a	n/a	n/a	n/a
72.19	0.98	cognitive	cue	3	high_cue	n/a	n/a	n/a	n/a	n/a	n/a	n/a	n/a	n/a	n/a	n/a	n/a	n/a	n/a	n/a	n/a
75.19	2.2	cognitive	expectrating	3	high_cue	n/a	82.44	Very Strong	82.44	Very Strong	0.57	1.64	task-social/cue/runtype-cognitive/sch/h026.png	n/a	n/a	n/a	n/a	n/a	n/a	n/a	n/a
86.09	5.0	cognitive	stimulus	3	high_cue	med_stim	n/a	n/a	n/a	n/a	n/a	n/a	task-social/stim/runtype-cognitive/47_100_R.jpg	n/a	n/a	n/a	n/a	n/a	diff	diff	True
95.88	2.58	cognitive	outcomerating	3	high_cue	med_stim	29.86	Strong	29.86	Strong	1.43	1.15	task-social/outcomerating/task-cognitive_scale.png	n/a	n/a	n/a	n/a	n/a	n/a	n/a	n/a
108.99	0.99	cognitive	cue	4	low_cue	n/a	n/a	n/a	n/a	n/a	n/a	n/a	n/a	n/a	n/a	n/a	n/a	n/a	n/a	n/a	n/a
110.89	1.32	cognitive	expectrating	4	low_cue	n/a	0.92	No sensation	0.92	No sensation	0.52	0.81	task-social/cue/runtype-cognitive/scl/l040.png	n/a	n/a	n/a	n/a	n/a	n/a	n/a	n/a
120.29	5.0	cognitive	stimulus	4	low_cue	high_stim	n/a	n/a	n/a	n/a	n/a	n/a	task-social/stim/runtype-cognitive/10_150.jpg	n/a	n/a	n/a	n/a	n/a	same	same	True
130.49	3.02	cognitive	outcomerating	4	low_cue	high_stim	18.0	Moderate	18.0	Moderate	0.75	2.27	task-social/outcomerating/task-cognitive_scale.png	n/a	n/a	n/a	n/a	n/a	n/a	n/a	n/a
145.08	0.99	cognitive	cue	5	high_cue	n/a	n/a	n/a	n/a	n/a	n/a	n/a	n/a	n/a	n/a	n/a	n/a	n/a	n/a	n/a	n/a
146.8	1.93	cognitive	expectrating	5	high_cue	n/a	24.08	Moderate	24.08	Moderate	0.75	1.18	task-social/cue/runtype-cognitive/sch/h004.png	n/a	n/a	n/a	n/a	n/a	n/a	n/a	n/a
155.29	5.0	cognitive	stimulus	5	high_cue	med_stim	n/a	n/a	n/a	n/a	n/a	n/a	task-social/stim/runtype-cognitive/38_100.jpg	n/a	n/a	n/a	n/a	n/a	same	same	True
166.49	2.55	cognitive	outcomerating	5	high_cue	med_stim	8.1	Weak	8.1	Weak	1.17	1.39	task-social/outcomerating/task-cognitive_scale.png	n/a	n/a	n/a	n/a	n/a	n/a	n/a	n/a
171.39	0.98	cognitive	cue	6	low_cue	n/a	n/a	n/a	n/a	n/a	n/a	n/a	n/a	n/a	n/a	n/a	n/a	n/a	n/a	n/a	n/a
174.49	1.6	cognitive	expectrating	6	low_cue	n/a	11.31	Moderate	11.31	Moderate	0.43	1.17	task-social/cue/runtype-cognitive/scl/l055.png	n/a	n/a	n/a	n/a	n/a	n/a	n/a	n/a
182.68	5.0	cognitive	stimulus	6	low_cue	high_stim	n/a	n/a	n/a	n/a	n/a	n/a	task-social/stim/runtype-cognitive/11_150.jpg	n/a	n/a	n/a	n/a	n/a	same	same	True
194.49	3.08	cognitive	outcomerating	6	low_cue	high_stim	4.42	Weak	4.42	Weak	0.82	2.26	task-social/outcomerating/task-cognitive_scale.png	n/a	n/a	n/a	n/a	n/a	n/a	n/a	n/a
199.79	0.99	cognitive	cue	7	low_cue	n/a	n/a	n/a	n/a	n/a	n/a	n/a	n/a	n/a	n/a	n/a	n/a	n/a	n/a	n/a	n/a
202.79	2.04	cognitive	expectrating	7	low_cue	n/a	2.54	Barely detectable	2.54	Barely detectable	0.52	1.52	task-social/cue/runtype-cognitive/scl/l054.png	n/a	n/a	n/a	n/a	n/a	n/a	n/a	n/a
218.19	5.0	cognitive	stimulus	7	low_cue	low_stim	n/a	n/a	n/a	n/a	n/a	n/a	task-social/stim/runtype-cognitive/11_50.jpg	n/a	n/a	n/a	n/a	n/a	same	same	True
231.08	2.22	cognitive	outcomerating	7	low_cue	low_stim	0.0	n/a	0.0	n/a	0.5	1.72	task-social/outcomerating/task-cognitive_scale.png	n/a	n/a	n/a	n/a	n/a	n/a	n/a	n/a
236.78	0.99	cognitive	cue	8	high_cue	n/a	n/a	n/a	n/a	n/a	n/a	n/a	n/a	n/a	n/a	n/a	n/a	n/a	n/a	n/a	n/a
238.48	2.99	cognitive	expectrating	8	high_cue	n/a	7.21	Weak	7.21	Weak	0.92	2.08	task-social/cue/runtype-cognitive/sch/h044.png	n/a	n/a	n/a	n/a	n/a	n/a	n/a	n/a
245.29	5.0	cognitive	stimulus	8	high_cue	high_stim	n/a	n/a	n/a	n/a	n/a	n/a	task-social/stim/runtype-cognitive/5_150.jpg	n/a	n/a	n/a	n/a	n/a	same	same	True
255.49	2.1	cognitive	outcomerating	8	high_cue	high_stim	4.43	Weak	4.43	Weak	0.45	1.65	task-social/outcomerating/task-cognitive_scale.png	n/a	n/a	n/a	n/a	n/a	n/a	n/a	n/a
264.18	1.0	cognitive	cue	9	high_cue	n/a	n/a	n/a	n/a	n/a	n/a	n/a	n/a	n/a	n/a	n/a	n/a	n/a	n/a	n/a	n/a
267.2	1.92	cognitive	expectrating	9	high_cue	n/a	23.38	Moderate	23.38	Moderate	0.47	1.45	task-social/cue/runtype-cognitive/sch/h022.png	n/a	n/a	n/a	n/a	n/a	n/a	n/a	n/a
279.48	5.0	cognitive	stimulus	9	high_cue	high_stim	n/a	n/a	n/a	n/a	n/a	n/a	task-social/stim/runtype-cognitive/38_150.jpg	n/a	n/a	n/a	n/a	n/a	same	diff	False
290.49	2.02	cognitive	outcomerating	9	high_cue	high_stim	40.4	Strong	40.4	Strong	0.68	1.34	task-social/outcomerating/task-cognitive_scale.png	n/a	n/a	n/a	n/a	n/a	n/a	n/a	n/a
298.39	0.98	cognitive	cue	10	high_cue	n/a	n/a	n/a	n/a	n/a	n/a	n/a	n/a	n/a	n/a	n/a	n/a	n/a	n/a	n/a	n/a
301.19	2.04	cognitive	expectrating	10	high_cue	n/a	65.39	Very Strong	65.39	Very Strong	0.72	1.32	task-social/cue/runtype-cognitive/sch/h012.png	n/a	n/a	n/a	n/a	n/a	n/a	n/a	n/a
321.88	5.0	cognitive	stimulus	10	high_cue	low_stim	n/a	n/a	n/a	n/a	n/a	n/a	task-social/stim/runtype-cognitive/47_50_R.jpg	n/a	n/a	n/a	n/a	n/a	diff	diff	True
331.09	2.16	cognitive	outcomerating	10	high_cue	low_stim	8.07	Weak	8.07	Weak	0.9	1.26	task-social/outcomerating/task-cognitive_scale.png	n/a	n/a	n/a	n/a	n/a	n/a	n/a	n/a
335.99	0.99	cognitive	cue	11	high_cue	n/a	n/a	n/a	n/a	n/a	n/a	n/a	n/a	n/a	n/a	n/a	n/a	n/a	n/a	n/a	n/a
338.89	1.7	cognitive	expectrating	11	high_cue	n/a	28.94	Moderate	28.94	Moderate	0.55	1.15	task-social/cue/runtype-cognitive/sch/h048.png	n/a	n/a	n/a	n/a	n/a	n/a	n/a	n/a
345.69	5.0	cognitive	stimulus	11	high_cue	low_stim	n/a	n/a	n/a	n/a	n/a	n/a	task-social/stim/runtype-cognitive/38_50.jpg	n/a	n/a	n/a	n/a	n/a	same	same	True
359.4	3.05	cognitive	outcomerating	11	high_cue	low_stim	3.92	Weak	3.92	Weak	0.85	2.2	task-social/outcomerating/task-cognitive_scale.png	n/a	n/a	n/a	n/a	n/a	n/a	n/a	n/a
366.98	0.99	cognitive	cue	12	low_cue	n/a	n/a	n/a	n/a	n/a	n/a	n/a	n/a	n/a	n/a	n/a	n/a	n/a	n/a	n/a	n/a
368.9	3.18	cognitive	expectrating	12	low_cue	n/a	16.9	Moderate	16.9	Moderate	0.47	2.72	task-social/cue/runtype-cognitive/scl/l033.png	n/a	n/a	n/a	n/a	n/a	n/a	n/a	n/a
382.49	5.0	cognitive	stimulus	12	low_cue	med_stim	n/a	n/a	n/a	n/a	n/a	n/a	task-social/stim/runtype-cognitive/10_100.jpg	n/a	n/a	n/a	n/a	n/a	same	same	True
394.49	2.97	cognitive	outcomerating	12	low_cue	med_stim	12.53	Moderate	12.53	Moderate	1.5	1.47	task-social/outcomerating/task-cognitive_scale.png	n/a	n/a	n/a	n/a	n/a	n/a	n/a	n/a
