onset	duration	run_type	trial_type	trial_index	cue	stimulusintensity	rating_value	rating_glmslabel	rating_value_fillna	rating_glmslabel_fillna	rating_mouseonset	rating_mousedur	stim_file	pain_onset_ttl1	pain_onset_ttl2	pain_onset_ttl3	pain_onset_ttl4	pain_stimulus_delivery_success	cognitive_correct_response	cognitive_participant_response	cognitive_response_accuracy
8.1	0.98	cognitive	cue	1	high_cue	n/a	n/a	n/a	n/a	n/a	n/a	n/a	n/a	n/a	n/a	n/a	n/a	n/a	n/a	n/a	n/a
10.0	2.02	cognitive	expectrating	1	high_cue	n/a	8.52	Weak	8.52	Weak	0.55	1.47	task-social/cue/runtype-cognitive/sch/h002.png	n/a	n/a	n/a	n/a	n/a	n/a	n/a	n/a
23.31	5.0	cognitive	stimulus	1	high_cue	low_stim	n/a	n/a	n/a	n/a	n/a	n/a	task-social/stim/runtype-cognitive/14_50.jpg	n/a	n/a	n/a	n/a	n/a	same	same	True
39.6	2.66	cognitive	outcomerating	1	high_cue	low_stim	20.18	Moderate	20.18	Moderate	1.02	1.64	task-social/outcomerating/task-cognitive_scale.png	n/a	n/a	n/a	n/a	n/a	n/a	n/a	n/a
52.4	0.98	cognitive	cue	2	low_cue	n/a	n/a	n/a	n/a	n/a	n/a	n/a	n/a	n/a	n/a	n/a	n/a	n/a	n/a	n/a	n/a
55.0	1.33	cognitive	expectrating	2	low_cue	n/a	15.66	Moderate	15.66	Moderate	0.05	1.28	task-social/cue/runtype-cognitive/scl/l010.png	n/a	n/a	n/a	n/a	n/a	n/a	n/a	n/a
68.99	5.0	cognitive	stimulus	2	low_cue	med_stim	n/a	n/a	n/a	n/a	n/a	n/a	task-social/stim/runtype-cognitive/22_100_R.jpg	n/a	n/a	n/a	n/a	n/a	diff	diff	True
83.9	2.32	cognitive	outcomerating	2	low_cue	med_stim	18.07	Moderate	18.07	Moderate	0.95	1.37	task-social/outcomerating/task-cognitive_scale.png	n/a	n/a	n/a	n/a	n/a	n/a	n/a	n/a
93.2	0.98	cognitive	cue	3	high_cue	n/a	n/a	n/a	n/a	n/a	n/a	n/a	n/a	n/a	n/a	n/a	n/a	n/a	n/a	n/a	n/a
96.1	1.99	cognitive	expectrating	3	high_cue	n/a	42.24	Strong	42.24	Strong	0.63	1.35	task-social/cue/runtype-cognitive/sch/h031.png	n/a	n/a	n/a	n/a	n/a	n/a	n/a	n/a
105.59	5.0	cognitive	stimulus	3	high_cue	high_stim	n/a	n/a	n/a	n/a	n/a	n/a	task-social/stim/runtype-cognitive/7_150_R.jpg	n/a	n/a	n/a	n/a	n/a	diff	diff	True
116.39	2.95	cognitive	outcomerating	3	high_cue	high_stim	59.31	Strong	59.31	Strong	0.87	2.08	task-social/outcomerating/task-cognitive_scale.png	n/a	n/a	n/a	n/a	n/a	n/a	n/a	n/a
123.39	0.99	cognitive	cue	4	low_cue	n/a	n/a	n/a	n/a	n/a	n/a	n/a	n/a	n/a	n/a	n/a	n/a	n/a	n/a	n/a	n/a
126.7	1.79	cognitive	expectrating	4	low_cue	n/a	15.32	Moderate	15.32	Moderate	0.6	1.19	task-social/cue/runtype-cognitive/scl/l016.png	n/a	n/a	n/a	n/a	n/a	n/a	n/a	n/a
134.7	5.0	cognitive	stimulus	4	low_cue	high_stim	n/a	n/a	n/a	n/a	n/a	n/a	task-social/stim/runtype-cognitive/44_150.jpg	n/a	n/a	n/a	n/a	n/a	same	same	True
143.0	3.89	cognitive	outcomerating	4	low_cue	high_stim	15.82	Moderate	15.82	Moderate	1.97	1.92	task-social/outcomerating/task-cognitive_scale.png	n/a	n/a	n/a	n/a	n/a	n/a	n/a	n/a
151.29	0.99	cognitive	cue	5	high_cue	n/a	n/a	n/a	n/a	n/a	n/a	n/a	n/a	n/a	n/a	n/a	n/a	n/a	n/a	n/a	n/a
153.11	1.95	cognitive	expectrating	5	high_cue	n/a	41.92	Strong	41.92	Strong	0.73	1.22	task-social/cue/runtype-cognitive/sch/h011.png	n/a	n/a	n/a	n/a	n/a	n/a	n/a	n/a
167.09	5.0	cognitive	stimulus	5	high_cue	low_stim	n/a	n/a	n/a	n/a	n/a	n/a	task-social/stim/runtype-cognitive/24_50_R.jpg	n/a	n/a	n/a	n/a	n/a	diff	diff	True
177.7	n/a	cognitive	outcomerating	5	high_cue	low_stim	n/a	n/a	21.98	Moderate	2.82	1.08	task-social/outcomerating/task-cognitive_scale.png	n/a	n/a	n/a	n/a	n/a	n/a	n/a	n/a
188.39	1.0	cognitive	cue	6	high_cue	n/a	n/a	n/a	n/a	n/a	n/a	n/a	n/a	n/a	n/a	n/a	n/a	n/a	n/a	n/a	n/a
190.5	2.25	cognitive	expectrating	6	high_cue	n/a	40.1	Strong	40.1	Strong	1.03	1.22	task-social/cue/runtype-cognitive/sch/h033.png	n/a	n/a	n/a	n/a	n/a	n/a	n/a	n/a
198.49	5.0	cognitive	stimulus	6	high_cue	med_stim	n/a	n/a	n/a	n/a	n/a	n/a	task-social/stim/runtype-cognitive/26_100.jpg	n/a	n/a	n/a	n/a	n/a	same	same	True
207.49	n/a	cognitive	outcomerating	6	high_cue	med_stim	n/a	n/a	8.59	Weak	3.72	0.27	task-social/outcomerating/task-cognitive_scale.png	n/a	n/a	n/a	n/a	n/a	n/a	n/a	n/a
218.2	0.98	cognitive	cue	7	low_cue	n/a	n/a	n/a	n/a	n/a	n/a	n/a	n/a	n/a	n/a	n/a	n/a	n/a	n/a	n/a	n/a
220.3	2.57	cognitive	expectrating	7	low_cue	n/a	38.48	Strong	38.48	Strong	0.42	2.16	task-social/cue/runtype-cognitive/scl/l001.png	n/a	n/a	n/a	n/a	n/a	n/a	n/a	n/a
230.2	5.0	cognitive	stimulus	7	low_cue	high_stim	n/a	n/a	n/a	n/a	n/a	n/a	task-social/stim/runtype-cognitive/27_150_R.jpg	n/a	n/a	n/a	n/a	n/a	diff	diff	True
239.2	1.88	cognitive	outcomerating	7	low_cue	high_stim	10.86	Moderate	10.86	Moderate	0.63	1.25	task-social/outcomerating/task-cognitive_scale.png	n/a	n/a	n/a	n/a	n/a	n/a	n/a	n/a
246.19	0.99	cognitive	cue	8	high_cue	n/a	n/a	n/a	n/a	n/a	n/a	n/a	n/a	n/a	n/a	n/a	n/a	n/a	n/a	n/a	n/a
248.69	1.38	cognitive	expectrating	8	high_cue	n/a	26.67	Moderate	26.67	Moderate	0.38	1.0	task-social/cue/runtype-cognitive/sch/h020.png	n/a	n/a	n/a	n/a	n/a	n/a	n/a	n/a
257.69	5.0	cognitive	stimulus	8	high_cue	med_stim	n/a	n/a	n/a	n/a	n/a	n/a	task-social/stim/runtype-cognitive/28_100.jpg	n/a	n/a	n/a	n/a	n/a	same	n/a	False
268.3	3.6	cognitive	outcomerating	8	high_cue	med_stim	36.18	Strong	36.18	Strong	0.8	2.8	task-social/outcomerating/task-cognitive_scale.png	n/a	n/a	n/a	n/a	n/a	n/a	n/a	n/a
277.6	0.98	cognitive	cue	9	low_cue	n/a	n/a	n/a	n/a	n/a	n/a	n/a	n/a	n/a	n/a	n/a	n/a	n/a	n/a	n/a	n/a
280.7	3.88	cognitive	expectrating	9	low_cue	n/a	12.08	Moderate	12.08	Moderate	0.55	3.33	task-social/cue/runtype-cognitive/scl/l056.png	n/a	n/a	n/a	n/a	n/a	n/a	n/a	n/a
292.49	5.0	cognitive	stimulus	9	low_cue	low_stim	n/a	n/a	n/a	n/a	n/a	n/a	task-social/stim/runtype-cognitive/35_50.jpg	n/a	n/a	n/a	n/a	n/a	same	same	True
305.2	1.41	cognitive	outcomerating	9	low_cue	low_stim	37.2	Strong	37.2	Strong	0.55	0.86	task-social/outcomerating/task-cognitive_scale.png	n/a	n/a	n/a	n/a	n/a	n/a	n/a	n/a
309.7	0.98	cognitive	cue	10	low_cue	n/a	n/a	n/a	n/a	n/a	n/a	n/a	n/a	n/a	n/a	n/a	n/a	n/a	n/a	n/a	n/a
312.0	2.47	cognitive	expectrating	10	low_cue	n/a	19.67	Moderate	19.67	Moderate	0.72	1.76	task-social/cue/runtype-cognitive/scl/l033.png	n/a	n/a	n/a	n/a	n/a	n/a	n/a	n/a
320.0	5.0	cognitive	stimulus	10	low_cue	low_stim	n/a	n/a	n/a	n/a	n/a	n/a	task-social/stim/runtype-cognitive/14_50_R.jpg	n/a	n/a	n/a	n/a	n/a	diff	n/a	False
330.79	3.87	cognitive	outcomerating	10	low_cue	low_stim	16.32	Moderate	16.32	Moderate	0.43	3.43	task-social/outcomerating/task-cognitive_scale.png	n/a	n/a	n/a	n/a	n/a	n/a	n/a	n/a
339.19	0.99	cognitive	cue	11	high_cue	n/a	n/a	n/a	n/a	n/a	n/a	n/a	n/a	n/a	n/a	n/a	n/a	n/a	n/a	n/a	n/a
342.31	1.52	cognitive	expectrating	11	high_cue	n/a	40.35	Strong	40.35	Strong	0.35	1.17	task-social/cue/runtype-cognitive/sch/h047.png	n/a	n/a	n/a	n/a	n/a	n/a	n/a	n/a
354.6	5.0	cognitive	stimulus	11	high_cue	high_stim	n/a	n/a	n/a	n/a	n/a	n/a	task-social/stim/runtype-cognitive/1_150_R.jpg	n/a	n/a	n/a	n/a	n/a	diff	diff	True
366.9	1.8	cognitive	outcomerating	11	high_cue	high_stim	52.35	Strong	52.35	Strong	0.58	1.22	task-social/outcomerating/task-cognitive_scale.png	n/a	n/a	n/a	n/a	n/a	n/a	n/a	n/a
371.69	0.99	cognitive	cue	12	low_cue	n/a	n/a	n/a	n/a	n/a	n/a	n/a	n/a	n/a	n/a	n/a	n/a	n/a	n/a	n/a	n/a
374.0	2.13	cognitive	expectrating	12	low_cue	n/a	33.88	Strong	33.88	Strong	0.68	1.45	task-social/cue/runtype-cognitive/scl/l045.png	n/a	n/a	n/a	n/a	n/a	n/a	n/a	n/a
381.99	5.0	cognitive	stimulus	12	low_cue	med_stim	n/a	n/a	n/a	n/a	n/a	n/a	task-social/stim/runtype-cognitive/24_100.jpg	n/a	n/a	n/a	n/a	n/a	same	diff	False
394.8	1.96	cognitive	outcomerating	12	low_cue	med_stim	32.74	Strong	32.74	Strong	0.75	1.21	task-social/outcomerating/task-cognitive_scale.png	n/a	n/a	n/a	n/a	n/a	n/a	n/a	n/a
