onset	duration	run_type	trial_type	trial_index	cue	stimulusintensity	rating_value	rating_glmslabel	rating_value_fillna	rating_glmslabel_fillna	rating_mouseonset	rating_mousedur	stim_file	pain_onset_ttl1	pain_onset_ttl2	pain_onset_ttl3	pain_onset_ttl4	pain_stimulus_delivery_success	cognitive_correct_response	cognitive_participant_response	cognitive_response_accuracy
10.12	1.0	pain	cue	1	high_cue	n/a	n/a	n/a	n/a	n/a	n/a	n/a	task-social/cue/runtype-pain/sch/h037.png	n/a	n/a	n/a	n/a	n/a	n/a	n/a	n/a
12.45	n/a	pain	expectrating	1	high_cue	n/a	n/a	n/a	0.0	n/a	3.15	3.25	task-social/cue/runtype-pain/sch/h037.png	n/a	n/a	n/a	n/a	n/a	n/a	n/a	n/a
18.28	12.36	pain	stimulus	1	high_cue	med_stim	n/a	n/a	n/a	n/a	n/a	n/a	n/a	18.28	22.04	27.04	30.65	success	n/a	n/a	n/a
31.53	2.62	pain	outcomerating	1	high_cue	med_stim	53.13	Strong	53.13	Strong	0.53	2.08	task-social/outcomerating/task-pain_scale.png	n/a	n/a	n/a	n/a	success	n/a	n/a	n/a
36.31	1.0	pain	cue	2	high_cue	n/a	n/a	n/a	n/a	n/a	n/a	n/a	task-social/cue/runtype-pain/sch/h007.png	n/a	n/a	n/a	n/a	n/a	n/a	n/a	n/a
39.23	2.6	pain	expectrating	2	high_cue	n/a	55.61	Strong	55.61	Strong	0.67	1.93	task-social/cue/runtype-pain/sch/h007.png	n/a	n/a	n/a	n/a	n/a	n/a	n/a	n/a
45.56	11.899999999999999	pain	stimulus	2	high_cue	low_stim	n/a	n/a	n/a	n/a	n/a	n/a	n/a	45.56	49.06	54.06	57.46	success	n/a	n/a	n/a
55.82	3.23	pain	outcomerating	2	high_cue	low_stim	27.29	Moderate	27.29	Moderate	0.7	2.53	task-social/outcomerating/task-pain_scale.png	n/a	n/a	n/a	n/a	success	n/a	n/a	n/a
68.42	0.98	pain	cue	3	low_cue	n/a	n/a	n/a	n/a	n/a	n/a	n/a	task-social/cue/runtype-pain/scl/l002.png	n/a	n/a	n/a	n/a	n/a	n/a	n/a	n/a
71.33	3.27	pain	expectrating	3	low_cue	n/a	20.69	Moderate	20.69	Moderate	0.72	2.55	task-social/cue/runtype-pain/scl/l002.png	n/a	n/a	n/a	n/a	n/a	n/a	n/a	n/a
78.54	12.36	pain	stimulus	3	low_cue	med_stim	n/a	n/a	n/a	n/a	n/a	n/a	n/a	78.54	82.3	87.3	90.91	success	n/a	n/a	n/a
96.42	3.14	pain	outcomerating	3	low_cue	med_stim	25.63	Moderate	25.63	Moderate	0.77	2.38	task-social/outcomerating/task-pain_scale.png	n/a	n/a	n/a	n/a	success	n/a	n/a	n/a
103.12	1.0	pain	cue	4	high_cue	n/a	n/a	n/a	n/a	n/a	n/a	n/a	task-social/cue/runtype-pain/sch/h047.png	n/a	n/a	n/a	n/a	n/a	n/a	n/a	n/a
106.02	3.39	pain	expectrating	4	high_cue	n/a	55.1	Strong	55.1	Strong	1.8	1.59	task-social/cue/runtype-pain/sch/h047.png	n/a	n/a	n/a	n/a	n/a	n/a	n/a	n/a
113.25	12.819999999999993	pain	stimulus	4	high_cue	high_stim	n/a	n/a	n/a	n/a	n/a	n/a	n/a	113.25	117.26	122.26	126.07	success	n/a	n/a	n/a
127.01	3.03	pain	outcomerating	4	high_cue	high_stim	38.48	Strong	38.48	Strong	0.73	2.3	task-social/outcomerating/task-pain_scale.png	n/a	n/a	n/a	n/a	success	n/a	n/a	n/a
139.62	1.0	pain	cue	5	high_cue	n/a	n/a	n/a	n/a	n/a	n/a	n/a	task-social/cue/runtype-pain/sch/h050.png	n/a	n/a	n/a	n/a	n/a	n/a	n/a	n/a
141.72	2.87	pain	expectrating	5	high_cue	n/a	50.05	Strong	50.05	Strong	0.55	2.32	task-social/cue/runtype-pain/sch/h050.png	n/a	n/a	n/a	n/a	n/a	n/a	n/a	n/a
157.84	12.819999999999993	pain	stimulus	5	high_cue	high_stim	n/a	n/a	n/a	n/a	n/a	n/a	n/a	157.84	161.85	166.85	170.66	success	n/a	n/a	n/a
169.73	3.2	pain	outcomerating	5	high_cue	high_stim	47.11	Strong	47.11	Strong	1.02	2.18	task-social/outcomerating/task-pain_scale.png	n/a	n/a	n/a	n/a	success	n/a	n/a	n/a
175.71	1.0	pain	cue	6	low_cue	n/a	n/a	n/a	n/a	n/a	n/a	n/a	task-social/cue/runtype-pain/scl/l042.png	n/a	n/a	n/a	n/a	n/a	n/a	n/a	n/a
178.52	2.3	pain	expectrating	6	low_cue	n/a	23.26	Moderate	23.26	Moderate	1.02	1.28	task-social/cue/runtype-pain/scl/l042.png	n/a	n/a	n/a	n/a	n/a	n/a	n/a	n/a
185.75	12.819999999999993	pain	stimulus	6	low_cue	high_stim	n/a	n/a	n/a	n/a	n/a	n/a	n/a	185.75	189.76	194.76	198.57	success	n/a	n/a	n/a
196.02	2.74	pain	outcomerating	6	low_cue	high_stim	48.9	Strong	48.9	Strong	0.63	2.11	task-social/outcomerating/task-pain_scale.png	n/a	n/a	n/a	n/a	success	n/a	n/a	n/a
203.13	0.98	pain	cue	7	high_cue	n/a	n/a	n/a	n/a	n/a	n/a	n/a	task-social/cue/runtype-pain/sch/h021.png	n/a	n/a	n/a	n/a	n/a	n/a	n/a	n/a
205.43	2.67	pain	expectrating	7	high_cue	n/a	74.85	Very Strong	74.85	Very Strong	0.52	2.15	task-social/cue/runtype-pain/sch/h021.png	n/a	n/a	n/a	n/a	n/a	n/a	n/a	n/a
215.65	12.359999999999985	pain	stimulus	7	high_cue	med_stim	n/a	n/a	n/a	n/a	n/a	n/a	n/a	215.65	219.41	224.41	228.02	success	n/a	n/a	n/a
230.02	2.9	pain	outcomerating	7	high_cue	med_stim	33.56	Strong	33.56	Strong	0.75	2.15	task-social/outcomerating/task-pain_scale.png	n/a	n/a	n/a	n/a	success	n/a	n/a	n/a
235.82	1.0	pain	cue	8	high_cue	n/a	n/a	n/a	n/a	n/a	n/a	n/a	task-social/cue/runtype-pain/sch/h053.png	n/a	n/a	n/a	n/a	n/a	n/a	n/a	n/a
237.82	3.14	pain	expectrating	8	high_cue	n/a	51.02	Strong	51.02	Strong	0.87	2.27	task-social/cue/runtype-pain/sch/h053.png	n/a	n/a	n/a	n/a	n/a	n/a	n/a	n/a
243.33	11.909999999999997	pain	stimulus	8	high_cue	low_stim	n/a	n/a	n/a	n/a	n/a	n/a	n/a	243.33	246.83	251.83	255.23	success	n/a	n/a	n/a
257.03	1.95	pain	outcomerating	8	high_cue	low_stim	15.07	Moderate	15.07	Moderate	0.5	1.45	task-social/outcomerating/task-pain_scale.png	n/a	n/a	n/a	n/a	success	n/a	n/a	n/a
262.81	1.0	pain	cue	9	low_cue	n/a	n/a	n/a	n/a	n/a	n/a	n/a	task-social/cue/runtype-pain/scl/l019.png	n/a	n/a	n/a	n/a	n/a	n/a	n/a	n/a
265.01	2.9	pain	expectrating	9	low_cue	n/a	28.21	Moderate	28.21	Moderate	1.42	1.48	task-social/cue/runtype-pain/scl/l019.png	n/a	n/a	n/a	n/a	n/a	n/a	n/a	n/a
270.84	12.82000000000005	pain	stimulus	9	low_cue	high_stim	n/a	n/a	n/a	n/a	n/a	n/a	n/a	270.84	274.85	279.85	283.66	success	n/a	n/a	n/a
289.82	n/a	pain	outcomerating	9	low_cue	high_stim	n/a	n/a	53.64	Strong	0.87	1.72	task-social/outcomerating/task-pain_scale.png	n/a	n/a	n/a	n/a	success	n/a	n/a	n/a
294.61	1.0	pain	cue	10	low_cue	n/a	n/a	n/a	n/a	n/a	n/a	n/a	task-social/cue/runtype-pain/scl/l052.png	n/a	n/a	n/a	n/a	n/a	n/a	n/a	n/a
297.53	2.9	pain	expectrating	10	low_cue	n/a	42.04	Strong	42.04	Strong	0.85	2.05	task-social/cue/runtype-pain/scl/l052.png	n/a	n/a	n/a	n/a	n/a	n/a	n/a	n/a
306.95	11.900000000000034	pain	stimulus	10	low_cue	low_stim	n/a	n/a	n/a	n/a	n/a	n/a	n/a	306.95	310.45	315.45	318.85	success	n/a	n/a	n/a
318.82	3.07	pain	outcomerating	10	low_cue	low_stim	25.64	Moderate	25.64	Moderate	0.55	2.52	task-social/outcomerating/task-pain_scale.png	n/a	n/a	n/a	n/a	success	n/a	n/a	n/a
333.02	0.98	pain	cue	11	low_cue	n/a	n/a	n/a	n/a	n/a	n/a	n/a	task-social/cue/runtype-pain/scl/l047.png	n/a	n/a	n/a	n/a	n/a	n/a	n/a	n/a
335.62	3.7	pain	expectrating	11	low_cue	n/a	18.22	Moderate	18.22	Moderate	1.0	2.7	task-social/cue/runtype-pain/scl/l047.png	n/a	n/a	n/a	n/a	n/a	n/a	n/a	n/a
351.74	11.909999999999968	pain	stimulus	11	low_cue	low_stim	n/a	n/a	n/a	n/a	n/a	n/a	n/a	351.74	355.24	360.24	363.64	success	n/a	n/a	n/a
362.02	2.63	pain	outcomerating	11	low_cue	low_stim	11.13	Moderate	11.13	Moderate	0.83	1.8	task-social/outcomerating/task-pain_scale.png	n/a	n/a	n/a	n/a	success	n/a	n/a	n/a
372.32	1.0	pain	cue	12	low_cue	n/a	n/a	n/a	n/a	n/a	n/a	n/a	task-social/cue/runtype-pain/scl/l001.png	n/a	n/a	n/a	n/a	n/a	n/a	n/a	n/a
374.32	2.46	pain	expectrating	12	low_cue	n/a	14.37	Moderate	14.37	Moderate	0.68	1.77	task-social/cue/runtype-pain/scl/l001.png	n/a	n/a	n/a	n/a	n/a	n/a	n/a	n/a
379.44	12.360000000000014	pain	stimulus	12	low_cue	med_stim	n/a	n/a	n/a	n/a	n/a	n/a	n/a	379.44	383.2	388.2	391.81	success	n/a	n/a	n/a
394.81	n/a	pain	outcomerating	12	low_cue	med_stim	n/a	n/a	29.86	Strong	0.8	2.47	task-social/outcomerating/task-pain_scale.png	n/a	n/a	n/a	n/a	success	n/a	n/a	n/a
