onset	duration	question	event_type	participant_response	normative_response	response_accuracy	stim_file
5.024810075759888	1.1711399555206299	reaching?	how_hand	yes	yes	correct	task-tomspunt/H_007.jpg
6.508700132369995	0.6698298454284668	reaching?	how_hand	yes	no	incorrect	task-tomspunt/H_532.jpg
7.492400169372559	0.6861898899078369	reaching?	how_hand	yes	yes	correct	task-tomspunt/H_474.jpg
8.492769956588745	0.786020040512085	reaching?	how_hand	no	no	correct	task-tomspunt/H_438.jpg
9.593180179595947	0.6708698272705078	reaching?	how_hand	no	yes	incorrect	task-tomspunt/H_364.jpg
10.576879978179932	0.9681601524353027	reaching?	how_hand	yes	yes	correct	task-tomspunt/H_006.jpg
11.860690116882324	0.6183600425720215	reaching?	how_hand	yes	yes	correct	task-tomspunt/H_003.jpg
12.794370174407959	0.5351099967956543	reaching?	how_hand	yes	no	incorrect	task-tomspunt/H_132.jpg
22.548010110855103	0.6516098976135254	healthy?	why_hand	yes	yes	correct	task-tomspunt/H_627.jpg
23.515040159225464	0.6518199443817139	healthy?	why_hand	yes	yes	correct	task-tomspunt/H_438.jpg
24.482059955596924	0.6852400302886963	healthy?	why_hand	yes	yes	correct	task-tomspunt/H_364.jpg
25.48243999481201	0.5128099918365479	healthy?	why_hand	yes	no	incorrect	task-tomspunt/H_130.jpg
26.299410104751587	0.6513099670410156	healthy?	why_hand	yes	yes	correct	task-tomspunt/H_362.jpg
27.26644015312195	0.5451200008392334	healthy?	why_hand	yes	no	incorrect	task-tomspunt/H_007.jpg
28.11675000190735	0.6951801776885986	healthy?	why_hand	yes	yes	correct	task-tomspunt/H_167.jpg
29.117130041122437	0.7346699237823486	healthy?	why_hand	yes	no	incorrect	task-tomspunt/H_019.jpg
41.65514016151428	0.42375993728637695	admiring?	why_face	yes	yes	correct	task-tomspunt/F_779.jpg
42.38874006271362	0.5394399166107178	admiring?	why_face	yes	yes	correct	task-tomspunt/F_593.jpg
43.239060163497925	0.5348098278045654	admiring?	why_face	yes	no	incorrect	task-tomspunt/F_110.jpg
44.08938002586365	0.37220001220703125	admiring?	why_face	yes	yes	correct	task-tomspunt/F_590.jpg
44.77296018600464	0.4052097797393799	admiring?	why_face	no	no	correct	task-tomspunt/F_692.jpg
45.4899001121521	0.3386199474334717	admiring?	why_face	yes	yes	correct	task-tomspunt/F_759.jpg
46.14014005661011	0.27186012268066406	admiring?	why_face	no	yes	incorrect	task-tomspunt/F_648.jpg
46.723690032958984	0.42159008979797363	admiring?	why_face	no	no	correct	task-tomspunt/F_129.jpg
60.6288800239563	0.4515800476074219	smiling?	how_face	yes	yes	correct	task-tomspunt/F_139.jpg
61.395830154418945	0.4184598922729492	smiling?	how_face	no	no	correct	task-tomspunt/F_712.jpg
62.12944006919861	0.4512500762939453	smiling?	how_face	yes	yes	correct	task-tomspunt/F_695.jpg
62.896389961242676	0.5012600421905518	smiling?	how_face	yes	no	incorrect	task-tomspunt/F_758.jpg
63.71336007118225	0.3686699867248535	smiling?	how_face	yes	yes	correct	task-tomspunt/F_083.jpg
64.39695000648499	0.31781005859375	smiling?	how_face	no	yes	incorrect	task-tomspunt/F_759.jpg
65.03051996231079	0.318270206451416	smiling?	how_face	no	no	correct	task-tomspunt/F_412.jpg
65.66409015655518	0.3515598773956299	smiling?	how_face	yes	yes	correct	task-tomspunt/F_593.jpg
78.15208005905151	0.4267001152038574	lifting?	how_hand	yes	yes	correct	task-tomspunt/H_136.jpg
78.88568997383118	0.3924901485443115	lifting?	how_hand	yes	no	incorrect	task-tomspunt/H_038.jpg
79.58595013618469	0.451740026473999	lifting?	how_hand	yes	yes	correct	task-tomspunt/H_189.jpg
80.35290002822876	0.4682600498199463	lifting?	how_hand	yes	no	incorrect	task-tomspunt/H_077.jpg
81.13653016090393	0.4422299861907959	lifting?	how_hand	yes	yes	correct	task-tomspunt/H_443.jpg
81.8868100643158	0.5413999557495117	lifting?	how_hand	no	no	correct	task-tomspunt/H_012.jpg
82.73712015151978	0.3576998710632324	lifting?	how_hand	yes	yes	correct	task-tomspunt/H_362.jpg
83.40404009819031	0.3351399898529053	lifting?	how_hand	no	yes	incorrect	task-tomspunt/H_170.jpg
100.6438000202179	0.35154008865356445	helping?	why_hand	yes	yes	correct	task-tomspunt/H_077.jpg
101.31071996688843	0.3849201202392578	helping?	why_hand	yes	yes	correct	task-tomspunt/H_349.jpg
102.01098012924194	0.5016398429870605	helping?	why_hand	yes	yes	correct	task-tomspunt/H_474.jpg
102.82795000076294	0.534980058670044	helping?	why_hand	no	yes	incorrect	task-tomspunt/H_024.jpg
103.67827010154724	0.351330041885376	helping?	why_hand	yes	no	incorrect	task-tomspunt/H_012.jpg
104.34518003463745	0.3667299747467041	helping?	why_hand	yes	no	incorrect	task-tomspunt/H_159.jpg
105.01209998130798	0.5165801048278809	helping?	why_hand	no	yes	incorrect	task-tomspunt/H_111.jpg
105.82907009124756	0.6520199775695801	helping?	why_hand	yes	no	incorrect	task-tomspunt/H_091.jpg
118.51713013648987	0.37835001945495605	proud?	why_face	yes	yes	correct	task-tomspunt/F_598.jpg
119.2007200717926	0.5112700462341309	proud?	why_face	no	no	correct	task-tomspunt/F_760.jpg
120.01769018173218	0.3846898078918457	proud?	why_face	yes	yes	correct	task-tomspunt/F_582.jpg
120.71795010566711	0.49362993240356445	proud?	why_face	no	no	correct	task-tomspunt/F_412.jpg
121.51824998855591	0.4099400043487549	proud?	why_face	yes	yes	correct	task-tomspunt/F_083.jpg
122.23519015312195	0.4683799743652344	proud?	why_face	yes	no	incorrect	task-tomspunt/F_776.jpg
123.01881003379822	0.4435000419616699	proud?	why_face	yes	yes	correct	task-tomspunt/F_618.jpg
123.76909017562866	0.4426298141479492	proud?	why_face	no	yes	incorrect	task-tomspunt/F_695.jpg
136.04033017158508	0.33523988723754883	looking to side?	how_face	yes	yes	correct	task-tomspunt/F_590.jpg
136.6905801296234	0.40470004081726074	looking to side?	how_face	yes	yes	correct	task-tomspunt/F_433.jpg
137.40751004219055	0.37066006660461426	looking to side?	how_face	yes	yes	correct	task-tomspunt/F_716.jpg
138.0910999774933	0.3871500492095947	looking to side?	how_face	yes	no	incorrect	task-tomspunt/F_779.jpg
138.7913601398468	0.4368000030517578	looking to side?	how_face	no	yes	incorrect	task-tomspunt/F_760.jpg
139.54164004325867	0.4205899238586426	looking to side?	how_face	no	no	correct	task-tomspunt/F_111.jpg
140.27524995803833	0.43632006645202637	looking to side?	how_face	yes	yes	correct	task-tomspunt/F_110.jpg
141.02553009986877	0.4364299774169922	looking to side?	how_face	yes	no	incorrect	task-tomspunt/F_798.jpg
155.14745998382568	0.3980700969696045	argument?	why_face	yes	yes	correct	task-tomspunt/F_716.jpg
155.8477201461792	0.3638498783111572	argument?	why_face	yes	no	incorrect	task-tomspunt/F_139.jpg
156.51464009284973	0.48461008071899414	argument?	why_face	yes	yes	correct	task-tomspunt/F_712.jpg
157.3149299621582	0.4972400665283203	argument?	why_face	no	no	correct	task-tomspunt/F_433.jpg
158.11523008346558	0.4014298915863037	argument?	why_face	yes	yes	correct	task-tomspunt/F_403.jpg
158.83217000961304	0.46270012855529785	argument?	why_face	no	no	correct	task-tomspunt/F_844.jpg
159.59912014007568	0.46875	argument?	why_face	yes	yes	correct	task-tomspunt/F_743.jpg
160.38274002075195	0.28484010696411133	argument?	why_face	no	yes	incorrect	task-tomspunt/F_758.jpg
172.98745012283325	0.36852002143859863	open mouth?	how_face	yes	yes	correct	task-tomspunt/F_844.jpg
173.67103004455566	0.3678901195526123	open mouth?	how_face	yes	yes	correct	task-tomspunt/F_776.jpg
174.3546199798584	0.41857004165649414	open mouth?	how_face	yes	no	incorrect	task-tomspunt/F_544.jpg
175.08823013305664	0.2846798896789551	open mouth?	how_face	yes	yes	correct	task-tomspunt/F_692.jpg
175.68845009803772	0.38978004455566406	open mouth?	how_face	yes	no	incorrect	task-tomspunt/F_584.jpg
176.38871002197266	0.5061600208282471	open mouth?	how_face	no	yes	incorrect	task-tomspunt/F_403.jpg
177.20569014549255	0.02306985855102539	open mouth?	how_face	yes	yes	correct	task-tomspunt/F_086.jpg
177.5391399860382	0.255770206451416	open mouth?	how_face	yes	no	incorrect	task-tomspunt/F_648.jpg
190.87744998931885	0.401669979095459	pressing button?	how_hand	yes	yes	correct	task-tomspunt/H_019.jpg
191.59438014030457	0.46867990493774414	pressing button?	how_hand	yes	no	incorrect	task-tomspunt/H_024.jpg
192.37801003456116	0.3682699203491211	pressing button?	how_hand	yes	no	incorrect	task-tomspunt/H_130.jpg
193.0615999698639	0.4684901237487793	pressing button?	how_hand	yes	yes	correct	task-tomspunt/H_502.jpg
193.84522008895874	0.46792006492614746	pressing button?	how_hand	no	no	correct	task-tomspunt/H_261.jpg
194.62884998321533	0.4849700927734375	pressing button?	how_hand	yes	yes	correct	task-tomspunt/H_332.jpg
195.4291501045227	0.5849699974060059	pressing button?	how_hand	yes	yes	correct	task-tomspunt/H_126.jpg
196.3294801712036	0.5178999900817871	pressing button?	how_hand	no	yes	incorrect	task-tomspunt/H_483.jpg
208.6674201488495	0.4111900329589844	competing?	why_hand	yes	yes	correct	task-tomspunt/H_261.jpg
209.38435006141663	0.7272400856018066	competing?	why_hand	no	no	correct	task-tomspunt/H_483.jpg
210.41807007789612	0.7017600536346436	competing?	why_hand	yes	yes	correct	task-tomspunt/H_132.jpg
211.4351201057434	0.6517000198364258	competing?	why_hand	no	no	correct	task-tomspunt/H_126.jpg
212.40214014053345	0.6434600353240967	competing?	why_hand	yes	yes	correct	task-tomspunt/H_136.jpg
213.35249996185303	0.6594099998474121	competing?	why_hand	yes	no	incorrect	task-tomspunt/H_502.jpg
214.3195300102234	0.542060136795044	competing?	why_hand	no	yes	incorrect	task-tomspunt/H_003.jpg
215.16984009742737	0.4921998977661133	competing?	why_hand	yes	yes	correct	task-tomspunt/H_170.jpg
226.74082016944885	0.637969970703125	self-doubt?	why_face	no	yes	incorrect	task-tomspunt/F_544.jpg
227.69117999076843	0.8703601360321045	self-doubt?	why_face	no	no	correct	task-tomspunt/F_086.jpg
228.87495017051697	0.6198098659515381	self-doubt?	why_face	yes	yes	correct	task-tomspunt/F_798.jpg
229.80864000320435	0.6364600658416748	self-doubt?	why_face	yes	yes	correct	task-tomspunt/F_111.jpg
230.75899004936218	0.6196999549865723	self-doubt?	why_face	no	no	correct	task-tomspunt/F_774.jpg
231.69267010688782	0.7696399688720703	self-doubt?	why_face	no	yes	incorrect	task-tomspunt/F_754.jpg
232.77641010284424	0.918910026550293	self-doubt?	why_face	no	no	correct	task-tomspunt/F_128.jpg
234.01020002365112	0.9679901599884033	self-doubt?	why_face	yes	yes	correct	task-tomspunt/F_584.jpg
245.79793000221252	0.6519901752471924	looking at camera?	how_face	yes	yes	correct	task-tomspunt/F_128.jpg
246.76496005058289	0.6801600456237793	looking at camera?	how_face	yes	yes	correct	task-tomspunt/F_618.jpg
247.74866008758545	0.6961898803710938	looking at camera?	how_face	yes	yes	correct	task-tomspunt/F_598.jpg
248.74903011322021	0.7513699531555176	looking at camera?	how_face	no	no	correct	task-tomspunt/F_743.jpg
249.81610012054443	0.018149852752685547	looking at camera?	how_face	no	yes	incorrect	task-tomspunt/F_774.jpg
250.1495499610901	1.3690600395202637	looking at camera?	how_face	no	no	correct	task-tomspunt/F_582.jpg
251.8335201740265	1.2849698066711426	looking at camera?	how_face	no	no	correct	task-tomspunt/F_754.jpg
253.43411016464233	0.7346699237823486	looking at camera?	how_face	yes	yes	correct	task-tomspunt/F_129.jpg
264.58827018737793	1.0400099754333496	both hands?	how_hand	yes	yes	correct	task-tomspunt/H_167.jpg
265.9387800693512	0.6903200149536133	both hands?	how_hand	no	no	correct	task-tomspunt/H_091.jpg
266.93915009498596	0.9353399276733398	both hands?	how_hand	no	no	correct	task-tomspunt/H_627.jpg
268.18962001800537	0.8556599617004395	both hands?	how_hand	yes	yes	correct	task-tomspunt/H_027.jpg
269.3567199707031	0.8687400817871094	both hands?	how_hand	yes	yes	correct	task-tomspunt/H_111.jpg
270.54049015045166	0.7849299907684326	both hands?	how_hand	no	no	correct	task-tomspunt/H_159.jpg
271.6409001350403	0.9852299690246582	both hands?	how_hand	yes	yes	correct	task-tomspunt/H_581.jpg
272.9413900375366	0.737450122833252	both hands?	how_hand	yes	yes	correct	task-tomspunt/H_349.jpg
283.37861013412476	0.6345798969268799	self-protection?	why_hand	yes	yes	correct	task-tomspunt/H_443.jpg
284.32896995544434	0.767970085144043	self-protection?	why_hand	no	no	correct	task-tomspunt/H_006.jpg
285.412700176239	0.9348897933959961	self-protection?	why_hand	yes	yes	correct	task-tomspunt/H_581.jpg
286.6631700992584	0.7346699237823486	self-protection?	why_hand	no	no	correct	task-tomspunt/H_532.jpg
287.7135601043701	0.9185099601745605	self-protection?	why_hand	yes	yes	correct	task-tomspunt/H_027.jpg
288.9473600387573	0.8013601303100586	self-protection?	why_hand	yes	yes	correct	task-tomspunt/H_038.jpg
290.06444001197815	0.9681601524353027	self-protection?	why_hand	no	no	correct	task-tomspunt/H_332.jpg
291.34825015068054	1.1637299060821533	self-protection?	why_hand	yes	yes	correct	task-tomspunt/H_189.jpg
304.85329008102417	0.49160003662109375	smiling?	how_face	yes	yes	correct	task-tomspunt/F_759.jpg
305.65358996391296	0.6683700084686279	smiling?	how_face	no	no	correct	task-tomspunt/F_412.jpg
306.6372900009155	0.6853101253509521	smiling?	how_face	yes	yes	correct	task-tomspunt/F_593.jpg
307.6376600265503	0.6351799964904785	smiling?	how_face	no	no	correct	task-tomspunt/F_712.jpg
308.58801007270813	0.6023299694061279	smiling?	how_face	yes	yes	correct	task-tomspunt/F_695.jpg
309.50502014160156	0.618649959564209	smiling?	how_face	yes	yes	correct	task-tomspunt/F_139.jpg
310.4386999607086	0.5565600395202637	smiling?	how_face	yes	yes	correct	task-tomspunt/F_083.jpg
311.3056900501251	0.655980110168457	smiling?	how_face	no	no	correct	task-tomspunt/F_758.jpg
322.64326000213623	0.468670129776001	admiring?	why_face	yes	yes	correct	task-tomspunt/F_593.jpg
323.4268801212311	0.6019799709320068	admiring?	why_face	no	no	correct	task-tomspunt/F_129.jpg
324.3438901901245	0.5844697952270508	admiring?	why_face	yes	yes	correct	task-tomspunt/F_759.jpg
325.24423003196716	0.6012201309204102	admiring?	why_face	no	no	correct	task-tomspunt/F_692.jpg
326.1612300872803	0.6011500358581543	admiring?	why_face	yes	yes	correct	task-tomspunt/F_779.jpg
327.0615701675415	0.6180298328399658	admiring?	why_face	yes	yes	correct	task-tomspunt/F_590.jpg
327.99524998664856	0.7686901092529297	admiring?	why_face	yes	yes	correct	task-tomspunt/F_648.jpg
329.078989982605	0.7832400798797607	admiring?	why_face	no	no	correct	task-tomspunt/F_110.jpg
340.5332601070404	0.6124298572540283	competing?	why_hand	yes	yes	correct	task-tomspunt/H_261.jpg
341.45027017593384	0.5016698837280273	competing?	why_hand	yes	yes	correct	task-tomspunt/H_170.jpg
342.26724004745483	0.6352601051330566	competing?	why_hand	no	no	correct	task-tomspunt/H_483.jpg
343.217600107193	0.5852499008178711	competing?	why_hand	yes	yes	correct	task-tomspunt/H_132.jpg
344.1179301738739	0.610260009765625	competing?	why_hand	yes	yes	correct	task-tomspunt/H_136.jpg
345.03494000434875	0.610450029373169	competing?	why_hand	yes	yes	correct	task-tomspunt/H_003.jpg
345.9519500732422	0.7933599948883057	competing?	why_hand	no	no	correct	task-tomspunt/H_126.jpg
347.0523600578308	0.7187700271606445	competing?	why_hand	no	no	correct	task-tomspunt/H_502.jpg
362.0079400539398	0.6208899021148682	reaching?	how_hand	yes	yes	correct	task-tomspunt/H_003.jpg
362.94162011146545	0.7205898761749268	reaching?	how_hand	yes	yes	correct	task-tomspunt/H_364.jpg
363.97534012794495	0.8703398704528809	reaching?	how_hand	no	no	correct	task-tomspunt/H_532.jpg
365.1591100692749	0.6695399284362793	reaching?	how_hand	yes	yes	correct	task-tomspunt/H_006.jpg
366.14281010627747	0.7526600360870361	reaching?	how_hand	no	no	correct	task-tomspunt/H_438.jpg
367.2098801136017	0.8684999942779541	reaching?	how_hand	yes	yes	correct	task-tomspunt/H_007.jpg
368.39365005493164	0.9856300354003906	reaching?	how_hand	yes	yes	correct	task-tomspunt/H_474.jpg
369.694139957428	0.8351500034332275	reaching?	how_hand	no	no	correct	task-tomspunt/H_132.jpg
379.84792017936707	0.5845098495483398	open mouth?	how_face	yes	yes	correct	task-tomspunt/F_403.jpg
380.7482600212097	0.5847101211547852	open mouth?	how_face	no	no	correct	task-tomspunt/F_648.jpg
381.6485900878906	0.4685499668121338	open mouth?	how_face	yes	yes	correct	task-tomspunt/F_776.jpg
382.4322199821472	0.6012899875640869	open mouth?	how_face	no	no	correct	task-tomspunt/F_584.jpg
383.34923005104065	0.6131501197814941	open mouth?	how_face	yes	yes	correct	task-tomspunt/F_844.jpg
384.2662401199341	0.7020399570465088	open mouth?	how_face	yes	yes	correct	task-tomspunt/F_692.jpg
385.28328013420105	0.6853499412536621	open mouth?	how_face	yes	yes	correct	task-tomspunt/F_086.jpg
386.2836501598358	0.6512999534606934	open mouth?	how_face	no	no	correct	task-tomspunt/F_544.jpg
398.52155017852783	0.506659984588623	argument?	why_face	yes	yes	correct	task-tomspunt/F_403.jpg
399.3385200500488	0.5903201103210449	argument?	why_face	no	no	correct	task-tomspunt/F_844.jpg
400.23886013031006	0.6727499961853027	argument?	why_face	yes	yes	correct	task-tomspunt/F_712.jpg
401.2225601673126	0.6056599617004395	argument?	why_face	yes	yes	correct	task-tomspunt/F_758.jpg
402.1395699977875	0.638740062713623	argument?	why_face	no	no	correct	task-tomspunt/F_433.jpg
403.0899200439453	0.7553701400756836	argument?	why_face	yes	yes	correct	task-tomspunt/F_716.jpg
404.15699005126953	0.6879501342773438	argument?	why_face	no	no	correct	task-tomspunt/F_139.jpg
405.1573600769043	0.5517599582672119	argument?	why_face	yes	yes	correct	task-tomspunt/F_743.jpg
416.745010137558	0.8685400485992432	helping?	why_hand	no	yes	incorrect	task-tomspunt/H_024.jpg
417.92879009246826	0.6519999504089355	helping?	why_hand	yes	yes	correct	task-tomspunt/H_349.jpg
418.8958201408386	0.8518898487091064	helping?	why_hand	no	yes	incorrect	task-tomspunt/H_077.jpg
420.0629200935364	0.9180600643157959	helping?	why_hand	yes	yes	correct	task-tomspunt/H_474.jpg
421.29671001434326	0.6853101253509521	helping?	why_hand	no	no	correct	task-tomspunt/H_091.jpg
422.29709005355835	0.7486999034881592	helping?	why_hand	no	no	correct	task-tomspunt/H_159.jpg
423.34748005867004	0.6846399307250977	helping?	why_hand	yes	yes	correct	task-tomspunt/H_111.jpg
424.3478500843048	0.8853499889373779	helping?	why_hand	no	no	correct	task-tomspunt/H_012.jpg
434.81842017173767	0.7179999351501465	both hands?	how_hand	yes	yes	correct	task-tomspunt/H_111.jpg
435.85214018821716	0.5599699020385742	both hands?	how_hand	yes	yes	correct	task-tomspunt/H_027.jpg
436.7191300392151	0.5760200023651123	both hands?	how_hand	no	no	correct	task-tomspunt/H_091.jpg
437.6027901172638	0.6596798896789551	both hands?	how_hand	yes	yes	correct	task-tomspunt/H_167.jpg
438.56982016563416	0.6850099563598633	both hands?	how_hand	yes	yes	correct	task-tomspunt/H_581.jpg
439.5701901912689	0.8353898525238037	both hands?	how_hand	no	no	correct	task-tomspunt/H_159.jpg
440.7206201553345	0.5575699806213379	both hands?	how_hand	yes	yes	correct	task-tomspunt/H_349.jpg
441.5876100063324	0.7240300178527832	both hands?	how_hand	no	no	correct	task-tomspunt/H_627.jpg
452.3416199684143	0.8355300426483154	healthy?	why_hand	yes	yes	correct	task-tomspunt/H_438.jpg
453.49205017089844	0.6200699806213379	healthy?	why_hand	yes	yes	correct	task-tomspunt/H_364.jpg
454.4257299900055	0.635890007019043	healthy?	why_hand	yes	yes	correct	task-tomspunt/H_362.jpg
455.37609004974365	0.8692200183868408	healthy?	why_hand	no	no	correct	task-tomspunt/H_019.jpg
456.5598599910736	0.6692700386047363	healthy?	why_hand	yes	yes	correct	task-tomspunt/H_167.jpg
457.5435600280762	1.1189100742340088	healthy?	why_hand	yes	no	incorrect	task-tomspunt/H_007.jpg
458.97743010520935	0.8353898525238037	healthy?	why_hand	yes	yes	correct	task-tomspunt/H_627.jpg
460.1278600692749	0.7678899765014648	healthy?	why_hand	no	no	correct	task-tomspunt/H_130.jpg
471.38206005096436	0.6516799926757812	pressing button?	how_hand	yes	yes	correct	task-tomspunt/H_126.jpg
472.3490800857544	0.7013099193572998	pressing button?	how_hand	no	no	correct	task-tomspunt/H_130.jpg
473.3661301136017	0.6179299354553223	pressing button?	how_hand	yes	yes	correct	task-tomspunt/H_483.jpg
474.2998101711273	0.6118199825286865	pressing button?	how_hand	no	no	correct	task-tomspunt/H_024.jpg
475.2168200016022	0.6183900833129883	pressing button?	how_hand	yes	yes	correct	task-tomspunt/H_332.jpg
476.1505000591278	0.7449300289154053	pressing button?	how_hand	yes	yes	correct	task-tomspunt/H_019.jpg
477.2008900642395	0.6107299327850342	pressing button?	how_hand	no	no	correct	task-tomspunt/H_261.jpg
478.11790013313293	0.5017800331115723	pressing button?	how_hand	yes	yes	correct	task-tomspunt/H_502.jpg
488.9219300746918	0.48969006538391113	looking at camera?	how_face	yes	yes	correct	task-tomspunt/F_618.jpg
489.72222995758057	0.6012701988220215	looking at camera?	how_face	no	no	correct	task-tomspunt/F_754.jpg
490.639240026474	0.5893700122833252	looking at camera?	how_face	yes	yes	correct	task-tomspunt/F_129.jpg
491.5395700931549	0.6556398868560791	looking at camera?	how_face	yes	yes	correct	task-tomspunt/F_598.jpg
492.50660014152527	0.5887999534606934	looking at camera?	how_face	yes	yes	correct	task-tomspunt/F_128.jpg
493.4069399833679	0.7019400596618652	looking at camera?	how_face	no	no	correct	task-tomspunt/F_582.jpg
494.4239799976349	0.538520097732544	looking at camera?	how_face	yes	yes	correct	task-tomspunt/F_774.jpg
495.2743000984192	0.5887100696563721	looking at camera?	how_face	no	no	correct	task-tomspunt/F_743.jpg
507.8790099620819	0.8019201755523682	self-doubt?	why_face	yes	yes	correct	task-tomspunt/F_798.jpg
508.996080160141	0.718519926071167	self-doubt?	why_face	yes	no	incorrect	task-tomspunt/F_086.jpg
510.0298001766205	0.8687198162078857	self-doubt?	why_face	yes	yes	correct	task-tomspunt/F_544.jpg
511.21358013153076	0.6513400077819824	self-doubt?	why_face	yes	yes	correct	task-tomspunt/F_754.jpg
512.1806001663208	0.8688199520111084	self-doubt?	why_face	yes	yes	correct	task-tomspunt/F_111.jpg
513.3643801212311	0.7183499336242676	self-doubt?	why_face	yes	yes	correct	task-tomspunt/F_584.jpg
514.3981001377106	0.8687398433685303	self-doubt?	why_face	no	no	correct	task-tomspunt/F_128.jpg
515.5818700790405	0.8180398941040039	self-doubt?	why_face	no	no	correct	task-tomspunt/F_774.jpg
525.4021999835968	0.49348998069763184	self-protection?	why_hand	yes	yes	correct	task-tomspunt/H_581.jpg
526.2025001049042	0.6185698509216309	self-protection?	why_hand	yes	yes	correct	task-tomspunt/H_443.jpg
527.1361801624298	0.792680025100708	self-protection?	why_hand	no	no	correct	task-tomspunt/H_332.jpg
528.2365901470184	0.73471999168396	self-protection?	why_hand	yes	yes	correct	task-tomspunt/H_027.jpg
529.2869801521301	1.0413298606872559	self-protection?	why_hand	no	no	correct	task-tomspunt/H_532.jpg
530.6374900341034	0.9574000835418701	self-protection?	why_hand	yes	yes	correct	task-tomspunt/H_189.jpg
531.9046301841736	0.8521199226379395	self-protection?	why_hand	no	no	correct	task-tomspunt/H_006.jpg
533.0717301368713	0.6403498649597168	self-protection?	why_hand	yes	yes	correct	task-tomspunt/H_038.jpg
543.6256601810455	0.8691799640655518	lifting?	how_hand	yes	yes	correct	task-tomspunt/H_443.jpg
544.8094401359558	0.6527299880981445	lifting?	how_hand	no	no	correct	task-tomspunt/H_038.jpg
545.7764701843262	0.6683897972106934	lifting?	how_hand	yes	yes	correct	task-tomspunt/H_136.jpg
546.7601699829102	0.6854000091552734	lifting?	how_hand	no	no	correct	task-tomspunt/H_012.jpg
547.7605400085449	0.6019401550292969	lifting?	how_hand	yes	yes	correct	task-tomspunt/H_362.jpg
548.6775500774384	0.934730052947998	lifting?	how_hand	no	yes	incorrect	task-tomspunt/H_189.jpg
549.9280200004578	0.5178999900817871	lifting?	how_hand	yes	yes	correct	task-tomspunt/H_170.jpg
550.7616600990295	1.035409927368164	lifting?	how_hand	no	no	correct	task-tomspunt/H_077.jpg
561.4990000724792	0.7964999675750732	looking to side?	how_face	yes	yes	correct	task-tomspunt/F_716.jpg
562.5994100570679	0.6513700485229492	looking to side?	how_face	no	no	correct	task-tomspunt/F_798.jpg
563.5664300918579	0.6517300605773926	looking to side?	how_face	yes	yes	correct	task-tomspunt/F_760.jpg
564.5334601402283	0.7019999027252197	looking to side?	how_face	yes	yes	correct	task-tomspunt/F_110.jpg
565.5505101680756	0.7781898975372314	looking to side?	how_face	no	no	correct	task-tomspunt/F_779.jpg
566.634250164032	0.8613297939300537	looking to side?	how_face	yes	yes	correct	task-tomspunt/F_590.jpg
567.8013501167297	0.718980073928833	looking to side?	how_face	no	no	correct	task-tomspunt/F_111.jpg
568.8350701332092	0.7104799747467041	looking to side?	how_face	yes	yes	correct	task-tomspunt/F_433.jpg
583.9740500450134	0.7049601078033447	proud?	why_face	yes	yes	correct	task-tomspunt/F_083.jpg
584.9910900592804	0.6209499835968018	proud?	why_face	yes	yes	correct	task-tomspunt/F_582.jpg
585.924770116806	0.7371900081634521	proud?	why_face	yes	yes	correct	task-tomspunt/F_618.jpg
586.9751601219177	1.1031599044799805	proud?	why_face	yes	no	incorrect	task-tomspunt/F_776.jpg
588.3923599720001	0.6525001525878906	proud?	why_face	yes	yes	correct	task-tomspunt/F_598.jpg
589.3593900203705	0.7522399425506592	proud?	why_face	no	no	correct	task-tomspunt/F_760.jpg
590.4264500141144	0.7351901531219482	proud?	why_face	no	no	correct	task-tomspunt/F_412.jpg
591.4768400192261	0.8519799709320068	proud?	why_face	yes	yes	correct	task-tomspunt/F_695.jpg
0.0973365211486814	2.01741909980774	reaching?	block_question_presentation	n/a	n/a	n/a	n/a
0.0973365211486814	0.3	reaching?	block_question_presentation	n/a	n/a	n/a	n/a
17.5371732616425	2.10078263282776	healthy?	block_question_presentation	n/a	n/a	n/a	n/a
17.5371732616425	0.3	healthy?	block_question_presentation	n/a	n/a	n/a	n/a
36.6442992591858	2.10078310966492	admiring?	block_question_presentation	n/a	n/a	n/a	n/a
36.6442992591858	0.3	admiring?	block_question_presentation	n/a	n/a	n/a	n/a
55.6180419826508	2.10078263282776	smiling?	block_question_presentation	n/a	n/a	n/a	n/a
55.6180419826508	0.3	smiling?	block_question_presentation	n/a	n/a	n/a	n/a
73.1412429714203	2.1007833480835	lifting?	block_question_presentation	n/a	n/a	n/a	n/a
73.1412429714203	0.3	lifting?	block_question_presentation	n/a	n/a	n/a	n/a
95.6329634094238	2.08411073684692	helping?	block_question_presentation	n/a	n/a	n/a	n/a
95.6329634094238	0.3	helping?	block_question_presentation	n/a	n/a	n/a	n/a
113.5062961483	2.10078310966492	proud?	block_question_presentation	n/a	n/a	n/a	n/a
113.5062961483	0.3	proud?	block_question_presentation	n/a	n/a	n/a	n/a
131.029497613907	2.10078430175781	looking to side?	block_question_presentation	n/a	n/a	n/a	n/a
131.029497613907	0.3	looking to side?	block_question_presentation	n/a	n/a	n/a	n/a
150.136623134613	2.1007833480835	argument?	block_question_presentation	n/a	n/a	n/a	n/a
150.136623134613	0.3	argument?	block_question_presentation	n/a	n/a	n/a	n/a
167.976608982086	2.10078358650208	open mouth?	block_question_presentation	n/a	n/a	n/a	n/a
167.976608982086	0.3	open mouth?	block_question_presentation	n/a	n/a	n/a	n/a
185.866614332199	2.10078310966492	pressing button?	block_question_presentation	n/a	n/a	n/a	n/a
185.866614332199	0.3	pressing button?	block_question_presentation	n/a	n/a	n/a	n/a
203.656581392288	2.10078358650208	competing?	block_question_presentation	n/a	n/a	n/a	n/a
203.656581392288	0.3	competing?	block_question_presentation	n/a	n/a	n/a	n/a
221.729988803864	2.10078239440918	self-doubt?	block_question_presentation	n/a	n/a	n/a	n/a
221.729988803864	0.3	self-doubt?	block_question_presentation	n/a	n/a	n/a	n/a
240.787095060349	2.10078358650208	looking at camera?	block_question_presentation	n/a	n/a	n/a	n/a
240.787095060349	0.3	looking at camera?	block_question_presentation	n/a	n/a	n/a	n/a
259.577435245514	2.10078358650208	both hands?	block_question_presentation	n/a	n/a	n/a	n/a
259.577435245514	0.3	both hands?	block_question_presentation	n/a	n/a	n/a	n/a
278.367776145935	2.10078358650208	self-protection?	block_question_presentation	n/a	n/a	n/a	n/a
278.367776145935	0.3	self-protection?	block_question_presentation	n/a	n/a	n/a	n/a
299.842451562881	2.10078406333923	smiling?	block_question_presentation	n/a	n/a	n/a	n/a
299.842451562881	0.3	smiling?	block_question_presentation	n/a	n/a	n/a	n/a
317.632419338226	2.10078382492065	admiring?	block_question_presentation	n/a	n/a	n/a	n/a
317.632419338226	0.3	admiring?	block_question_presentation	n/a	n/a	n/a	n/a
335.522424211502	2.10078358650208	competing?	block_question_presentation	n/a	n/a	n/a	n/a
335.522424211502	0.3	competing?	block_question_presentation	n/a	n/a	n/a	n/a
356.997098674774	2.10078406333923	reaching?	block_question_presentation	n/a	n/a	n/a	n/a
356.997098674774	0.3	reaching?	block_question_presentation	n/a	n/a	n/a	n/a
374.837085475922	2.10078263282776	open mouth?	block_question_presentation	n/a	n/a	n/a	n/a
374.837085475922	0.3	open mouth?	block_question_presentation	n/a	n/a	n/a	n/a
393.527388086319	2.0841109752655	argument?	block_question_presentation	n/a	n/a	n/a	n/a
393.527388086319	0.3	argument?	block_question_presentation	n/a	n/a	n/a	n/a
411.734178056717	2.10078287124634	helping?	block_question_presentation	n/a	n/a	n/a	n/a
411.734178056717	0.3	helping?	block_question_presentation	n/a	n/a	n/a	n/a
429.807585706711	2.10078310966492	both hands?	block_question_presentation	n/a	n/a	n/a	n/a
429.807585706711	0.3	both hands?	block_question_presentation	n/a	n/a	n/a	n/a
447.330786457062	2.10078287124634	healthy?	block_question_presentation	n/a	n/a	n/a	n/a
447.330786457062	0.3	healthy?	block_question_presentation	n/a	n/a	n/a	n/a
466.387893428802	2.08411073684692	pressing button?	block_question_presentation	n/a	n/a	n/a	n/a
466.387893428802	0.3	pressing button?	block_question_presentation	n/a	n/a	n/a	n/a
483.911094417572	2.10078406333923	looking at camera?	block_question_presentation	n/a	n/a	n/a	n/a
483.911094417572	0.3	looking at camera?	block_question_presentation	n/a	n/a	n/a	n/a
502.8681645298	2.10078263282776	self-doubt?	block_question_presentation	n/a	n/a	n/a	n/a
502.8681645298	0.3	self-doubt?	block_question_presentation	n/a	n/a	n/a	n/a
520.39136551857	2.10078406333923	self-protection?	block_question_presentation	n/a	n/a	n/a	n/a
520.39136551857	0.3	self-protection?	block_question_presentation	n/a	n/a	n/a	n/a
538.61482881546	2.1007821559906	lifting?	block_question_presentation	n/a	n/a	n/a	n/a
538.61482881546	0.3	lifting?	block_question_presentation	n/a	n/a	n/a	n/a
556.488161077499	2.10078239440918	looking to side?	block_question_presentation	n/a	n/a	n/a	n/a
556.488161077499	0.3	looking to side?	block_question_presentation	n/a	n/a	n/a	n/a
578.963207950592	2.10078454017639	proud?	block_question_presentation	n/a	n/a	n/a	n/a
578.963207950592	0.3	proud?	block_question_presentation	n/a	n/a	n/a	n/a
