onset	duration	run_type	trial_type	trial_index	cue	stimulusintensity	rating_value	rating_glmslabel	rating_value_fillna	rating_glmslabel_fillna	rating_mouseonset	rating_mousedur	stim_file	pain_onset_ttl1	pain_onset_ttl2	pain_onset_ttl3	pain_onset_ttl4	pain_stimulus_delivery_success	cognitive_correct_response	cognitive_participant_response	cognitive_response_accuracy
8.0	0.99	vicarious	cue	1	low_cue	n/a	n/a	n/a	n/a	n/a	n/a	n/a	task-social/cue/runtype-vicarious/scl/l044.png	n/a	n/a	n/a	n/a	n/a	n/a	n/a	n/a
11.23	1.51	vicarious	expectrating	1	low_cue	n/a	26.67	Moderate	26.67	Moderate	0.25	1.26	task-social/cue/runtype-vicarious/scl/l044.png	n/a	n/a	n/a	n/a	n/a	n/a	n/a	n/a
21.29	5.0	vicarious	stimulus	1	low_cue	med_stim	n/a	n/a	n/a	n/a	n/a	n/a	task-social/stim/runtype-vicarious/jh043t2aeunaff_M.mp4	n/a	n/a	n/a	n/a	n/a	n/a	n/a	n/a
33.41	1.42	vicarious	outcomerating	1	low_cue	med_stim	15.6	Moderate	15.6	Moderate	0.25	1.26	task-social/outcomerating/task-vicarious_scale.png	n/a	n/a	n/a	n/a	n/a	n/a	n/a	n/a
40.71	0.98	vicarious	cue	2	high_cue	n/a	n/a	n/a	n/a	n/a	n/a	n/a	task-social/cue/runtype-vicarious/sch/h032.png	n/a	n/a	n/a	n/a	n/a	n/a	n/a	n/a
43.61	1.07	vicarious	expectrating	2	high_cue	n/a	58.92	Strong	58.92	Strong	0.2	0.87	task-social/cue/runtype-vicarious/sch/h032.png	n/a	n/a	n/a	n/a	n/a	n/a	n/a	n/a
53.69	5.0	vicarious	stimulus	2	high_cue	low_stim	n/a	n/a	n/a	n/a	n/a	n/a	task-social/stim/runtype-vicarious/jh043t2aaunaff_L.mp4	n/a	n/a	n/a	n/a	n/a	n/a	n/a	n/a
61.62	1.67	vicarious	outcomerating	2	high_cue	low_stim	9.69	Weak	9.69	Weak	0.2	0.87	task-social/outcomerating/task-vicarious_scale.png	n/a	n/a	n/a	n/a	n/a	n/a	n/a	n/a
70.81	0.98	vicarious	cue	3	high_cue	n/a	n/a	n/a	n/a	n/a	n/a	n/a	task-social/cue/runtype-vicarious/sch/h015.png	n/a	n/a	n/a	n/a	n/a	n/a	n/a	n/a
73.72	1.3	vicarious	expectrating	3	high_cue	n/a	37.63	Strong	37.63	Strong	0.12	1.19	task-social/cue/runtype-vicarious/sch/h015.png	n/a	n/a	n/a	n/a	n/a	n/a	n/a	n/a
90.89	5.0	vicarious	stimulus	3	high_cue	high_stim	n/a	n/a	n/a	n/a	n/a	n/a	task-social/stim/runtype-vicarious/vw121t1aaaff_H.mp4	n/a	n/a	n/a	n/a	n/a	n/a	n/a	n/a
102.92	1.42	vicarious	outcomerating	3	high_cue	high_stim	63.54	Strong	63.54	Strong	0.12	1.19	task-social/outcomerating/task-vicarious_scale.png	n/a	n/a	n/a	n/a	n/a	n/a	n/a	n/a
108.8	0.99	vicarious	cue	4	low_cue	n/a	n/a	n/a	n/a	n/a	n/a	n/a	task-social/cue/runtype-vicarious/scl/l036.png	n/a	n/a	n/a	n/a	n/a	n/a	n/a	n/a
111.61	1.7	vicarious	expectrating	4	low_cue	n/a	38.41	Strong	38.41	Strong	0.52	1.19	task-social/cue/runtype-vicarious/scl/l036.png	n/a	n/a	n/a	n/a	n/a	n/a	n/a	n/a
119.29	5.0	vicarious	stimulus	4	low_cue	med_stim	n/a	n/a	n/a	n/a	n/a	n/a	task-social/stim/runtype-vicarious/vw121t1aiaff_M.mp4	n/a	n/a	n/a	n/a	n/a	n/a	n/a	n/a
126.81	1.42	vicarious	outcomerating	4	low_cue	med_stim	12.86	Moderate	12.86	Moderate	0.52	1.19	task-social/outcomerating/task-vicarious_scale.png	n/a	n/a	n/a	n/a	n/a	n/a	n/a	n/a
134.11	0.98	vicarious	cue	5	high_cue	n/a	n/a	n/a	n/a	n/a	n/a	n/a	task-social/cue/runtype-vicarious/sch/h022.png	n/a	n/a	n/a	n/a	n/a	n/a	n/a	n/a
135.71	1.57	vicarious	expectrating	5	high_cue	n/a	65.8	Very Strong	65.8	Very Strong	0.43	1.13	task-social/cue/runtype-vicarious/sch/h022.png	n/a	n/a	n/a	n/a	n/a	n/a	n/a	n/a
145.8	5.0	vicarious	stimulus	5	high_cue	low_stim	n/a	n/a	n/a	n/a	n/a	n/a	task-social/stim/runtype-vicarious/hs107t2aeunaff_L.mp4	n/a	n/a	n/a	n/a	n/a	n/a	n/a	n/a
153.42	1.26	vicarious	outcomerating	5	high_cue	low_stim	16.68	Moderate	16.68	Moderate	0.43	1.13	task-social/outcomerating/task-vicarious_scale.png	n/a	n/a	n/a	n/a	n/a	n/a	n/a	n/a
164.61	0.98	vicarious	cue	6	low_cue	n/a	n/a	n/a	n/a	n/a	n/a	n/a	task-social/cue/runtype-vicarious/scl/l052.png	n/a	n/a	n/a	n/a	n/a	n/a	n/a	n/a
166.91	0.95	vicarious	expectrating	6	low_cue	n/a	20.42	Moderate	20.42	Moderate	0.25	0.7	task-social/cue/runtype-vicarious/scl/l052.png	n/a	n/a	n/a	n/a	n/a	n/a	n/a	n/a
173.89	5.0	vicarious	stimulus	6	low_cue	high_stim	n/a	n/a	n/a	n/a	n/a	n/a	task-social/stim/runtype-vicarious/hs107t1afaff_H.mp4	n/a	n/a	n/a	n/a	n/a	n/a	n/a	n/a
189.72	1.29	vicarious	outcomerating	6	low_cue	high_stim	42.06	Strong	42.06	Strong	0.25	0.7	task-social/outcomerating/task-vicarious_scale.png	n/a	n/a	n/a	n/a	n/a	n/a	n/a	n/a
197.0	0.99	vicarious	cue	7	low_cue	n/a	n/a	n/a	n/a	n/a	n/a	n/a	task-social/cue/runtype-vicarious/scl/l013.png	n/a	n/a	n/a	n/a	n/a	n/a	n/a	n/a
199.0	1.47	vicarious	expectrating	7	low_cue	n/a	32.54	Strong	32.54	Strong	0.23	1.24	task-social/cue/runtype-vicarious/scl/l013.png	n/a	n/a	n/a	n/a	n/a	n/a	n/a	n/a
208.49	5.0	vicarious	stimulus	7	low_cue	low_stim	n/a	n/a	n/a	n/a	n/a	n/a	task-social/stim/runtype-vicarious/dn124t1aaunaff_L.mp4	n/a	n/a	n/a	n/a	n/a	n/a	n/a	n/a
220.71	1.35	vicarious	outcomerating	7	low_cue	low_stim	3.59	Weak	3.59	Weak	0.23	1.24	task-social/outcomerating/task-vicarious_scale.png	n/a	n/a	n/a	n/a	n/a	n/a	n/a	n/a
225.5	0.99	vicarious	cue	8	high_cue	n/a	n/a	n/a	n/a	n/a	n/a	n/a	task-social/cue/runtype-vicarious/sch/h010.png	n/a	n/a	n/a	n/a	n/a	n/a	n/a	n/a
227.9	1.53	vicarious	expectrating	8	high_cue	n/a	58.43	Strong	58.43	Strong	0.35	1.18	task-social/cue/runtype-vicarious/sch/h010.png	n/a	n/a	n/a	n/a	n/a	n/a	n/a	n/a
237.39	5.0	vicarious	stimulus	8	high_cue	med_stim	n/a	n/a	n/a	n/a	n/a	n/a	task-social/stim/runtype-vicarious/ak064t1aiaff_M.mp4	n/a	n/a	n/a	n/a	n/a	n/a	n/a	n/a
247.52	2.24	vicarious	outcomerating	8	high_cue	med_stim	8.75	Weak	8.75	Weak	0.35	1.18	task-social/outcomerating/task-vicarious_scale.png	n/a	n/a	n/a	n/a	n/a	n/a	n/a	n/a
255.11	0.98	vicarious	cue	9	low_cue	n/a	n/a	n/a	n/a	n/a	n/a	n/a	task-social/cue/runtype-vicarious/scl/l025.png	n/a	n/a	n/a	n/a	n/a	n/a	n/a	n/a
257.11	1.57	vicarious	expectrating	9	low_cue	n/a	15.38	Moderate	15.38	Moderate	0.33	1.23	task-social/cue/runtype-vicarious/scl/l025.png	n/a	n/a	n/a	n/a	n/a	n/a	n/a	n/a
264.79	5.0	vicarious	stimulus	9	low_cue	high_stim	n/a	n/a	n/a	n/a	n/a	n/a	task-social/stim/runtype-vicarious/jh043t2aeaff_H.mp4	n/a	n/a	n/a	n/a	n/a	n/a	n/a	n/a
278.32	1.29	vicarious	outcomerating	9	low_cue	high_stim	15.63	Moderate	15.63	Moderate	0.33	1.23	task-social/outcomerating/task-vicarious_scale.png	n/a	n/a	n/a	n/a	n/a	n/a	n/a	n/a
288.6	0.99	vicarious	cue	10	high_cue	n/a	n/a	n/a	n/a	n/a	n/a	n/a	task-social/cue/runtype-vicarious/sch/h033.png	n/a	n/a	n/a	n/a	n/a	n/a	n/a	n/a
291.51	1.37	vicarious	expectrating	10	high_cue	n/a	48.44	Strong	48.44	Strong	0.35	1.02	task-social/cue/runtype-vicarious/sch/h033.png	n/a	n/a	n/a	n/a	n/a	n/a	n/a	n/a
301.69	5.0	vicarious	stimulus	10	high_cue	med_stim	n/a	n/a	n/a	n/a	n/a	n/a	task-social/stim/runtype-vicarious/hs107t2aaaff_M.mp4	n/a	n/a	n/a	n/a	n/a	n/a	n/a	n/a
311.91	1.63	vicarious	outcomerating	10	high_cue	med_stim	50.55	Strong	50.55	Strong	0.35	1.02	task-social/outcomerating/task-vicarious_scale.png	n/a	n/a	n/a	n/a	n/a	n/a	n/a	n/a
319.2	0.99	vicarious	cue	11	low_cue	n/a	n/a	n/a	n/a	n/a	n/a	n/a	task-social/cue/runtype-vicarious/scl/l005.png	n/a	n/a	n/a	n/a	n/a	n/a	n/a	n/a
322.0	1.36	vicarious	expectrating	11	low_cue	n/a	17.73	Moderate	17.73	Moderate	0.3	1.06	task-social/cue/runtype-vicarious/scl/l005.png	n/a	n/a	n/a	n/a	n/a	n/a	n/a	n/a
332.19	5.0	vicarious	stimulus	11	low_cue	low_stim	n/a	n/a	n/a	n/a	n/a	n/a	task-social/stim/runtype-vicarious/kz120t2aaunaff_L.mp4	n/a	n/a	n/a	n/a	n/a	n/a	n/a	n/a
348.01	1.4	vicarious	outcomerating	11	low_cue	low_stim	5.36	Weak	5.36	Weak	0.3	1.06	task-social/outcomerating/task-vicarious_scale.png	n/a	n/a	n/a	n/a	n/a	n/a	n/a	n/a
362.5	0.99	vicarious	cue	12	high_cue	n/a	n/a	n/a	n/a	n/a	n/a	n/a	task-social/cue/runtype-vicarious/sch/h044.png	n/a	n/a	n/a	n/a	n/a	n/a	n/a	n/a
364.9	1.15	vicarious	expectrating	12	high_cue	n/a	44.51	Strong	44.51	Strong	0.32	0.83	task-social/cue/runtype-vicarious/sch/h044.png	n/a	n/a	n/a	n/a	n/a	n/a	n/a	n/a
381.59	5.0	vicarious	stimulus	12	high_cue	high_stim	n/a	n/a	n/a	n/a	n/a	n/a	task-social/stim/runtype-vicarious/jh123t1aeaff_H.mp4	n/a	n/a	n/a	n/a	n/a	n/a	n/a	n/a
394.81	1.48	vicarious	outcomerating	12	high_cue	high_stim	46.78	Strong	46.78	Strong	0.32	0.83	task-social/outcomerating/task-vicarious_scale.png	n/a	n/a	n/a	n/a	n/a	n/a	n/a	n/a
