onset	duration	run_type	trial_type	trial_index	cue	stimulusintensity	rating_value	rating_glmslabel	rating_value_fillna	rating_glmslabel_fillna	rating_mouseonset	rating_mousedur	stim_file	pain_onset_ttl1	pain_onset_ttl2	pain_onset_ttl3	pain_onset_ttl4	pain_stimulus_delivery_success	cognitive_correct_response	cognitive_participant_response	cognitive_response_accuracy
7.9	0.99	cognitive	cue	1	high_cue	n/a	n/a	n/a	n/a	n/a	n/a	n/a	n/a	n/a	n/a	n/a	n/a	n/a	n/a	n/a	n/a
10.12	1.45	cognitive	expectrating	1	high_cue	n/a	80.99	Very Strong	80.99	Very Strong	0.27	1.19	task-social/cue/runtype-cognitive/sch/h008.png	n/a	n/a	n/a	n/a	n/a	n/a	n/a	n/a
20.81	5.0	cognitive	stimulus	1	high_cue	low_stim	n/a	n/a	n/a	n/a	n/a	n/a	task-social/stim/runtype-cognitive/5_50.jpg	n/a	n/a	n/a	n/a	n/a	same	same	True
33.01	1.3	cognitive	outcomerating	1	high_cue	low_stim	36.24	Strong	36.24	Strong	0.37	0.93	task-social/outcomerating/task-cognitive_scale.png	n/a	n/a	n/a	n/a	n/a	n/a	n/a	n/a
37.6	0.99	cognitive	cue	2	low_cue	n/a	n/a	n/a	n/a	n/a	n/a	n/a	n/a	n/a	n/a	n/a	n/a	n/a	n/a	n/a	n/a
40.01	1.05	cognitive	expectrating	2	low_cue	n/a	28.42	Moderate	28.42	Moderate	0.05	1.0	task-social/cue/runtype-cognitive/scl/l011.png	n/a	n/a	n/a	n/a	n/a	n/a	n/a	n/a
47.4	5.0	cognitive	stimulus	2	low_cue	med_stim	n/a	n/a	n/a	n/a	n/a	n/a	task-social/stim/runtype-cognitive/5_100_R.jpg	n/a	n/a	n/a	n/a	n/a	diff	diff	True
57.5	1.69	cognitive	outcomerating	2	low_cue	med_stim	34.9	Strong	34.9	Strong	0.45	1.24	task-social/outcomerating/task-cognitive_scale.png	n/a	n/a	n/a	n/a	n/a	n/a	n/a	n/a
66.71	0.98	cognitive	cue	3	high_cue	n/a	n/a	n/a	n/a	n/a	n/a	n/a	n/a	n/a	n/a	n/a	n/a	n/a	n/a	n/a	n/a
68.91	1.43	cognitive	expectrating	3	high_cue	n/a	34.72	Strong	34.72	Strong	0.37	1.07	task-social/cue/runtype-cognitive/sch/h024.png	n/a	n/a	n/a	n/a	n/a	n/a	n/a	n/a
81.91	5.0	cognitive	stimulus	3	high_cue	low_stim	n/a	n/a	n/a	n/a	n/a	n/a	task-social/stim/runtype-cognitive/42_50.jpg	n/a	n/a	n/a	n/a	n/a	same	same	True
90.4	2.56	cognitive	outcomerating	3	high_cue	low_stim	49.55	Strong	49.55	Strong	0.65	1.91	task-social/outcomerating/task-cognitive_scale.png	n/a	n/a	n/a	n/a	n/a	n/a	n/a	n/a
95.5	0.99	cognitive	cue	4	low_cue	n/a	n/a	n/a	n/a	n/a	n/a	n/a	n/a	n/a	n/a	n/a	n/a	n/a	n/a	n/a	n/a
99.0	1.2	cognitive	expectrating	4	low_cue	n/a	29.08	Strong	29.08	Strong	0.05	1.15	task-social/cue/runtype-cognitive/scl/l038.png	n/a	n/a	n/a	n/a	n/a	n/a	n/a	n/a
107.61	5.0	cognitive	stimulus	4	low_cue	med_stim	n/a	n/a	n/a	n/a	n/a	n/a	task-social/stim/runtype-cognitive/38_100_R.jpg	n/a	n/a	n/a	n/a	n/a	diff	diff	True
120.81	1.32	cognitive	outcomerating	4	low_cue	med_stim	17.1	Moderate	17.1	Moderate	0.43	0.88	task-social/outcomerating/task-cognitive_scale.png	n/a	n/a	n/a	n/a	n/a	n/a	n/a	n/a
125.91	0.98	cognitive	cue	5	high_cue	n/a	n/a	n/a	n/a	n/a	n/a	n/a	n/a	n/a	n/a	n/a	n/a	n/a	n/a	n/a	n/a
127.61	1.42	cognitive	expectrating	5	high_cue	n/a	33.05	Strong	33.05	Strong	0.4	1.02	task-social/cue/runtype-cognitive/sch/h047.png	n/a	n/a	n/a	n/a	n/a	n/a	n/a	n/a
134.22	5.0	cognitive	stimulus	5	high_cue	high_stim	n/a	n/a	n/a	n/a	n/a	n/a	task-social/stim/runtype-cognitive/27_150_R.jpg	n/a	n/a	n/a	n/a	n/a	diff	diff	True
147.4	2.05	cognitive	outcomerating	5	high_cue	high_stim	20.48	Moderate	20.48	Moderate	0.97	1.08	task-social/outcomerating/task-cognitive_scale.png	n/a	n/a	n/a	n/a	n/a	n/a	n/a	n/a
152.01	0.98	cognitive	cue	6	low_cue	n/a	n/a	n/a	n/a	n/a	n/a	n/a	n/a	n/a	n/a	n/a	n/a	n/a	n/a	n/a	n/a
155.51	1.03	cognitive	expectrating	6	low_cue	n/a	15.79	Moderate	15.79	Moderate	0.08	0.95	task-social/cue/runtype-cognitive/scl/l016.png	n/a	n/a	n/a	n/a	n/a	n/a	n/a	n/a
169.71	5.0	cognitive	stimulus	6	low_cue	low_stim	n/a	n/a	n/a	n/a	n/a	n/a	task-social/stim/runtype-cognitive/43_50.jpg	n/a	n/a	n/a	n/a	n/a	same	same	True
181.9	2.62	cognitive	outcomerating	6	low_cue	low_stim	19.24	Moderate	19.24	Moderate	0.88	1.74	task-social/outcomerating/task-cognitive_scale.png	n/a	n/a	n/a	n/a	n/a	n/a	n/a	n/a
187.5	0.99	cognitive	cue	7	low_cue	n/a	n/a	n/a	n/a	n/a	n/a	n/a	n/a	n/a	n/a	n/a	n/a	n/a	n/a	n/a	n/a
189.7	1.35	cognitive	expectrating	7	low_cue	n/a	14.87	Moderate	14.87	Moderate	0.15	1.2	task-social/cue/runtype-cognitive/scl/l042.png	n/a	n/a	n/a	n/a	n/a	n/a	n/a	n/a
203.91	5.0	cognitive	stimulus	7	low_cue	high_stim	n/a	n/a	n/a	n/a	n/a	n/a	task-social/stim/runtype-cognitive/44_150_R.jpg	n/a	n/a	n/a	n/a	n/a	diff	diff	True
217.21	2.4	cognitive	outcomerating	7	low_cue	high_stim	9.73	Weak	9.73	Weak	0.8	1.6	task-social/outcomerating/task-cognitive_scale.png	n/a	n/a	n/a	n/a	n/a	n/a	n/a	n/a
223.4	0.99	cognitive	cue	8	low_cue	n/a	n/a	n/a	n/a	n/a	n/a	n/a	n/a	n/a	n/a	n/a	n/a	n/a	n/a	n/a	n/a
225.6	1.49	cognitive	expectrating	8	low_cue	n/a	6.9	Weak	6.9	Weak	0.5	0.99	task-social/cue/runtype-cognitive/scl/l009.png	n/a	n/a	n/a	n/a	n/a	n/a	n/a	n/a
232.2	5.0	cognitive	stimulus	8	low_cue	low_stim	n/a	n/a	n/a	n/a	n/a	n/a	task-social/stim/runtype-cognitive/38_50_R.jpg	n/a	n/a	n/a	n/a	n/a	diff	diff	True
245.51	2.15	cognitive	outcomerating	8	low_cue	low_stim	49.87	Strong	49.87	Strong	0.42	1.73	task-social/outcomerating/task-cognitive_scale.png	n/a	n/a	n/a	n/a	n/a	n/a	n/a	n/a
259.3	0.99	cognitive	cue	9	high_cue	n/a	n/a	n/a	n/a	n/a	n/a	n/a	n/a	n/a	n/a	n/a	n/a	n/a	n/a	n/a	n/a
262.8	1.48	cognitive	expectrating	9	high_cue	n/a	44.67	Strong	44.67	Strong	0.28	1.19	task-social/cue/runtype-cognitive/sch/h025.png	n/a	n/a	n/a	n/a	n/a	n/a	n/a	n/a
271.4	5.0	cognitive	stimulus	9	high_cue	high_stim	n/a	n/a	n/a	n/a	n/a	n/a	task-social/stim/runtype-cognitive/43_150_R.jpg	n/a	n/a	n/a	n/a	n/a	diff	diff	True
281.5	2.77	cognitive	outcomerating	9	high_cue	high_stim	21.31	Moderate	21.31	Moderate	0.6	2.17	task-social/outcomerating/task-cognitive_scale.png	n/a	n/a	n/a	n/a	n/a	n/a	n/a	n/a
291.71	0.98	cognitive	cue	10	low_cue	n/a	n/a	n/a	n/a	n/a	n/a	n/a	n/a	n/a	n/a	n/a	n/a	n/a	n/a	n/a	n/a
294.11	1.42	cognitive	expectrating	10	low_cue	n/a	4.65	Weak	4.65	Weak	0.58	0.83	task-social/cue/runtype-cognitive/scl/l043.png	n/a	n/a	n/a	n/a	n/a	n/a	n/a	n/a
301.71	5.0	cognitive	stimulus	10	low_cue	high_stim	n/a	n/a	n/a	n/a	n/a	n/a	task-social/stim/runtype-cognitive/43_150.jpg	n/a	n/a	n/a	n/a	n/a	same	same	True
310.2	2.36	cognitive	outcomerating	10	low_cue	high_stim	15.62	Moderate	15.62	Moderate	1.07	1.29	task-social/outcomerating/task-cognitive_scale.png	n/a	n/a	n/a	n/a	n/a	n/a	n/a	n/a
328.7	0.99	cognitive	cue	11	high_cue	n/a	n/a	n/a	n/a	n/a	n/a	n/a	n/a	n/a	n/a	n/a	n/a	n/a	n/a	n/a	n/a
331.11	1.4	cognitive	expectrating	11	high_cue	n/a	47.36	Strong	47.36	Strong	0.33	1.07	task-social/cue/runtype-cognitive/sch/h028.png	n/a	n/a	n/a	n/a	n/a	n/a	n/a	n/a
346.81	5.0	cognitive	stimulus	11	high_cue	med_stim	n/a	n/a	n/a	n/a	n/a	n/a	task-social/stim/runtype-cognitive/29_100.jpg	n/a	n/a	n/a	n/a	n/a	same	same	True
359.8	1.87	cognitive	outcomerating	11	high_cue	med_stim	49.4	Strong	49.4	Strong	0.37	1.51	task-social/outcomerating/task-cognitive_scale.png	n/a	n/a	n/a	n/a	n/a	n/a	n/a	n/a
369.6	0.99	cognitive	cue	12	high_cue	n/a	n/a	n/a	n/a	n/a	n/a	n/a	n/a	n/a	n/a	n/a	n/a	n/a	n/a	n/a	n/a
371.6	2.13	cognitive	expectrating	12	high_cue	n/a	52.39	Strong	52.39	Strong	0.63	1.5	task-social/cue/runtype-cognitive/sch/h021.png	n/a	n/a	n/a	n/a	n/a	n/a	n/a	n/a
384.61	5.0	cognitive	stimulus	12	high_cue	med_stim	n/a	n/a	n/a	n/a	n/a	n/a	task-social/stim/runtype-cognitive/35_100.jpg	n/a	n/a	n/a	n/a	n/a	same	diff	False
394.81	1.43	cognitive	outcomerating	12	high_cue	med_stim	0.0	n/a	0.0	n/a	0.5	0.93	task-social/outcomerating/task-cognitive_scale.png	n/a	n/a	n/a	n/a	n/a	n/a	n/a	n/a
