onset	duration	subtask_type	question	event_type	participant_response	normative_response	response_accuracy	stim_file
5.024810075759888	1.17113995552063	tomspunt	reaching?	how_hand	yes	yes	correct	task-tomspunt/H_007.jpg
6.508700132369995	0.6698298454284668	tomspunt	reaching?	how_hand	yes	no	incorrect	task-tomspunt/H_532.jpg
7.492400169372559	0.6861898899078369	tomspunt	reaching?	how_hand	yes	yes	correct	task-tomspunt/H_474.jpg
8.492769956588745	0.786020040512085	tomspunt	reaching?	how_hand	no	no	correct	task-tomspunt/H_438.jpg
9.593180179595947	0.6708698272705078	tomspunt	reaching?	how_hand	no	yes	incorrect	task-tomspunt/H_364.jpg
10.576879978179932	0.9681601524353028	tomspunt	reaching?	how_hand	yes	yes	correct	task-tomspunt/H_006.jpg
11.860690116882324	0.6183600425720215	tomspunt	reaching?	how_hand	yes	yes	correct	task-tomspunt/H_003.jpg
12.79437017440796	0.5351099967956543	tomspunt	reaching?	how_hand	yes	no	incorrect	task-tomspunt/H_132.jpg
22.548010110855103	0.6516098976135254	tomspunt	healthy?	why_hand	yes	yes	correct	task-tomspunt/H_627.jpg
23.515040159225464	0.6518199443817139	tomspunt	healthy?	why_hand	yes	yes	correct	task-tomspunt/H_438.jpg
24.482059955596924	0.6852400302886963	tomspunt	healthy?	why_hand	yes	yes	correct	task-tomspunt/H_364.jpg
25.48243999481201	0.5128099918365479	tomspunt	healthy?	why_hand	yes	no	incorrect	task-tomspunt/H_130.jpg
26.299410104751587	0.6513099670410156	tomspunt	healthy?	why_hand	yes	yes	correct	task-tomspunt/H_362.jpg
27.26644015312195	0.5451200008392334	tomspunt	healthy?	why_hand	yes	no	incorrect	task-tomspunt/H_007.jpg
28.11675000190735	0.6951801776885986	tomspunt	healthy?	why_hand	yes	yes	correct	task-tomspunt/H_167.jpg
29.117130041122437	0.7346699237823486	tomspunt	healthy?	why_hand	yes	no	incorrect	task-tomspunt/H_019.jpg
41.65514016151428	0.4237599372863769	tomspunt	admiring?	why_face	yes	yes	correct	task-tomspunt/F_779.jpg
42.38874006271362	0.5394399166107178	tomspunt	admiring?	why_face	yes	yes	correct	task-tomspunt/F_593.jpg
43.239060163497925	0.5348098278045654	tomspunt	admiring?	why_face	yes	no	incorrect	task-tomspunt/F_110.jpg
44.08938002586365	0.3722000122070312	tomspunt	admiring?	why_face	yes	yes	correct	task-tomspunt/F_590.jpg
44.77296018600464	0.4052097797393799	tomspunt	admiring?	why_face	no	no	correct	task-tomspunt/F_692.jpg
45.4899001121521	0.3386199474334717	tomspunt	admiring?	why_face	yes	yes	correct	task-tomspunt/F_759.jpg
46.14014005661011	0.271860122680664	tomspunt	admiring?	why_face	no	yes	incorrect	task-tomspunt/F_648.jpg
46.723690032958984	0.4215900897979736	tomspunt	admiring?	why_face	no	no	correct	task-tomspunt/F_129.jpg
60.6288800239563	0.4515800476074219	tomspunt	smiling?	how_face	yes	yes	correct	task-tomspunt/F_139.jpg
61.395830154418945	0.4184598922729492	tomspunt	smiling?	how_face	no	no	correct	task-tomspunt/F_712.jpg
62.12944006919861	0.4512500762939453	tomspunt	smiling?	how_face	yes	yes	correct	task-tomspunt/F_695.jpg
62.89638996124267	0.5012600421905518	tomspunt	smiling?	how_face	yes	no	incorrect	task-tomspunt/F_758.jpg
63.71336007118225	0.3686699867248535	tomspunt	smiling?	how_face	yes	yes	correct	task-tomspunt/F_083.jpg
64.39695000648499	0.31781005859375	tomspunt	smiling?	how_face	no	yes	incorrect	task-tomspunt/F_759.jpg
65.03051996231079	0.318270206451416	tomspunt	smiling?	how_face	no	no	correct	task-tomspunt/F_412.jpg
65.66409015655518	0.3515598773956299	tomspunt	smiling?	how_face	yes	yes	correct	task-tomspunt/F_593.jpg
78.15208005905151	0.4267001152038574	tomspunt	lifting?	how_hand	yes	yes	correct	task-tomspunt/H_136.jpg
78.88568997383118	0.3924901485443115	tomspunt	lifting?	how_hand	yes	no	incorrect	task-tomspunt/H_038.jpg
79.58595013618469	0.451740026473999	tomspunt	lifting?	how_hand	yes	yes	correct	task-tomspunt/H_189.jpg
80.35290002822876	0.4682600498199463	tomspunt	lifting?	how_hand	yes	no	incorrect	task-tomspunt/H_077.jpg
81.13653016090393	0.4422299861907959	tomspunt	lifting?	how_hand	yes	yes	correct	task-tomspunt/H_443.jpg
81.8868100643158	0.5413999557495117	tomspunt	lifting?	how_hand	no	no	correct	task-tomspunt/H_012.jpg
82.73712015151978	0.3576998710632324	tomspunt	lifting?	how_hand	yes	yes	correct	task-tomspunt/H_362.jpg
83.40404009819031	0.3351399898529053	tomspunt	lifting?	how_hand	no	yes	incorrect	task-tomspunt/H_170.jpg
100.6438000202179	0.3515400886535644	tomspunt	helping?	why_hand	yes	yes	correct	task-tomspunt/H_077.jpg
101.31071996688844	0.3849201202392578	tomspunt	helping?	why_hand	yes	yes	correct	task-tomspunt/H_349.jpg
102.01098012924194	0.5016398429870605	tomspunt	helping?	why_hand	yes	yes	correct	task-tomspunt/H_474.jpg
102.82795000076294	0.534980058670044	tomspunt	helping?	why_hand	no	yes	incorrect	task-tomspunt/H_024.jpg
103.67827010154724	0.351330041885376	tomspunt	helping?	why_hand	yes	no	incorrect	task-tomspunt/H_012.jpg
104.34518003463744	0.3667299747467041	tomspunt	helping?	why_hand	yes	no	incorrect	task-tomspunt/H_159.jpg
105.01209998130798	0.5165801048278809	tomspunt	helping?	why_hand	no	yes	incorrect	task-tomspunt/H_111.jpg
105.82907009124756	0.6520199775695801	tomspunt	helping?	why_hand	yes	no	incorrect	task-tomspunt/H_091.jpg
118.51713013648988	0.378350019454956	tomspunt	proud?	why_face	yes	yes	correct	task-tomspunt/F_598.jpg
119.2007200717926	0.5112700462341309	tomspunt	proud?	why_face	no	no	correct	task-tomspunt/F_760.jpg
120.01769018173218	0.3846898078918457	tomspunt	proud?	why_face	yes	yes	correct	task-tomspunt/F_582.jpg
120.71795010566711	0.4936299324035644	tomspunt	proud?	why_face	no	no	correct	task-tomspunt/F_412.jpg
121.51824998855592	0.4099400043487549	tomspunt	proud?	why_face	yes	yes	correct	task-tomspunt/F_083.jpg
122.23519015312196	0.4683799743652344	tomspunt	proud?	why_face	yes	no	incorrect	task-tomspunt/F_776.jpg
123.01881003379822	0.4435000419616699	tomspunt	proud?	why_face	yes	yes	correct	task-tomspunt/F_618.jpg
123.76909017562866	0.4426298141479492	tomspunt	proud?	why_face	no	yes	incorrect	task-tomspunt/F_695.jpg
136.04033017158508	0.3352398872375488	tomspunt	looking to side?	how_face	yes	yes	correct	task-tomspunt/F_590.jpg
136.6905801296234	0.4047000408172607	tomspunt	looking to side?	how_face	yes	yes	correct	task-tomspunt/F_433.jpg
137.40751004219055	0.3706600666046142	tomspunt	looking to side?	how_face	yes	yes	correct	task-tomspunt/F_716.jpg
138.0910999774933	0.3871500492095947	tomspunt	looking to side?	how_face	yes	no	incorrect	task-tomspunt/F_779.jpg
138.7913601398468	0.4368000030517578	tomspunt	looking to side?	how_face	no	yes	incorrect	task-tomspunt/F_760.jpg
139.54164004325867	0.4205899238586426	tomspunt	looking to side?	how_face	no	no	correct	task-tomspunt/F_111.jpg
140.27524995803833	0.4363200664520263	tomspunt	looking to side?	how_face	yes	yes	correct	task-tomspunt/F_110.jpg
141.02553009986875	0.4364299774169922	tomspunt	looking to side?	how_face	yes	no	incorrect	task-tomspunt/F_798.jpg
155.14745998382568	0.3980700969696045	tomspunt	argument?	why_face	yes	yes	correct	task-tomspunt/F_716.jpg
155.8477201461792	0.3638498783111572	tomspunt	argument?	why_face	yes	no	incorrect	task-tomspunt/F_139.jpg
156.51464009284973	0.4846100807189941	tomspunt	argument?	why_face	yes	yes	correct	task-tomspunt/F_712.jpg
157.3149299621582	0.4972400665283203	tomspunt	argument?	why_face	no	no	correct	task-tomspunt/F_433.jpg
158.11523008346558	0.4014298915863037	tomspunt	argument?	why_face	yes	yes	correct	task-tomspunt/F_403.jpg
158.83217000961304	0.4627001285552978	tomspunt	argument?	why_face	no	no	correct	task-tomspunt/F_844.jpg
159.59912014007568	0.46875	tomspunt	argument?	why_face	yes	yes	correct	task-tomspunt/F_743.jpg
160.38274002075195	0.2848401069641113	tomspunt	argument?	why_face	no	yes	incorrect	task-tomspunt/F_758.jpg
172.98745012283325	0.3685200214385986	tomspunt	open mouth?	how_face	yes	yes	correct	task-tomspunt/F_844.jpg
173.67103004455566	0.3678901195526123	tomspunt	open mouth?	how_face	yes	yes	correct	task-tomspunt/F_776.jpg
174.3546199798584	0.4185700416564941	tomspunt	open mouth?	how_face	yes	no	incorrect	task-tomspunt/F_544.jpg
175.08823013305664	0.2846798896789551	tomspunt	open mouth?	how_face	yes	yes	correct	task-tomspunt/F_692.jpg
175.68845009803772	0.389780044555664	tomspunt	open mouth?	how_face	yes	no	incorrect	task-tomspunt/F_584.jpg
176.38871002197266	0.5061600208282471	tomspunt	open mouth?	how_face	no	yes	incorrect	task-tomspunt/F_403.jpg
177.20569014549255	0.0230698585510253	tomspunt	open mouth?	how_face	yes	yes	correct	task-tomspunt/F_086.jpg
177.5391399860382	0.255770206451416	tomspunt	open mouth?	how_face	yes	no	incorrect	task-tomspunt/F_648.jpg
190.87744998931885	0.401669979095459	tomspunt	pressing button?	how_hand	yes	yes	correct	task-tomspunt/H_019.jpg
191.59438014030457	0.4686799049377441	tomspunt	pressing button?	how_hand	yes	no	incorrect	task-tomspunt/H_024.jpg
192.37801003456116	0.3682699203491211	tomspunt	pressing button?	how_hand	yes	no	incorrect	task-tomspunt/H_130.jpg
193.0615999698639	0.4684901237487793	tomspunt	pressing button?	how_hand	yes	yes	correct	task-tomspunt/H_502.jpg
193.8452200889587	0.4679200649261474	tomspunt	pressing button?	how_hand	no	no	correct	task-tomspunt/H_261.jpg
194.62884998321533	0.4849700927734375	tomspunt	pressing button?	how_hand	yes	yes	correct	task-tomspunt/H_332.jpg
195.4291501045227	0.5849699974060059	tomspunt	pressing button?	how_hand	yes	yes	correct	task-tomspunt/H_126.jpg
196.3294801712036	0.5178999900817871	tomspunt	pressing button?	how_hand	no	yes	incorrect	task-tomspunt/H_483.jpg
208.6674201488495	0.4111900329589844	tomspunt	competing?	why_hand	yes	yes	correct	task-tomspunt/H_261.jpg
209.38435006141663	0.7272400856018066	tomspunt	competing?	why_hand	no	no	correct	task-tomspunt/H_483.jpg
210.41807007789612	0.7017600536346436	tomspunt	competing?	why_hand	yes	yes	correct	task-tomspunt/H_132.jpg
211.4351201057434	0.6517000198364258	tomspunt	competing?	why_hand	no	no	correct	task-tomspunt/H_126.jpg
212.40214014053345	0.6434600353240967	tomspunt	competing?	why_hand	yes	yes	correct	task-tomspunt/H_136.jpg
213.35249996185303	0.6594099998474121	tomspunt	competing?	why_hand	yes	no	incorrect	task-tomspunt/H_502.jpg
214.3195300102234	0.542060136795044	tomspunt	competing?	why_hand	no	yes	incorrect	task-tomspunt/H_003.jpg
215.16984009742737	0.4921998977661133	tomspunt	competing?	why_hand	yes	yes	correct	task-tomspunt/H_170.jpg
226.74082016944885	0.637969970703125	tomspunt	self-doubt?	why_face	no	yes	incorrect	task-tomspunt/F_544.jpg
227.69117999076843	0.8703601360321045	tomspunt	self-doubt?	why_face	no	no	correct	task-tomspunt/F_086.jpg
228.87495017051697	0.6198098659515381	tomspunt	self-doubt?	why_face	yes	yes	correct	task-tomspunt/F_798.jpg
229.80864000320437	0.6364600658416748	tomspunt	self-doubt?	why_face	yes	yes	correct	task-tomspunt/F_111.jpg
230.75899004936215	0.6196999549865723	tomspunt	self-doubt?	why_face	no	no	correct	task-tomspunt/F_774.jpg
231.69267010688785	0.7696399688720703	tomspunt	self-doubt?	why_face	no	yes	incorrect	task-tomspunt/F_754.jpg
232.77641010284424	0.918910026550293	tomspunt	self-doubt?	why_face	no	no	correct	task-tomspunt/F_128.jpg
234.01020002365112	0.9679901599884032	tomspunt	self-doubt?	why_face	yes	yes	correct	task-tomspunt/F_584.jpg
245.79793000221252	0.6519901752471924	tomspunt	looking at camera?	how_face	yes	yes	correct	task-tomspunt/F_128.jpg
246.76496005058289	0.6801600456237793	tomspunt	looking at camera?	how_face	yes	yes	correct	task-tomspunt/F_618.jpg
247.74866008758545	0.6961898803710938	tomspunt	looking at camera?	how_face	yes	yes	correct	task-tomspunt/F_598.jpg
248.7490301132202	0.7513699531555176	tomspunt	looking at camera?	how_face	no	no	correct	task-tomspunt/F_743.jpg
249.81610012054443	0.0181498527526855	tomspunt	looking at camera?	how_face	no	yes	incorrect	task-tomspunt/F_774.jpg
250.1495499610901	1.3690600395202637	tomspunt	looking at camera?	how_face	no	no	correct	task-tomspunt/F_582.jpg
251.8335201740265	1.2849698066711426	tomspunt	looking at camera?	how_face	no	no	correct	task-tomspunt/F_754.jpg
253.43411016464233	0.7346699237823486	tomspunt	looking at camera?	how_face	yes	yes	correct	task-tomspunt/F_129.jpg
264.58827018737793	1.0400099754333496	tomspunt	both hands?	how_hand	yes	yes	correct	task-tomspunt/H_167.jpg
265.9387800693512	0.6903200149536133	tomspunt	both hands?	how_hand	no	no	correct	task-tomspunt/H_091.jpg
266.93915009498596	0.9353399276733398	tomspunt	both hands?	how_hand	no	no	correct	task-tomspunt/H_627.jpg
268.18962001800537	0.8556599617004395	tomspunt	both hands?	how_hand	yes	yes	correct	task-tomspunt/H_027.jpg
269.3567199707031	0.8687400817871094	tomspunt	both hands?	how_hand	yes	yes	correct	task-tomspunt/H_111.jpg
270.54049015045166	0.7849299907684326	tomspunt	both hands?	how_hand	no	no	correct	task-tomspunt/H_159.jpg
271.6409001350403	0.9852299690246582	tomspunt	both hands?	how_hand	yes	yes	correct	task-tomspunt/H_581.jpg
272.9413900375366	0.737450122833252	tomspunt	both hands?	how_hand	yes	yes	correct	task-tomspunt/H_349.jpg
283.37861013412476	0.6345798969268799	tomspunt	self-protection?	why_hand	yes	yes	correct	task-tomspunt/H_443.jpg
284.32896995544434	0.767970085144043	tomspunt	self-protection?	why_hand	no	no	correct	task-tomspunt/H_006.jpg
285.412700176239	0.934889793395996	tomspunt	self-protection?	why_hand	yes	yes	correct	task-tomspunt/H_581.jpg
286.6631700992584	0.7346699237823486	tomspunt	self-protection?	why_hand	no	no	correct	task-tomspunt/H_532.jpg
287.7135601043701	0.9185099601745604	tomspunt	self-protection?	why_hand	yes	yes	correct	task-tomspunt/H_027.jpg
288.9473600387573	0.8013601303100586	tomspunt	self-protection?	why_hand	yes	yes	correct	task-tomspunt/H_038.jpg
290.06444001197815	0.9681601524353028	tomspunt	self-protection?	why_hand	no	no	correct	task-tomspunt/H_332.jpg
291.34825015068054	1.163729906082153	tomspunt	self-protection?	why_hand	yes	yes	correct	task-tomspunt/H_189.jpg
304.85329008102417	0.4916000366210937	tomspunt	smiling?	how_face	yes	yes	correct	task-tomspunt/F_759.jpg
305.65358996391296	0.6683700084686279	tomspunt	smiling?	how_face	no	no	correct	task-tomspunt/F_412.jpg
306.6372900009155	0.6853101253509521	tomspunt	smiling?	how_face	yes	yes	correct	task-tomspunt/F_593.jpg
307.6376600265503	0.6351799964904785	tomspunt	smiling?	how_face	no	no	correct	task-tomspunt/F_712.jpg
308.58801007270813	0.6023299694061279	tomspunt	smiling?	how_face	yes	yes	correct	task-tomspunt/F_695.jpg
309.50502014160156	0.618649959564209	tomspunt	smiling?	how_face	yes	yes	correct	task-tomspunt/F_139.jpg
310.4386999607086	0.5565600395202637	tomspunt	smiling?	how_face	yes	yes	correct	task-tomspunt/F_083.jpg
311.3056900501251	0.655980110168457	tomspunt	smiling?	how_face	no	no	correct	task-tomspunt/F_758.jpg
322.64326000213623	0.468670129776001	tomspunt	admiring?	why_face	yes	yes	correct	task-tomspunt/F_593.jpg
323.4268801212311	0.6019799709320068	tomspunt	admiring?	why_face	no	no	correct	task-tomspunt/F_129.jpg
324.3438901901245	0.5844697952270508	tomspunt	admiring?	why_face	yes	yes	correct	task-tomspunt/F_759.jpg
325.24423003196716	0.6012201309204102	tomspunt	admiring?	why_face	no	no	correct	task-tomspunt/F_692.jpg
326.1612300872803	0.6011500358581543	tomspunt	admiring?	why_face	yes	yes	correct	task-tomspunt/F_779.jpg
327.0615701675415	0.6180298328399658	tomspunt	admiring?	why_face	yes	yes	correct	task-tomspunt/F_590.jpg
327.99524998664856	0.7686901092529297	tomspunt	admiring?	why_face	yes	yes	correct	task-tomspunt/F_648.jpg
329.078989982605	0.7832400798797607	tomspunt	admiring?	why_face	no	no	correct	task-tomspunt/F_110.jpg
340.5332601070404	0.6124298572540283	tomspunt	competing?	why_hand	yes	yes	correct	task-tomspunt/H_261.jpg
341.45027017593384	0.5016698837280273	tomspunt	competing?	why_hand	yes	yes	correct	task-tomspunt/H_170.jpg
342.26724004745483	0.6352601051330566	tomspunt	competing?	why_hand	no	no	correct	task-tomspunt/H_483.jpg
343.217600107193	0.5852499008178711	tomspunt	competing?	why_hand	yes	yes	correct	task-tomspunt/H_132.jpg
344.1179301738739	0.610260009765625	tomspunt	competing?	why_hand	yes	yes	correct	task-tomspunt/H_136.jpg
345.03494000434875	0.610450029373169	tomspunt	competing?	why_hand	yes	yes	correct	task-tomspunt/H_003.jpg
345.9519500732422	0.7933599948883057	tomspunt	competing?	why_hand	no	no	correct	task-tomspunt/H_126.jpg
347.0523600578308	0.7187700271606445	tomspunt	competing?	why_hand	no	no	correct	task-tomspunt/H_502.jpg
362.0079400539398	0.6208899021148682	tomspunt	reaching?	how_hand	yes	yes	correct	task-tomspunt/H_003.jpg
362.94162011146545	0.7205898761749268	tomspunt	reaching?	how_hand	yes	yes	correct	task-tomspunt/H_364.jpg
363.97534012794495	0.8703398704528809	tomspunt	reaching?	how_hand	no	no	correct	task-tomspunt/H_532.jpg
365.1591100692749	0.6695399284362793	tomspunt	reaching?	how_hand	yes	yes	correct	task-tomspunt/H_006.jpg
366.14281010627747	0.7526600360870361	tomspunt	reaching?	how_hand	no	no	correct	task-tomspunt/H_438.jpg
367.2098801136017	0.8684999942779541	tomspunt	reaching?	how_hand	yes	yes	correct	task-tomspunt/H_007.jpg
368.3936500549317	0.9856300354003906	tomspunt	reaching?	how_hand	yes	yes	correct	task-tomspunt/H_474.jpg
369.694139957428	0.8351500034332275	tomspunt	reaching?	how_hand	no	no	correct	task-tomspunt/H_132.jpg
379.84792017936707	0.5845098495483398	tomspunt	open mouth?	how_face	yes	yes	correct	task-tomspunt/F_403.jpg
380.7482600212097	0.5847101211547852	tomspunt	open mouth?	how_face	no	no	correct	task-tomspunt/F_648.jpg
381.6485900878906	0.4685499668121338	tomspunt	open mouth?	how_face	yes	yes	correct	task-tomspunt/F_776.jpg
382.4322199821472	0.6012899875640869	tomspunt	open mouth?	how_face	no	no	correct	task-tomspunt/F_584.jpg
383.34923005104065	0.6131501197814941	tomspunt	open mouth?	how_face	yes	yes	correct	task-tomspunt/F_844.jpg
384.2662401199341	0.7020399570465088	tomspunt	open mouth?	how_face	yes	yes	correct	task-tomspunt/F_692.jpg
385.28328013420105	0.6853499412536621	tomspunt	open mouth?	how_face	yes	yes	correct	task-tomspunt/F_086.jpg
386.2836501598358	0.6512999534606934	tomspunt	open mouth?	how_face	no	no	correct	task-tomspunt/F_544.jpg
398.52155017852783	0.506659984588623	tomspunt	argument?	why_face	yes	yes	correct	task-tomspunt/F_403.jpg
399.3385200500488	0.5903201103210449	tomspunt	argument?	why_face	no	no	correct	task-tomspunt/F_844.jpg
400.23886013031006	0.6727499961853027	tomspunt	argument?	why_face	yes	yes	correct	task-tomspunt/F_712.jpg
401.2225601673126	0.6056599617004395	tomspunt	argument?	why_face	yes	yes	correct	task-tomspunt/F_758.jpg
402.1395699977875	0.638740062713623	tomspunt	argument?	why_face	no	no	correct	task-tomspunt/F_433.jpg
403.0899200439453	0.7553701400756836	tomspunt	argument?	why_face	yes	yes	correct	task-tomspunt/F_716.jpg
404.15699005126953	0.6879501342773438	tomspunt	argument?	why_face	no	no	correct	task-tomspunt/F_139.jpg
405.1573600769043	0.5517599582672119	tomspunt	argument?	why_face	yes	yes	correct	task-tomspunt/F_743.jpg
416.745010137558	0.8685400485992432	tomspunt	helping?	why_hand	no	yes	incorrect	task-tomspunt/H_024.jpg
417.92879009246826	0.6519999504089355	tomspunt	helping?	why_hand	yes	yes	correct	task-tomspunt/H_349.jpg
418.8958201408386	0.8518898487091064	tomspunt	helping?	why_hand	no	yes	incorrect	task-tomspunt/H_077.jpg
420.0629200935364	0.918060064315796	tomspunt	helping?	why_hand	yes	yes	correct	task-tomspunt/H_474.jpg
421.29671001434326	0.6853101253509521	tomspunt	helping?	why_hand	no	no	correct	task-tomspunt/H_091.jpg
422.2970900535583	0.7486999034881592	tomspunt	helping?	why_hand	no	no	correct	task-tomspunt/H_159.jpg
423.3474800586701	0.6846399307250977	tomspunt	helping?	why_hand	yes	yes	correct	task-tomspunt/H_111.jpg
424.3478500843048	0.8853499889373779	tomspunt	helping?	why_hand	no	no	correct	task-tomspunt/H_012.jpg
434.81842017173767	0.7179999351501465	tomspunt	both hands?	how_hand	yes	yes	correct	task-tomspunt/H_111.jpg
435.8521401882171	0.5599699020385742	tomspunt	both hands?	how_hand	yes	yes	correct	task-tomspunt/H_027.jpg
436.7191300392151	0.5760200023651123	tomspunt	both hands?	how_hand	no	no	correct	task-tomspunt/H_091.jpg
437.6027901172638	0.6596798896789551	tomspunt	both hands?	how_hand	yes	yes	correct	task-tomspunt/H_167.jpg
438.56982016563416	0.6850099563598633	tomspunt	both hands?	how_hand	yes	yes	correct	task-tomspunt/H_581.jpg
439.5701901912689	0.8353898525238037	tomspunt	both hands?	how_hand	no	no	correct	task-tomspunt/H_159.jpg
440.7206201553345	0.5575699806213379	tomspunt	both hands?	how_hand	yes	yes	correct	task-tomspunt/H_349.jpg
441.5876100063324	0.7240300178527832	tomspunt	both hands?	how_hand	no	no	correct	task-tomspunt/H_627.jpg
452.3416199684143	0.8355300426483154	tomspunt	healthy?	why_hand	yes	yes	correct	task-tomspunt/H_438.jpg
453.4920501708984	0.6200699806213379	tomspunt	healthy?	why_hand	yes	yes	correct	task-tomspunt/H_364.jpg
454.4257299900055	0.635890007019043	tomspunt	healthy?	why_hand	yes	yes	correct	task-tomspunt/H_362.jpg
455.37609004974365	0.8692200183868408	tomspunt	healthy?	why_hand	no	no	correct	task-tomspunt/H_019.jpg
456.5598599910736	0.6692700386047363	tomspunt	healthy?	why_hand	yes	yes	correct	task-tomspunt/H_167.jpg
457.5435600280762	1.1189100742340088	tomspunt	healthy?	why_hand	yes	no	incorrect	task-tomspunt/H_007.jpg
458.97743010520935	0.8353898525238037	tomspunt	healthy?	why_hand	yes	yes	correct	task-tomspunt/H_627.jpg
460.1278600692749	0.7678899765014648	tomspunt	healthy?	why_hand	no	no	correct	task-tomspunt/H_130.jpg
471.3820600509643	0.6516799926757812	tomspunt	pressing button?	how_hand	yes	yes	correct	task-tomspunt/H_126.jpg
472.3490800857544	0.7013099193572998	tomspunt	pressing button?	how_hand	no	no	correct	task-tomspunt/H_130.jpg
473.3661301136017	0.6179299354553223	tomspunt	pressing button?	how_hand	yes	yes	correct	task-tomspunt/H_483.jpg
474.2998101711273	0.6118199825286865	tomspunt	pressing button?	how_hand	no	no	correct	task-tomspunt/H_024.jpg
475.2168200016022	0.6183900833129883	tomspunt	pressing button?	how_hand	yes	yes	correct	task-tomspunt/H_332.jpg
476.1505000591278	0.7449300289154053	tomspunt	pressing button?	how_hand	yes	yes	correct	task-tomspunt/H_019.jpg
477.2008900642395	0.6107299327850342	tomspunt	pressing button?	how_hand	no	no	correct	task-tomspunt/H_261.jpg
478.11790013313293	0.5017800331115723	tomspunt	pressing button?	how_hand	yes	yes	correct	task-tomspunt/H_502.jpg
488.9219300746918	0.4896900653839111	tomspunt	looking at camera?	how_face	yes	yes	correct	task-tomspunt/F_618.jpg
489.72222995758057	0.6012701988220215	tomspunt	looking at camera?	how_face	no	no	correct	task-tomspunt/F_754.jpg
490.639240026474	0.5893700122833252	tomspunt	looking at camera?	how_face	yes	yes	correct	task-tomspunt/F_129.jpg
491.5395700931549	0.6556398868560791	tomspunt	looking at camera?	how_face	yes	yes	correct	task-tomspunt/F_598.jpg
492.50660014152527	0.5887999534606934	tomspunt	looking at camera?	how_face	yes	yes	correct	task-tomspunt/F_128.jpg
493.4069399833679	0.7019400596618652	tomspunt	looking at camera?	how_face	no	no	correct	task-tomspunt/F_582.jpg
494.4239799976349	0.538520097732544	tomspunt	looking at camera?	how_face	yes	yes	correct	task-tomspunt/F_774.jpg
495.2743000984192	0.5887100696563721	tomspunt	looking at camera?	how_face	no	no	correct	task-tomspunt/F_743.jpg
507.8790099620819	0.8019201755523682	tomspunt	self-doubt?	why_face	yes	yes	correct	task-tomspunt/F_798.jpg
508.996080160141	0.718519926071167	tomspunt	self-doubt?	why_face	yes	no	incorrect	task-tomspunt/F_086.jpg
510.0298001766205	0.8687198162078857	tomspunt	self-doubt?	why_face	yes	yes	correct	task-tomspunt/F_544.jpg
511.2135801315307	0.6513400077819824	tomspunt	self-doubt?	why_face	yes	yes	correct	task-tomspunt/F_754.jpg
512.1806001663208	0.8688199520111084	tomspunt	self-doubt?	why_face	yes	yes	correct	task-tomspunt/F_111.jpg
513.3643801212311	0.7183499336242676	tomspunt	self-doubt?	why_face	yes	yes	correct	task-tomspunt/F_584.jpg
514.3981001377106	0.8687398433685303	tomspunt	self-doubt?	why_face	no	no	correct	task-tomspunt/F_128.jpg
515.5818700790405	0.8180398941040039	tomspunt	self-doubt?	why_face	no	no	correct	task-tomspunt/F_774.jpg
525.4021999835968	0.4934899806976318	tomspunt	self-protection?	why_hand	yes	yes	correct	task-tomspunt/H_581.jpg
526.2025001049042	0.6185698509216309	tomspunt	self-protection?	why_hand	yes	yes	correct	task-tomspunt/H_443.jpg
527.1361801624298	0.792680025100708	tomspunt	self-protection?	why_hand	no	no	correct	task-tomspunt/H_332.jpg
528.2365901470184	0.73471999168396	tomspunt	self-protection?	why_hand	yes	yes	correct	task-tomspunt/H_027.jpg
529.2869801521301	1.041329860687256	tomspunt	self-protection?	why_hand	no	no	correct	task-tomspunt/H_532.jpg
530.6374900341034	0.95740008354187	tomspunt	self-protection?	why_hand	yes	yes	correct	task-tomspunt/H_189.jpg
531.9046301841736	0.8521199226379395	tomspunt	self-protection?	why_hand	no	no	correct	task-tomspunt/H_006.jpg
533.0717301368713	0.6403498649597168	tomspunt	self-protection?	why_hand	yes	yes	correct	task-tomspunt/H_038.jpg
543.6256601810455	0.8691799640655518	tomspunt	lifting?	how_hand	yes	yes	correct	task-tomspunt/H_443.jpg
544.8094401359558	0.6527299880981445	tomspunt	lifting?	how_hand	no	no	correct	task-tomspunt/H_038.jpg
545.7764701843262	0.6683897972106934	tomspunt	lifting?	how_hand	yes	yes	correct	task-tomspunt/H_136.jpg
546.7601699829102	0.6854000091552734	tomspunt	lifting?	how_hand	no	no	correct	task-tomspunt/H_012.jpg
547.7605400085449	0.6019401550292969	tomspunt	lifting?	how_hand	yes	yes	correct	task-tomspunt/H_362.jpg
548.6775500774384	0.934730052947998	tomspunt	lifting?	how_hand	no	yes	incorrect	task-tomspunt/H_189.jpg
549.9280200004578	0.5178999900817871	tomspunt	lifting?	how_hand	yes	yes	correct	task-tomspunt/H_170.jpg
550.7616600990295	1.035409927368164	tomspunt	lifting?	how_hand	no	no	correct	task-tomspunt/H_077.jpg
561.4990000724792	0.7964999675750732	tomspunt	looking to side?	how_face	yes	yes	correct	task-tomspunt/F_716.jpg
562.5994100570679	0.6513700485229492	tomspunt	looking to side?	how_face	no	no	correct	task-tomspunt/F_798.jpg
563.5664300918579	0.6517300605773926	tomspunt	looking to side?	how_face	yes	yes	correct	task-tomspunt/F_760.jpg
564.5334601402283	0.7019999027252197	tomspunt	looking to side?	how_face	yes	yes	correct	task-tomspunt/F_110.jpg
565.5505101680756	0.7781898975372314	tomspunt	looking to side?	how_face	no	no	correct	task-tomspunt/F_779.jpg
566.634250164032	0.8613297939300537	tomspunt	looking to side?	how_face	yes	yes	correct	task-tomspunt/F_590.jpg
567.8013501167297	0.718980073928833	tomspunt	looking to side?	how_face	no	no	correct	task-tomspunt/F_111.jpg
568.8350701332092	0.7104799747467041	tomspunt	looking to side?	how_face	yes	yes	correct	task-tomspunt/F_433.jpg
583.9740500450134	0.7049601078033447	tomspunt	proud?	why_face	yes	yes	correct	task-tomspunt/F_083.jpg
584.9910900592804	0.6209499835968018	tomspunt	proud?	why_face	yes	yes	correct	task-tomspunt/F_582.jpg
585.924770116806	0.7371900081634521	tomspunt	proud?	why_face	yes	yes	correct	task-tomspunt/F_618.jpg
586.9751601219177	1.1031599044799805	tomspunt	proud?	why_face	yes	no	incorrect	task-tomspunt/F_776.jpg
588.3923599720001	0.6525001525878906	tomspunt	proud?	why_face	yes	yes	correct	task-tomspunt/F_598.jpg
589.3593900203705	0.7522399425506592	tomspunt	proud?	why_face	no	no	correct	task-tomspunt/F_760.jpg
590.4264500141144	0.7351901531219482	tomspunt	proud?	why_face	no	no	correct	task-tomspunt/F_412.jpg
591.4768400192261	0.8519799709320068	tomspunt	proud?	why_face	yes	yes	correct	task-tomspunt/F_695.jpg
0.0973365211486814	2.01741909980774	tomspunt	reaching?	block_question_presentation	n/a		n/a	
0.0973365211486814	0.3	tomspunt	reaching?	block_question_presentation	n/a		n/a	
17.5371732616425	2.10078263282776	tomspunt	healthy?	block_question_presentation	n/a		n/a	
17.5371732616425	0.3	tomspunt	healthy?	block_question_presentation	n/a		n/a	
36.6442992591858	2.10078310966492	tomspunt	admiring?	block_question_presentation	n/a		n/a	
36.6442992591858	0.3	tomspunt	admiring?	block_question_presentation	n/a		n/a	
55.6180419826508	2.10078263282776	tomspunt	smiling?	block_question_presentation	n/a		n/a	
55.6180419826508	0.3	tomspunt	smiling?	block_question_presentation	n/a		n/a	
73.1412429714203	2.1007833480835	tomspunt	lifting?	block_question_presentation	n/a		n/a	
73.1412429714203	0.3	tomspunt	lifting?	block_question_presentation	n/a		n/a	
95.6329634094238	2.08411073684692	tomspunt	helping?	block_question_presentation	n/a		n/a	
95.6329634094238	0.3	tomspunt	helping?	block_question_presentation	n/a		n/a	
113.5062961483	2.10078310966492	tomspunt	proud?	block_question_presentation	n/a		n/a	
113.5062961483	0.3	tomspunt	proud?	block_question_presentation	n/a		n/a	
131.029497613907	2.10078430175781	tomspunt	looking to side?	block_question_presentation	n/a		n/a	
131.029497613907	0.3	tomspunt	looking to side?	block_question_presentation	n/a		n/a	
150.136623134613	2.1007833480835	tomspunt	argument?	block_question_presentation	n/a		n/a	
150.136623134613	0.3	tomspunt	argument?	block_question_presentation	n/a		n/a	
167.976608982086	2.10078358650208	tomspunt	open mouth?	block_question_presentation	n/a		n/a	
167.976608982086	0.3	tomspunt	open mouth?	block_question_presentation	n/a		n/a	
185.866614332199	2.10078310966492	tomspunt	pressing button?	block_question_presentation	n/a		n/a	
185.866614332199	0.3	tomspunt	pressing button?	block_question_presentation	n/a		n/a	
203.656581392288	2.10078358650208	tomspunt	competing?	block_question_presentation	n/a		n/a	
203.656581392288	0.3	tomspunt	competing?	block_question_presentation	n/a		n/a	
221.729988803864	2.10078239440918	tomspunt	self-doubt?	block_question_presentation	n/a		n/a	
221.729988803864	0.3	tomspunt	self-doubt?	block_question_presentation	n/a		n/a	
240.787095060349	2.10078358650208	tomspunt	looking at camera?	block_question_presentation	n/a		n/a	
240.787095060349	0.3	tomspunt	looking at camera?	block_question_presentation	n/a		n/a	
259.577435245514	2.10078358650208	tomspunt	both hands?	block_question_presentation	n/a		n/a	
259.577435245514	0.3	tomspunt	both hands?	block_question_presentation	n/a		n/a	
278.367776145935	2.10078358650208	tomspunt	self-protection?	block_question_presentation	n/a		n/a	
278.367776145935	0.3	tomspunt	self-protection?	block_question_presentation	n/a		n/a	
299.842451562881	2.10078406333923	tomspunt	smiling?	block_question_presentation	n/a		n/a	
299.842451562881	0.3	tomspunt	smiling?	block_question_presentation	n/a		n/a	
317.632419338226	2.10078382492065	tomspunt	admiring?	block_question_presentation	n/a		n/a	
317.632419338226	0.3	tomspunt	admiring?	block_question_presentation	n/a		n/a	
335.522424211502	2.10078358650208	tomspunt	competing?	block_question_presentation	n/a		n/a	
335.522424211502	0.3	tomspunt	competing?	block_question_presentation	n/a		n/a	
356.997098674774	2.10078406333923	tomspunt	reaching?	block_question_presentation	n/a		n/a	
356.997098674774	0.3	tomspunt	reaching?	block_question_presentation	n/a		n/a	
374.837085475922	2.10078263282776	tomspunt	open mouth?	block_question_presentation	n/a		n/a	
374.837085475922	0.3	tomspunt	open mouth?	block_question_presentation	n/a		n/a	
393.527388086319	2.0841109752655	tomspunt	argument?	block_question_presentation	n/a		n/a	
393.527388086319	0.3	tomspunt	argument?	block_question_presentation	n/a		n/a	
411.734178056717	2.10078287124634	tomspunt	helping?	block_question_presentation	n/a		n/a	
411.734178056717	0.3	tomspunt	helping?	block_question_presentation	n/a		n/a	
429.807585706711	2.10078310966492	tomspunt	both hands?	block_question_presentation	n/a		n/a	
429.807585706711	0.3	tomspunt	both hands?	block_question_presentation	n/a		n/a	
447.330786457062	2.10078287124634	tomspunt	healthy?	block_question_presentation	n/a		n/a	
447.330786457062	0.3	tomspunt	healthy?	block_question_presentation	n/a		n/a	
466.387893428802	2.08411073684692	tomspunt	pressing button?	block_question_presentation	n/a		n/a	
466.387893428802	0.3	tomspunt	pressing button?	block_question_presentation	n/a		n/a	
483.911094417572	2.10078406333923	tomspunt	looking at camera?	block_question_presentation	n/a		n/a	
483.911094417572	0.3	tomspunt	looking at camera?	block_question_presentation	n/a		n/a	
502.8681645298	2.10078263282776	tomspunt	self-doubt?	block_question_presentation	n/a		n/a	
502.8681645298	0.3	tomspunt	self-doubt?	block_question_presentation	n/a		n/a	
520.39136551857	2.10078406333923	tomspunt	self-protection?	block_question_presentation	n/a		n/a	
520.39136551857	0.3	tomspunt	self-protection?	block_question_presentation	n/a		n/a	
538.61482881546	2.1007821559906	tomspunt	lifting?	block_question_presentation	n/a		n/a	
538.61482881546	0.3	tomspunt	lifting?	block_question_presentation	n/a		n/a	
556.488161077499	2.10078239440918	tomspunt	looking to side?	block_question_presentation	n/a		n/a	
556.488161077499	0.3	tomspunt	looking to side?	block_question_presentation	n/a		n/a	
578.963207950592	2.10078454017639	tomspunt	proud?	block_question_presentation	n/a		n/a	
578.963207950592	0.3	tomspunt	proud?	block_question_presentation	n/a		n/a	
