onset	duration	run_type	trial_type	trial_index	cue	stimulusintensity	rating_value	rating_glmslabel	rating_value_fillna	rating_glmslabel_fillna	rating_mouseonset	rating_mousedur	stim_file	pain_onset_ttl1	pain_onset_ttl2	pain_onset_ttl3	pain_onset_ttl4	pain_stimulus_delivery_success	cognitive_correct_response	cognitive_participant_response	cognitive_response_accuracy
10.6	0.99	cognitive	cue	1	low_cue	n/a	n/a	n/a	n/a	n/a	n/a	n/a	n/a	n/a	n/a	n/a	n/a	n/a	n/a	n/a	n/a
12.36	2.51	cognitive	expectrating	1	low_cue	n/a	16.83	Moderate	16.83	Moderate	0.62	1.89	task-social/cue/runtype-cognitive/scl/l017.png	n/a	n/a	n/a	n/a	n/a	n/a	n/a	n/a
23.13	5.0	cognitive	stimulus	1	low_cue	low_stim	n/a	n/a	n/a	n/a	n/a	n/a	task-social/stim/runtype-cognitive/24_50_R.jpg	n/a	n/a	n/a	n/a	n/a	diff	diff	True
31.11	3.19	cognitive	outcomerating	1	low_cue	low_stim	4.02	Weak	4.02	Weak	0.82	2.37	task-social/outcomerating/task-cognitive_scale.png	n/a	n/a	n/a	n/a	n/a	n/a	n/a	n/a
35.71	0.98	cognitive	cue	2	low_cue	n/a	n/a	n/a	n/a	n/a	n/a	n/a	n/a	n/a	n/a	n/a	n/a	n/a	n/a	n/a	n/a
38.01	2.13	cognitive	expectrating	2	low_cue	n/a	10.45	Moderate	10.45	Moderate	0.57	1.57	task-social/cue/runtype-cognitive/scl/l002.png	n/a	n/a	n/a	n/a	n/a	n/a	n/a	n/a
45.82	5.0	cognitive	stimulus	2	low_cue	med_stim	n/a	n/a	n/a	n/a	n/a	n/a	task-social/stim/runtype-cognitive/45_100_R.jpg	n/a	n/a	n/a	n/a	n/a	diff	diff	True
56.32	2.79	cognitive	outcomerating	2	low_cue	med_stim	4.84	Weak	4.84	Weak	0.53	2.26	task-social/outcomerating/task-cognitive_scale.png	n/a	n/a	n/a	n/a	n/a	n/a	n/a	n/a
61.31	0.99	cognitive	cue	3	low_cue	n/a	n/a	n/a	n/a	n/a	n/a	n/a	n/a	n/a	n/a	n/a	n/a	n/a	n/a	n/a	n/a
64.22	2.79	cognitive	expectrating	3	low_cue	n/a	8.37	Weak	8.37	Weak	0.48	2.3	task-social/cue/runtype-cognitive/scl/l006.png	n/a	n/a	n/a	n/a	n/a	n/a	n/a	n/a
74.21	5.0	cognitive	stimulus	3	low_cue	low_stim	n/a	n/a	n/a	n/a	n/a	n/a	task-social/stim/runtype-cognitive/9_50.jpg	n/a	n/a	n/a	n/a	n/a	same	same	True
86.32	3.3	cognitive	outcomerating	3	low_cue	low_stim	12.78	Moderate	12.78	Moderate	0.55	2.75	task-social/outcomerating/task-cognitive_scale.png	n/a	n/a	n/a	n/a	n/a	n/a	n/a	n/a
91.3	0.99	cognitive	cue	4	low_cue	n/a	n/a	n/a	n/a	n/a	n/a	n/a	n/a	n/a	n/a	n/a	n/a	n/a	n/a	n/a	n/a
93.7	3.3	cognitive	expectrating	4	low_cue	n/a	3.71	Weak	3.71	Weak	0.62	2.69	task-social/cue/runtype-cognitive/scl/l016.png	n/a	n/a	n/a	n/a	n/a	n/a	n/a	n/a
101.81	5.0	cognitive	stimulus	4	low_cue	high_stim	n/a	n/a	n/a	n/a	n/a	n/a	task-social/stim/runtype-cognitive/9_150.jpg	n/a	n/a	n/a	n/a	n/a	same	same	True
112.33	3.05	cognitive	outcomerating	4	low_cue	high_stim	5.3	Weak	5.3	Weak	0.78	2.27	task-social/outcomerating/task-cognitive_scale.png	n/a	n/a	n/a	n/a	n/a	n/a	n/a	n/a
120.01	0.98	cognitive	cue	5	high_cue	n/a	n/a	n/a	n/a	n/a	n/a	n/a	n/a	n/a	n/a	n/a	n/a	n/a	n/a	n/a	n/a
122.91	2.4	cognitive	expectrating	5	high_cue	n/a	14.53	Moderate	14.53	Moderate	0.27	2.13	task-social/cue/runtype-cognitive/sch/h024.png	n/a	n/a	n/a	n/a	n/a	n/a	n/a	n/a
133.82	5.0	cognitive	stimulus	5	high_cue	med_stim	n/a	n/a	n/a	n/a	n/a	n/a	task-social/stim/runtype-cognitive/45_100.jpg	n/a	n/a	n/a	n/a	n/a	same	diff	False
142.82	3.45	cognitive	outcomerating	5	high_cue	med_stim	2.54	Barely detectable	2.54	Barely detectable	0.57	2.89	task-social/outcomerating/task-cognitive_scale.png	n/a	n/a	n/a	n/a	n/a	n/a	n/a	n/a
153.91	0.99	cognitive	cue	6	high_cue	n/a	n/a	n/a	n/a	n/a	n/a	n/a	n/a	n/a	n/a	n/a	n/a	n/a	n/a	n/a	n/a
155.81	2.42	cognitive	expectrating	6	high_cue	n/a	13.53	Moderate	13.53	Moderate	0.4	2.02	task-social/cue/runtype-cognitive/sch/h052.png	n/a	n/a	n/a	n/a	n/a	n/a	n/a	n/a
169.81	5.0	cognitive	stimulus	6	high_cue	high_stim	n/a	n/a	n/a	n/a	n/a	n/a	task-social/stim/runtype-cognitive/24_150.jpg	n/a	n/a	n/a	n/a	n/a	same	same	True
184.2	2.04	cognitive	outcomerating	6	high_cue	high_stim	10.86	Moderate	10.86	Moderate	0.52	1.53	task-social/outcomerating/task-cognitive_scale.png	n/a	n/a	n/a	n/a	n/a	n/a	n/a	n/a
194.21	0.99	cognitive	cue	7	high_cue	n/a	n/a	n/a	n/a	n/a	n/a	n/a	n/a	n/a	n/a	n/a	n/a	n/a	n/a	n/a	n/a
197.02	2.45	cognitive	expectrating	7	high_cue	n/a	18.29	Moderate	18.29	Moderate	0.4	2.05	task-social/cue/runtype-cognitive/sch/h027.png	n/a	n/a	n/a	n/a	n/a	n/a	n/a	n/a
206.21	5.0	cognitive	stimulus	7	high_cue	med_stim	n/a	n/a	n/a	n/a	n/a	n/a	task-social/stim/runtype-cognitive/34_100_R.jpg	n/a	n/a	n/a	n/a	n/a	diff	diff	True
214.21	2.85	cognitive	outcomerating	7	high_cue	med_stim	26.04	Moderate	26.04	Moderate	0.5	2.35	task-social/outcomerating/task-cognitive_scale.png	n/a	n/a	n/a	n/a	n/a	n/a	n/a	n/a
219.2	1.0	cognitive	cue	8	high_cue	n/a	n/a	n/a	n/a	n/a	n/a	n/a	n/a	n/a	n/a	n/a	n/a	n/a	n/a	n/a	n/a
222.12	2.48	cognitive	expectrating	8	high_cue	n/a	21.84	Moderate	21.84	Moderate	0.05	2.43	task-social/cue/runtype-cognitive/sch/h037.png	n/a	n/a	n/a	n/a	n/a	n/a	n/a	n/a
234.5	5.0	cognitive	stimulus	8	high_cue	low_stim	n/a	n/a	n/a	n/a	n/a	n/a	task-social/stim/runtype-cognitive/48_50.jpg	n/a	n/a	n/a	n/a	n/a	same	same	True
242.71	3.44	cognitive	outcomerating	8	high_cue	low_stim	8.78	Weak	8.78	Weak	0.4	3.04	task-social/outcomerating/task-cognitive_scale.png	n/a	n/a	n/a	n/a	n/a	n/a	n/a	n/a
251.41	0.98	cognitive	cue	9	high_cue	n/a	n/a	n/a	n/a	n/a	n/a	n/a	n/a	n/a	n/a	n/a	n/a	n/a	n/a	n/a	n/a
253.81	2.77	cognitive	expectrating	9	high_cue	n/a	18.36	Moderate	18.36	Moderate	0.53	2.23	task-social/cue/runtype-cognitive/sch/h002.png	n/a	n/a	n/a	n/a	n/a	n/a	n/a	n/a
266.72	5.0	cognitive	stimulus	9	high_cue	low_stim	n/a	n/a	n/a	n/a	n/a	n/a	task-social/stim/runtype-cognitive/43_50.jpg	n/a	n/a	n/a	n/a	n/a	same	same	True
280.81	2.97	cognitive	outcomerating	9	high_cue	low_stim	16.26	Moderate	16.26	Moderate	0.63	2.34	task-social/outcomerating/task-cognitive_scale.png	n/a	n/a	n/a	n/a	n/a	n/a	n/a	n/a
285.81	0.99	cognitive	cue	10	high_cue	n/a	n/a	n/a	n/a	n/a	n/a	n/a	n/a	n/a	n/a	n/a	n/a	n/a	n/a	n/a	n/a
289.03	2.95	cognitive	expectrating	10	high_cue	n/a	22.46	Moderate	22.46	Moderate	0.1	2.85	task-social/cue/runtype-cognitive/sch/h044.png	n/a	n/a	n/a	n/a	n/a	n/a	n/a	n/a
298.01	5.0	cognitive	stimulus	10	high_cue	high_stim	n/a	n/a	n/a	n/a	n/a	n/a	task-social/stim/runtype-cognitive/23_150.jpg	n/a	n/a	n/a	n/a	n/a	same	same	True
311.32	2.85	cognitive	outcomerating	10	high_cue	high_stim	19.61	Moderate	19.61	Moderate	0.42	2.43	task-social/outcomerating/task-cognitive_scale.png	n/a	n/a	n/a	n/a	n/a	n/a	n/a	n/a
326.21	0.99	cognitive	cue	11	low_cue	n/a	n/a	n/a	n/a	n/a	n/a	n/a	n/a	n/a	n/a	n/a	n/a	n/a	n/a	n/a	n/a
328.11	3.51	cognitive	expectrating	11	low_cue	n/a	12.78	Moderate	12.78	Moderate	0.48	3.02	task-social/cue/runtype-cognitive/scl/l031.png	n/a	n/a	n/a	n/a	n/a	n/a	n/a	n/a
342.41	5.0	cognitive	stimulus	11	low_cue	med_stim	n/a	n/a	n/a	n/a	n/a	n/a	task-social/stim/runtype-cognitive/34_100.jpg	n/a	n/a	n/a	n/a	n/a	same	same	True
353.32	2.28	cognitive	outcomerating	11	low_cue	med_stim	29.86	Strong	29.86	Strong	0.05	2.23	task-social/outcomerating/task-cognitive_scale.png	n/a	n/a	n/a	n/a	n/a	n/a	n/a	n/a
366.4	0.99	cognitive	cue	12	low_cue	n/a	n/a	n/a	n/a	n/a	n/a	n/a	n/a	n/a	n/a	n/a	n/a	n/a	n/a	n/a	n/a
369.21	3.11	cognitive	expectrating	12	low_cue	n/a	9.24	Weak	9.24	Weak	0.42	2.69	task-social/cue/runtype-cognitive/scl/l042.png	n/a	n/a	n/a	n/a	n/a	n/a	n/a	n/a
375.81	5.0	cognitive	stimulus	12	low_cue	high_stim	n/a	n/a	n/a	n/a	n/a	n/a	task-social/stim/runtype-cognitive/22_150.jpg	n/a	n/a	n/a	n/a	n/a	same	same	True
394.81	3.25	cognitive	outcomerating	12	low_cue	high_stim	9.69	Weak	9.69	Weak	0.68	2.57	task-social/outcomerating/task-cognitive_scale.png	n/a	n/a	n/a	n/a	n/a	n/a	n/a	n/a
