onset	duration	run_type	trial_type	trial_index	cue	stimulusintensity	rating_value	rating_glmslabel	rating_value_fillna	rating_glmslabel_fillna	rating_mouseonset	rating_mousedur	stim_file	pain_onset_ttl1	pain_onset_ttl2	pain_onset_ttl3	pain_onset_ttl4	pain_stimulus_delivery_success	cognitive_correct_response	cognitive_participant_response	cognitive_response_accuracy
10.59	0.99	vicarious	cue	1	low_cue	n/a	n/a	n/a	n/a	n/a	n/a	n/a	task-social/cue/runtype-vicarious/scl/l009.png	n/a	n/a	n/a	n/a	n/a	n/a	n/a	n/a
12.31	3.61	vicarious	expectrating	1	low_cue	n/a	18.73	Moderate	18.73	Moderate	0.4	3.21	task-social/cue/runtype-vicarious/scl/l009.png	n/a	n/a	n/a	n/a	n/a	n/a	n/a	n/a
23.09	5.0	vicarious	stimulus	1	low_cue	low_stim	n/a	n/a	n/a	n/a	n/a	n/a	task-social/stim/runtype-vicarious/jl047t1aaunaff_L.mp4	n/a	n/a	n/a	n/a	n/a	n/a	n/a	n/a
31.12	2.43	vicarious	outcomerating	1	low_cue	low_stim	11.81	Moderate	11.81	Moderate	0.4	3.21	task-social/outcomerating/task-vicarious_scale.png	n/a	n/a	n/a	n/a	n/a	n/a	n/a	n/a
35.7	0.98	vicarious	cue	2	low_cue	n/a	n/a	n/a	n/a	n/a	n/a	n/a	task-social/cue/runtype-vicarious/scl/l046.png	n/a	n/a	n/a	n/a	n/a	n/a	n/a	n/a
38.0	2.77	vicarious	expectrating	2	low_cue	n/a	19.53	Moderate	19.53	Moderate	0.5	2.27	task-social/cue/runtype-vicarious/scl/l046.png	n/a	n/a	n/a	n/a	n/a	n/a	n/a	n/a
45.79	5.0	vicarious	stimulus	2	low_cue	med_stim	n/a	n/a	n/a	n/a	n/a	n/a	task-social/stim/runtype-vicarious/bn080t1aeaff_M.mp4	n/a	n/a	n/a	n/a	n/a	n/a	n/a	n/a
56.31	2.87	vicarious	outcomerating	2	low_cue	med_stim	24.13	Moderate	24.13	Moderate	0.5	2.27	task-social/outcomerating/task-vicarious_scale.png	n/a	n/a	n/a	n/a	n/a	n/a	n/a	n/a
61.29	0.99	vicarious	cue	3	low_cue	n/a	n/a	n/a	n/a	n/a	n/a	n/a	task-social/cue/runtype-vicarious/scl/l033.png	n/a	n/a	n/a	n/a	n/a	n/a	n/a	n/a
64.2	3.32	vicarious	expectrating	3	low_cue	n/a	0.0	n/a	0.0	n/a	0.48	2.84	task-social/cue/runtype-vicarious/scl/l033.png	n/a	n/a	n/a	n/a	n/a	n/a	n/a	n/a
74.19	5.0	vicarious	stimulus	3	low_cue	low_stim	n/a	n/a	n/a	n/a	n/a	n/a	task-social/stim/runtype-vicarious/jh043t2aaunaff_L.mp4	n/a	n/a	n/a	n/a	n/a	n/a	n/a	n/a
86.3	2.63	vicarious	outcomerating	3	low_cue	low_stim	22.44	Moderate	22.44	Moderate	0.48	2.84	task-social/outcomerating/task-vicarious_scale.png	n/a	n/a	n/a	n/a	n/a	n/a	n/a	n/a
91.29	0.99	vicarious	cue	4	low_cue	n/a	n/a	n/a	n/a	n/a	n/a	n/a	task-social/cue/runtype-vicarious/scl/l027.png	n/a	n/a	n/a	n/a	n/a	n/a	n/a	n/a
93.71	2.05	vicarious	expectrating	4	low_cue	n/a	3.06	Weak	3.06	Weak	0.47	1.58	task-social/cue/runtype-vicarious/scl/l027.png	n/a	n/a	n/a	n/a	n/a	n/a	n/a	n/a
101.79	5.0	vicarious	stimulus	4	low_cue	high_stim	n/a	n/a	n/a	n/a	n/a	n/a	task-social/stim/runtype-vicarious/mg066t1aaaff_H.mp4	n/a	n/a	n/a	n/a	n/a	n/a	n/a	n/a
112.31	3.54	vicarious	outcomerating	4	low_cue	high_stim	15.32	Moderate	15.32	Moderate	0.47	1.58	task-social/outcomerating/task-vicarious_scale.png	n/a	n/a	n/a	n/a	n/a	n/a	n/a	n/a
120.0	0.98	vicarious	cue	5	high_cue	n/a	n/a	n/a	n/a	n/a	n/a	n/a	task-social/cue/runtype-vicarious/sch/h051.png	n/a	n/a	n/a	n/a	n/a	n/a	n/a	n/a
122.9	1.53	vicarious	expectrating	5	high_cue	n/a	65.73	Very-Strong	65.73	Very-Strong	0.35	1.18	task-social/cue/runtype-vicarious/sch/h051.png	n/a	n/a	n/a	n/a	n/a	n/a	n/a	n/a
133.79	5.0	vicarious	stimulus	5	high_cue	med_stim	n/a	n/a	n/a	n/a	n/a	n/a	task-social/stim/runtype-vicarious/ib109t1afaff_M.mp4	n/a	n/a	n/a	n/a	n/a	n/a	n/a	n/a
142.81	3.19	vicarious	outcomerating	5	high_cue	med_stim	49.07	Strong	49.07	Strong	0.35	1.18	task-social/outcomerating/task-vicarious_scale.png	n/a	n/a	n/a	n/a	n/a	n/a	n/a	n/a
153.9	0.99	vicarious	cue	6	high_cue	n/a	n/a	n/a	n/a	n/a	n/a	n/a	task-social/cue/runtype-vicarious/sch/h045.png	n/a	n/a	n/a	n/a	n/a	n/a	n/a	n/a
155.8	2.72	vicarious	expectrating	6	high_cue	n/a	63.43	Strong	63.43	Strong	0.47	2.25	task-social/cue/runtype-vicarious/sch/h045.png	n/a	n/a	n/a	n/a	n/a	n/a	n/a	n/a
169.79	5.0	vicarious	stimulus	6	high_cue	high_stim	n/a	n/a	n/a	n/a	n/a	n/a	task-social/stim/runtype-vicarious/jh043t2aeaff_H.mp4	n/a	n/a	n/a	n/a	n/a	n/a	n/a	n/a
184.21	2.3	vicarious	outcomerating	6	high_cue	high_stim	30.57	Strong	30.57	Strong	0.47	2.25	task-social/outcomerating/task-vicarious_scale.png	n/a	n/a	n/a	n/a	n/a	n/a	n/a	n/a
194.19	0.99	vicarious	cue	7	high_cue	n/a	n/a	n/a	n/a	n/a	n/a	n/a	task-social/cue/runtype-vicarious/sch/h041.png	n/a	n/a	n/a	n/a	n/a	n/a	n/a	n/a
197.0	2.86	vicarious	expectrating	7	high_cue	n/a	31.57	Strong	31.57	Strong	0.55	2.31	task-social/cue/runtype-vicarious/sch/h041.png	n/a	n/a	n/a	n/a	n/a	n/a	n/a	n/a
206.19	5.0	vicarious	stimulus	7	high_cue	med_stim	n/a	n/a	n/a	n/a	n/a	n/a	task-social/stim/runtype-vicarious/vw121t1aiaff_M.mp4	n/a	n/a	n/a	n/a	n/a	n/a	n/a	n/a
214.2	1.38	vicarious	outcomerating	7	high_cue	med_stim	3.23	Weak	3.23	Weak	0.55	2.31	task-social/outcomerating/task-vicarious_scale.png	n/a	n/a	n/a	n/a	n/a	n/a	n/a	n/a
219.2	0.98	vicarious	cue	8	high_cue	n/a	n/a	n/a	n/a	n/a	n/a	n/a	task-social/cue/runtype-vicarious/sch/h014.png	n/a	n/a	n/a	n/a	n/a	n/a	n/a	n/a
222.1	2.45	vicarious	expectrating	8	high_cue	n/a	61.17	Strong	61.17	Strong	0.1	2.35	task-social/cue/runtype-vicarious/sch/h014.png	n/a	n/a	n/a	n/a	n/a	n/a	n/a	n/a
234.49	5.0	vicarious	stimulus	8	high_cue	low_stim	n/a	n/a	n/a	n/a	n/a	n/a	task-social/stim/runtype-vicarious/bg096t2afunaff_L.mp4	n/a	n/a	n/a	n/a	n/a	n/a	n/a	n/a
242.71	2.96	vicarious	outcomerating	8	high_cue	low_stim	19.31	Moderate	19.31	Moderate	0.1	2.35	task-social/outcomerating/task-vicarious_scale.png	n/a	n/a	n/a	n/a	n/a	n/a	n/a	n/a
251.4	0.98	vicarious	cue	9	high_cue	n/a	n/a	n/a	n/a	n/a	n/a	n/a	task-social/cue/runtype-vicarious/sch/h043.png	n/a	n/a	n/a	n/a	n/a	n/a	n/a	n/a
253.8	1.5	vicarious	expectrating	9	high_cue	n/a	31.52	Strong	31.52	Strong	0.52	0.98	task-social/cue/runtype-vicarious/sch/h043.png	n/a	n/a	n/a	n/a	n/a	n/a	n/a	n/a
266.69	5.0	vicarious	stimulus	9	high_cue	low_stim	n/a	n/a	n/a	n/a	n/a	n/a	task-social/stim/runtype-vicarious/bn080t1afunaff_L.mp4	n/a	n/a	n/a	n/a	n/a	n/a	n/a	n/a
280.81	3.61	vicarious	outcomerating	9	high_cue	low_stim	9.24	Weak	9.24	Weak	0.52	0.98	task-social/outcomerating/task-vicarious_scale.png	n/a	n/a	n/a	n/a	n/a	n/a	n/a	n/a
285.79	0.99	vicarious	cue	10	high_cue	n/a	n/a	n/a	n/a	n/a	n/a	n/a	task-social/cue/runtype-vicarious/sch/h013.png	n/a	n/a	n/a	n/a	n/a	n/a	n/a	n/a
289.0	2.07	vicarious	expectrating	10	high_cue	n/a	31.08	Strong	31.08	Strong	0.47	1.6	task-social/cue/runtype-vicarious/sch/h013.png	n/a	n/a	n/a	n/a	n/a	n/a	n/a	n/a
297.99	5.0	vicarious	stimulus	10	high_cue	high_stim	n/a	n/a	n/a	n/a	n/a	n/a	task-social/stim/runtype-vicarious/bn080t1afaff_H.mp4	n/a	n/a	n/a	n/a	n/a	n/a	n/a	n/a
311.3	2.33	vicarious	outcomerating	10	high_cue	high_stim	36.5	Strong	36.5	Strong	0.47	1.6	task-social/outcomerating/task-vicarious_scale.png	n/a	n/a	n/a	n/a	n/a	n/a	n/a	n/a
326.19	0.99	vicarious	cue	11	low_cue	n/a	n/a	n/a	n/a	n/a	n/a	n/a	task-social/cue/runtype-vicarious/scl/l040.png	n/a	n/a	n/a	n/a	n/a	n/a	n/a	n/a
328.09	2.02	vicarious	expectrating	11	low_cue	n/a	4.63	Weak	4.63	Weak	0.47	1.56	task-social/cue/runtype-vicarious/scl/l040.png	n/a	n/a	n/a	n/a	n/a	n/a	n/a	n/a
342.39	5.0	vicarious	stimulus	11	low_cue	med_stim	n/a	n/a	n/a	n/a	n/a	n/a	task-social/stim/runtype-vicarious/mg066t2aaunaff_M.mp4	n/a	n/a	n/a	n/a	n/a	n/a	n/a	n/a
353.3	2.42	vicarious	outcomerating	11	low_cue	med_stim	4.61	Weak	4.61	Weak	0.47	1.56	task-social/outcomerating/task-vicarious_scale.png	n/a	n/a	n/a	n/a	n/a	n/a	n/a	n/a
366.39	0.99	vicarious	cue	12	low_cue	n/a	n/a	n/a	n/a	n/a	n/a	n/a	task-social/cue/runtype-vicarious/scl/l051.png	n/a	n/a	n/a	n/a	n/a	n/a	n/a	n/a
369.19	2.79	vicarious	expectrating	12	low_cue	n/a	4.13	Weak	4.13	Weak	0.42	2.38	task-social/cue/runtype-vicarious/scl/l051.png	n/a	n/a	n/a	n/a	n/a	n/a	n/a	n/a
375.79	5.0	vicarious	stimulus	12	low_cue	high_stim	n/a	n/a	n/a	n/a	n/a	n/a	task-social/stim/runtype-vicarious/ib109t1aiaff_H.mp4	n/a	n/a	n/a	n/a	n/a	n/a	n/a	n/a
394.82	2.9	vicarious	outcomerating	12	low_cue	high_stim	16.83	Moderate	16.83	Moderate	0.42	2.38	task-social/outcomerating/task-vicarious_scale.png	n/a	n/a	n/a	n/a	n/a	n/a	n/a	n/a
