onset	duration	run_type	trial_type	trial_index	cue	stimulusintensity	rating_value	rating_glmslabel	rating_value_fillna	rating_glmslabel_fillna	rating_mouseonset	rating_mousedur	stim_file	pain_onset_ttl1	pain_onset_ttl2	pain_onset_ttl3	pain_onset_ttl4	pain_stimulus_delivery_success	cognitive_correct_response	cognitive_participant_response	cognitive_response_accuracy
3.4	1.28	pain	cue	1	low_cue	n/a	n/a	n/a	n/a	n/a	n/a	n/a	task-social/cue/runtype-pain/scl/l027.png	n/a	n/a	n/a	n/a	n/a	n/a	n/a	n/a
6.12	2.45	pain	expectrating	1	low_cue	n/a	14.37	Moderate	14.37	Moderate	0.05	2.4	task-social/cue/runtype-pain/scl/l027.png	n/a	n/a	n/a	n/a	n/a	n/a	n/a	n/a
16.59	12.82	pain	stimulus	1	low_cue	high_stim	n/a	n/a	n/a	n/a	n/a	n/a	n/a	16.59	20.6	25.6	29.41	success	n/a	n/a	n/a
32.6	2.6	pain	outcomerating	1	low_cue	high_stim	14.93	Moderate	14.93	Moderate	0.82	1.79	task-social/outcomerating/task-pain_scale.png	n/a	n/a	n/a	n/a	success	n/a	n/a	n/a
41.6	1.33	pain	cue	2	high_cue	n/a	n/a	n/a	n/a	n/a	n/a	n/a	task-social/cue/runtype-pain/sch/h036.png	n/a	n/a	n/a	n/a	n/a	n/a	n/a	n/a
44.7	3.39	pain	expectrating	2	high_cue	n/a	69.82	Very Strong	69.82	Very Strong	0.65	2.74	task-social/cue/runtype-pain/sch/h036.png	n/a	n/a	n/a	n/a	n/a	n/a	n/a	n/a
53.25	12.370000000000005	pain	stimulus	2	high_cue	med_stim	n/a	n/a	n/a	n/a	n/a	n/a	n/a	53.25	57.01	62.01	65.62	success	n/a	n/a	n/a
69.31	n/a	pain	outcomerating	2	high_cue	med_stim	n/a	n/a	50.07	Strong	0.8	3.08	task-social/outcomerating/task-pain_scale.png	n/a	n/a	n/a	n/a	success	n/a	n/a	n/a
78.4	1.0	pain	cue	3	low_cue	n/a	n/a	n/a	n/a	n/a	n/a	n/a	task-social/cue/runtype-pain/scl/l032.png	n/a	n/a	n/a	n/a	n/a	n/a	n/a	n/a
81.5	2.2	pain	expectrating	3	low_cue	n/a	14.21	Moderate	14.21	Moderate	0.08	2.12	task-social/cue/runtype-pain/scl/l032.png	n/a	n/a	n/a	n/a	n/a	n/a	n/a	n/a
86.02	11.91000000000001	pain	stimulus	3	low_cue	low_stim	n/a	n/a	n/a	n/a	n/a	n/a	n/a	86.02	89.52	94.52	97.92	success	n/a	n/a	n/a
97.8	3.04	pain	outcomerating	3	low_cue	low_stim	54.65	Strong	54.65	Strong	0.75	2.29	task-social/outcomerating/task-pain_scale.png	n/a	n/a	n/a	n/a	success	n/a	n/a	n/a
105.89	1.0	pain	cue	4	low_cue	n/a	n/a	n/a	n/a	n/a	n/a	n/a	task-social/cue/runtype-pain/scl/l023.png	n/a	n/a	n/a	n/a	n/a	n/a	n/a	n/a
107.41	2.99	pain	expectrating	4	low_cue	n/a	28.87	Moderate	28.87	Moderate	0.37	2.63	task-social/cue/runtype-pain/scl/l023.png	n/a	n/a	n/a	n/a	n/a	n/a	n/a	n/a
112.25	11.900000000000006	pain	stimulus	4	low_cue	low_stim	n/a	n/a	n/a	n/a	n/a	n/a	n/a	112.25	115.75	120.75	124.15	success	n/a	n/a	n/a
128.0	2.62	pain	outcomerating	4	low_cue	low_stim	36.64	Strong	36.64	Strong	0.73	1.89	task-social/outcomerating/task-pain_scale.png	n/a	n/a	n/a	n/a	success	n/a	n/a	n/a
137.1	1.0	pain	cue	5	high_cue	n/a	n/a	n/a	n/a	n/a	n/a	n/a	task-social/cue/runtype-pain/sch/h027.png	n/a	n/a	n/a	n/a	n/a	n/a	n/a	n/a
140.2	n/a	pain	expectrating	5	high_cue	n/a	n/a	n/a	64.48	Very Strong	0.58	3.98	task-social/cue/runtype-pain/sch/h027.png	n/a	n/a	n/a	n/a	n/a	n/a	n/a	n/a
147.94	11.909999999999997	pain	stimulus	5	high_cue	low_stim	n/a	n/a	n/a	n/a	n/a	n/a	n/a	147.94	151.44	156.44	159.84	success	n/a	n/a	n/a
159.89	3.29	pain	outcomerating	5	high_cue	low_stim	68.37	Very Strong	68.37	Very Strong	0.82	2.47	task-social/outcomerating/task-pain_scale.png	n/a	n/a	n/a	n/a	success	n/a	n/a	n/a
169.0	1.0	pain	cue	6	high_cue	n/a	n/a	n/a	n/a	n/a	n/a	n/a	task-social/cue/runtype-pain/sch/h042.png	n/a	n/a	n/a	n/a	n/a	n/a	n/a	n/a
171.0	3.74	pain	expectrating	6	high_cue	n/a	115.53	Strongest sensation of any kind	115.53	Strongest sensation of any kind	0.85	2.89	task-social/cue/runtype-pain/sch/h042.png	n/a	n/a	n/a	n/a	n/a	n/a	n/a	n/a
175.55	12.369999999999976	pain	stimulus	6	high_cue	med_stim	n/a	n/a	n/a	n/a	n/a	n/a	n/a	175.55	179.31	184.31	187.92	success	n/a	n/a	n/a
187.3	3.5	pain	outcomerating	6	high_cue	med_stim	69.61	Very Strong	69.61	Very Strong	0.58	2.92	task-social/outcomerating/task-pain_scale.png	n/a	n/a	n/a	n/a	success	n/a	n/a	n/a
194.41	0.98	pain	cue	7	high_cue	n/a	n/a	n/a	n/a	n/a	n/a	n/a	task-social/cue/runtype-pain/sch/h011.png	n/a	n/a	n/a	n/a	n/a	n/a	n/a	n/a
196.41	1.9	pain	expectrating	7	high_cue	n/a	65.5	Very Strong	65.5	Very Strong	0.33	1.57	task-social/cue/runtype-pain/sch/h011.png	n/a	n/a	n/a	n/a	n/a	n/a	n/a	n/a
207.45	11.910000000000025	pain	stimulus	7	high_cue	low_stim	n/a	n/a	n/a	n/a	n/a	n/a	n/a	207.45	210.95	215.95	219.35	success	n/a	n/a	n/a
222.3	2.28	pain	outcomerating	7	high_cue	low_stim	62.31	Strong	62.31	Strong	0.42	1.87	task-social/outcomerating/task-pain_scale.png	n/a	n/a	n/a	n/a	success	n/a	n/a	n/a
234.8	0.98	pain	cue	8	low_cue	n/a	n/a	n/a	n/a	n/a	n/a	n/a	task-social/cue/runtype-pain/scl/l039.png	n/a	n/a	n/a	n/a	n/a	n/a	n/a	n/a
237.31	3.92	pain	expectrating	8	low_cue	n/a	27.18	Moderate	27.18	Moderate	0.72	3.2	task-social/cue/runtype-pain/scl/l039.png	n/a	n/a	n/a	n/a	n/a	n/a	n/a	n/a
249.39	12.819999999999993	pain	stimulus	8	low_cue	high_stim	n/a	n/a	n/a	n/a	n/a	n/a	n/a	249.39	253.4	258.4	262.21	success	n/a	n/a	n/a
262.7	2.25	pain	outcomerating	8	low_cue	high_stim	39.45	Strong	39.45	Strong	0.68	1.57	task-social/outcomerating/task-pain_scale.png	n/a	n/a	n/a	n/a	success	n/a	n/a	n/a
271.8	1.0	pain	cue	9	low_cue	n/a	n/a	n/a	n/a	n/a	n/a	n/a	task-social/cue/runtype-pain/scl/l053.png	n/a	n/a	n/a	n/a	n/a	n/a	n/a	n/a
274.9	2.95	pain	expectrating	9	low_cue	n/a	26.46	Moderate	26.46	Moderate	0.43	2.52	task-social/cue/runtype-pain/scl/l053.png	n/a	n/a	n/a	n/a	n/a	n/a	n/a	n/a
284.65	12.360000000000014	pain	stimulus	9	low_cue	med_stim	n/a	n/a	n/a	n/a	n/a	n/a	n/a	284.65	288.41	293.41	297.02	success	n/a	n/a	n/a
294.41	3.46	pain	outcomerating	9	low_cue	med_stim	31.08	Strong	31.08	Strong	0.88	2.57	task-social/outcomerating/task-pain_scale.png	n/a	n/a	n/a	n/a	success	n/a	n/a	n/a
299.9	1.0	pain	cue	10	low_cue	n/a	n/a	n/a	n/a	n/a	n/a	n/a	task-social/cue/runtype-pain/scl/l004.png	n/a	n/a	n/a	n/a	n/a	n/a	n/a	n/a
301.8	2.34	pain	expectrating	10	low_cue	n/a	4.62	Weak	4.62	Weak	0.4	1.94	task-social/cue/runtype-pain/scl/l004.png	n/a	n/a	n/a	n/a	n/a	n/a	n/a	n/a
313.55	12.370000000000005	pain	stimulus	10	low_cue	med_stim	n/a	n/a	n/a	n/a	n/a	n/a	n/a	313.55	317.31	322.31	325.92	success	n/a	n/a	n/a
326.11	3.02	pain	outcomerating	10	low_cue	med_stim	21.84	Moderate	21.84	Moderate	1.1	1.92	task-social/outcomerating/task-pain_scale.png	n/a	n/a	n/a	n/a	success	n/a	n/a	n/a
337.89	1.0	pain	cue	11	high_cue	n/a	n/a	n/a	n/a	n/a	n/a	n/a	task-social/cue/runtype-pain/sch/h026.png	n/a	n/a	n/a	n/a	n/a	n/a	n/a	n/a
340.59	2.91	pain	expectrating	11	high_cue	n/a	35.54	Strong	35.54	Strong	0.5	2.41	task-social/cue/runtype-pain/sch/h026.png	n/a	n/a	n/a	n/a	n/a	n/a	n/a	n/a
346.05	12.829999999999984	pain	stimulus	11	high_cue	high_stim	n/a	n/a	n/a	n/a	n/a	n/a	n/a	346.05	350.06	355.06	358.87	success	n/a	n/a	n/a
355.5	2.82	pain	outcomerating	11	high_cue	high_stim	45.81	Strong	45.81	Strong	0.75	2.07	task-social/outcomerating/task-pain_scale.png	n/a	n/a	n/a	n/a	success	n/a	n/a	n/a
362.6	1.0	pain	cue	12	high_cue	n/a	n/a	n/a	n/a	n/a	n/a	n/a	task-social/cue/runtype-pain/sch/h028.png	n/a	n/a	n/a	n/a	n/a	n/a	n/a	n/a
364.8	1.95	pain	expectrating	12	high_cue	n/a	97.5	Very Strong	97.5	Very Strong	0.37	1.58	task-social/cue/runtype-pain/sch/h028.png	n/a	n/a	n/a	n/a	n/a	n/a	n/a	n/a
376.53	12.830000000000041	pain	stimulus	12	high_cue	high_stim	n/a	n/a	n/a	n/a	n/a	n/a	n/a	376.53	380.54	385.54	389.35	success	n/a	n/a	n/a
394.6	2.12	pain	outcomerating	12	high_cue	high_stim	78.92	Very Strong	78.92	Very Strong	0.53	1.59	task-social/outcomerating/task-pain_scale.png	n/a	n/a	n/a	n/a	success	n/a	n/a	n/a
