onset	duration	question	event_type	participant_response	normative_response	response_accuracy	stim_file
5.02689003944397	1.3031599521636963	reaching?	how_hand	yes	yes	correct	task-tomspunt/H_007.jpg
6.644160032272339	1.0692999362945557	reaching?	how_hand	no	no	correct	task-tomspunt/H_532.jpg
8.02800989151001	1.4157099723815918	reaching?	how_hand	yes	yes	correct	task-tomspunt/H_474.jpg
9.745319843292236	n/a	reaching?	how_hand	n/a	no	incorrect	task-tomspunt/H_438.jpg
11.779409885406494	0.9996800422668457	reaching?	how_hand	yes	yes	correct	task-tomspunt/H_364.jpg
13.079900026321411	1.0128698348999023	reaching?	how_hand	yes	yes	correct	task-tomspunt/H_006.jpg
14.397049903869629	0.9296300411224365	reaching?	how_hand	yes	yes	correct	task-tomspunt/H_003.jpg
15.630849838256836	1.00177001953125	reaching?	how_hand	no	no	correct	task-tomspunt/H_132.jpg
22.550089836120605	1.0091400146484375	healthy?	why_hand	yes	yes	correct	task-tomspunt/H_627.jpg
23.867249965667725	0.918410062789917	healthy?	why_hand	yes	yes	correct	task-tomspunt/H_438.jpg
25.10104990005493	1.1522300243377686	healthy?	why_hand	yes	yes	correct	task-tomspunt/H_364.jpg
26.568259954452515	0.9916300773620605	healthy?	why_hand	no	no	correct	task-tomspunt/H_130.jpg
27.86873984336853	1.023900032043457	healthy?	why_hand	yes	yes	correct	task-tomspunt/H_362.jpg
29.202579975128174	1.3239099979400635	healthy?	why_hand	no	no	correct	task-tomspunt/H_007.jpg
30.836519956588745	0.9227800369262695	healthy?	why_hand	yes	yes	correct	task-tomspunt/H_167.jpg
32.07030987739563	1.1223399639129639	healthy?	why_hand	no	no	correct	task-tomspunt/H_019.jpg
41.657219886779785	1.0020601749420166	admiring?	why_face	yes	yes	correct	task-tomspunt/F_779.jpg
42.974380016326904	1.001539945602417	admiring?	why_face	yes	yes	correct	task-tomspunt/F_593.jpg
44.29152989387512	1.0848300457000732	admiring?	why_face	no	no	correct	task-tomspunt/F_110.jpg
45.6920599937439	1.0014598369598389	admiring?	why_face	yes	yes	correct	task-tomspunt/F_590.jpg
47.00921988487244	0.9683401584625244	admiring?	why_face	no	no	correct	task-tomspunt/F_692.jpg
48.29303002357483	0.8347799777984619	admiring?	why_face	yes	yes	correct	task-tomspunt/F_759.jpg
49.44345998764038	0.9179098606109619	admiring?	why_face	yes	yes	correct	task-tomspunt/F_648.jpg
50.677249908447266	0.8514001369476318	admiring?	why_face	no	no	correct	task-tomspunt/F_129.jpg
60.63095998764038	0.7517099380493164	smiling?	how_face	yes	yes	correct	task-tomspunt/F_139.jpg
61.6980299949646	0.7446498870849609	smiling?	how_face	no	no	correct	task-tomspunt/F_712.jpg
62.748420000076294	0.7777700424194336	smiling?	how_face	yes	yes	correct	task-tomspunt/F_695.jpg
63.832159996032715	0.7938799858093262	smiling?	how_face	no	no	correct	task-tomspunt/F_758.jpg
64.93256998062134	0.9439198970794678	smiling?	how_face	yes	yes	correct	task-tomspunt/F_083.jpg
66.18302989006042	0.7599601745605469	smiling?	how_face	yes	yes	correct	task-tomspunt/F_759.jpg
67.25009989738464	0.8591001033782959	smiling?	how_face	no	no	correct	task-tomspunt/F_412.jpg
68.4171998500824	0.8586502075195312	smiling?	how_face	yes	yes	correct	task-tomspunt/F_593.jpg
78.1541600227356	0.9550600051879883	lifting?	how_hand	yes	yes	correct	task-tomspunt/H_136.jpg
79.4212999343872	1.0049200057983398	lifting?	how_hand	no	no	correct	task-tomspunt/H_038.jpg
80.73846006393433	1.0881497859954834	lifting?	how_hand	yes	yes	correct	task-tomspunt/H_189.jpg
82.1389799118042	1.0368900299072266	lifting?	how_hand	no	no	correct	task-tomspunt/H_077.jpg
83.48949003219604	1.3706200122833252	lifting?	how_hand	yes	yes	correct	task-tomspunt/H_443.jpg
85.17344999313354	0.9692199230194092	lifting?	how_hand	no	no	correct	task-tomspunt/H_012.jpg
86.45725989341736	0.8689801692962646	lifting?	how_hand	yes	yes	correct	task-tomspunt/H_362.jpg
87.64102983474731	0.9682002067565918	lifting?	how_hand	yes	yes	correct	task-tomspunt/H_170.jpg
100.62920999526978	0.9799799919128418	helping?	why_hand	yes	yes	correct	task-tomspunt/H_077.jpg
101.91301989555359	0.8517000675201416	helping?	why_hand	yes	yes	correct	task-tomspunt/H_349.jpg
103.08012986183167	0.8855001926422119	helping?	why_hand	yes	yes	correct	task-tomspunt/H_474.jpg
104.2805700302124	1.1453800201416016	helping?	why_hand	no	yes	incorrect	task-tomspunt/H_024.jpg
105.7311098575592	1.201550006866455	helping?	why_hand	no	no	correct	task-tomspunt/H_012.jpg
107.24834990501404	0.9943299293518066	helping?	why_hand	no	no	correct	task-tomspunt/H_159.jpg
108.54883003234863	1.1605699062347412	helping?	why_hand	yes	yes	correct	task-tomspunt/H_111.jpg
110.01604986190796	0.9271500110626221	helping?	why_hand	no	no	correct	task-tomspunt/H_091.jpg
118.5192198753357	1.5566201210021973	proud?	why_face	yes	yes	correct	task-tomspunt/F_598.jpg
120.38657999038696	0.8730900287628174	proud?	why_face	no	no	correct	task-tomspunt/F_760.jpg
121.57034993171692	0.955549955368042	proud?	why_face	yes	yes	correct	task-tomspunt/F_582.jpg
122.83748984336853	0.8052101135253906	proud?	why_face	no	no	correct	task-tomspunt/F_412.jpg
123.95457983016968	0.9053201675415039	proud?	why_face	yes	yes	correct	task-tomspunt/F_083.jpg
125.17170000076294	1.054189920425415	proud?	why_face	no	no	correct	task-tomspunt/F_776.jpg
126.53886985778809	0.9351902008056641	proud?	why_face	yes	yes	correct	task-tomspunt/F_618.jpg
127.78934001922607	0.9517199993133545	proud?	why_face	yes	yes	correct	task-tomspunt/F_695.jpg
136.0424199104309	0.7684099674224854	looking to side?	how_face	yes	yes	correct	task-tomspunt/F_590.jpg
137.12615990638733	0.8346600532531738	looking to side?	how_face	yes	yes	correct	task-tomspunt/F_433.jpg
138.27657985687256	0.8013200759887695	looking to side?	how_face	yes	yes	correct	task-tomspunt/F_716.jpg
139.3936698436737	0.8180801868438721	looking to side?	how_face	yes	no	incorrect	task-tomspunt/F_779.jpg
140.5274200439453	1.4521799087524414	looking to side?	how_face	yes	yes	correct	task-tomspunt/F_760.jpg
142.29474997520447	0.9319000244140625	looking to side?	how_face	no	no	correct	task-tomspunt/F_111.jpg
143.52853989601135	1.302260160446167	looking to side?	how_face	yes	yes	correct	task-tomspunt/F_110.jpg
145.14580988883972	0.9800801277160645	looking to side?	how_face	no	no	correct	task-tomspunt/F_798.jpg
155.14953994750977	0.8103399276733398	argument?	why_face	yes	yes	correct	task-tomspunt/F_716.jpg
156.2666299343109	0.9180400371551514	argument?	why_face	no	no	correct	task-tomspunt/F_139.jpg
157.5004198551178	0.9849400520324707	argument?	why_face	yes	yes	correct	task-tomspunt/F_712.jpg
158.80090999603271	0.901439905166626	argument?	why_face	no	no	correct	task-tomspunt/F_433.jpg
160.0180299282074	0.9249100685119629	argument?	why_face	yes	yes	correct	task-tomspunt/F_403.jpg
161.25181984901428	0.8908801078796387	argument?	why_face	no	no	correct	task-tomspunt/F_844.jpg
162.45227003097534	1.0407698154449463	argument?	why_face	yes	yes	correct	task-tomspunt/F_743.jpg
163.8027698993683	0.9348900318145752	argument?	why_face	yes	yes	correct	task-tomspunt/F_758.jpg
172.98952984809875	0.7519001960754395	open mouth?	how_face	yes	yes	correct	task-tomspunt/F_844.jpg
174.05658984184265	0.6530101299285889	open mouth?	how_face	yes	yes	correct	task-tomspunt/F_776.jpg
175.023619890213	0.8030200004577637	open mouth?	how_face	no	no	correct	task-tomspunt/F_544.jpg
176.14069986343384	0.86857008934021	open mouth?	how_face	yes	yes	correct	task-tomspunt/F_692.jpg
177.3244800567627	0.9015297889709473	open mouth?	how_face	no	no	correct	task-tomspunt/F_584.jpg
178.54159998893738	0.7686798572540283	open mouth?	how_face	yes	yes	correct	task-tomspunt/F_403.jpg
179.6253399848938	0.8345999717712402	open mouth?	how_face	yes	yes	correct	task-tomspunt/F_086.jpg
180.77576994895935	0.9018299579620361	open mouth?	how_face	no	no	correct	task-tomspunt/F_648.jpg
190.87952995300293	0.8016300201416016	pressing button?	how_hand	yes	yes	correct	task-tomspunt/H_019.jpg
191.99661993980408	0.8021900653839111	pressing button?	how_hand	no	no	correct	task-tomspunt/H_024.jpg
193.1136999130249	0.7463500499725342	pressing button?	how_hand	no	no	correct	task-tomspunt/H_130.jpg
194.1640899181366	0.6792500019073486	pressing button?	how_hand	yes	yes	correct	task-tomspunt/H_502.jpg
195.14778995513916	0.717979907989502	pressing button?	how_hand	no	no	correct	task-tomspunt/H_261.jpg
196.18150997161865	0.6450800895690918	pressing button?	how_hand	yes	yes	correct	task-tomspunt/H_332.jpg
197.1318700313568	0.7113399505615234	pressing button?	how_hand	yes	yes	correct	task-tomspunt/H_126.jpg
198.14891004562378	0.8276498317718506	pressing button?	how_hand	yes	yes	correct	task-tomspunt/H_483.jpg
208.669499874115	1.2067999839782715	competing?	why_hand	yes	yes	correct	task-tomspunt/H_261.jpg
210.1867299079895	0.8725500106811523	competing?	why_hand	no	no	correct	task-tomspunt/H_483.jpg
211.37050986289978	0.6887500286102295	competing?	why_hand	yes	yes	correct	task-tomspunt/H_132.jpg
212.37087988853455	0.7723400592803955	competing?	why_hand	no	no	correct	task-tomspunt/H_126.jpg
213.45461988449097	0.7520501613616943	competing?	why_hand	yes	yes	correct	task-tomspunt/H_136.jpg
214.52167987823486	0.8513500690460205	competing?	why_hand	no	no	correct	task-tomspunt/H_502.jpg
215.68878984451294	0.7711200714111328	competing?	why_hand	yes	yes	correct	task-tomspunt/H_003.jpg
216.77252984046936	0.6701600551605225	competing?	why_hand	yes	yes	correct	task-tomspunt/H_170.jpg
226.74290990829468	0.7179701328277588	self-doubt?	why_face	yes	yes	correct	task-tomspunt/F_544.jpg
227.77662992477417	1.1333000659942627	self-doubt?	why_face	no	no	correct	task-tomspunt/F_086.jpg
229.21050000190735	0.7519998550415039	self-doubt?	why_face	yes	yes	correct	task-tomspunt/F_798.jpg
230.27755999565125	0.6845998764038086	self-doubt?	why_face	yes	yes	correct	task-tomspunt/F_111.jpg
231.277930021286	0.7180500030517578	self-doubt?	why_face	no	no	correct	task-tomspunt/F_774.jpg
232.3116500377655	1.0646798610687256	self-doubt?	why_face	yes	yes	correct	task-tomspunt/F_754.jpg
233.67882990837097	0.8684799671173096	self-doubt?	why_face	no	no	correct	task-tomspunt/F_128.jpg
234.86259984970093	0.8688499927520752	self-doubt?	why_face	yes	yes	correct	task-tomspunt/F_584.jpg
245.80001997947693	0.6426799297332764	looking at camera?	how_face	yes	yes	correct	task-tomspunt/F_128.jpg
246.75037002563477	0.8589198589324951	looking at camera?	how_face	yes	yes	correct	task-tomspunt/F_618.jpg
247.91746997833252	0.7346799373626709	looking at camera?	how_face	yes	yes	correct	task-tomspunt/F_598.jpg
248.9678599834442	0.6915700435638428	looking at camera?	how_face	no	no	correct	task-tomspunt/F_743.jpg
249.9682400226593	0.7910399436950684	looking at camera?	how_face	yes	yes	correct	task-tomspunt/F_774.jpg
251.06865000724792	0.807689905166626	looking at camera?	how_face	no	no	correct	task-tomspunt/F_582.jpg
252.18572998046875	0.8680400848388672	looking at camera?	how_face	no	no	correct	task-tomspunt/F_754.jpg
253.36950993537903	0.7567799091339111	looking at camera?	how_face	yes	yes	correct	task-tomspunt/F_129.jpg
264.59035992622375	1.1859900951385498	both hands?	how_hand	yes	yes	correct	task-tomspunt/H_167.jpg
266.09091997146606	0.8515400886535645	both hands?	how_hand	no	no	correct	task-tomspunt/H_091.jpg
267.2580199241638	0.8680100440979004	both hands?	how_hand	no	no	correct	task-tomspunt/H_627.jpg
268.4417898654938	1.034749984741211	both hands?	how_hand	yes	yes	correct	task-tomspunt/H_027.jpg
269.7922999858856	0.9016499519348145	both hands?	how_hand	yes	yes	correct	task-tomspunt/H_111.jpg
271.0094199180603	0.7520201206207275	both hands?	how_hand	no	no	correct	task-tomspunt/H_159.jpg
272.0764799118042	1.0848000049591064	both hands?	how_hand	yes	yes	correct	task-tomspunt/H_581.jpg
273.47699999809265	0.8517899513244629	both hands?	how_hand	yes	yes	correct	task-tomspunt/H_349.jpg
283.3806998729706	0.9623501300811768	self-protection?	why_hand	yes	yes	correct	task-tomspunt/H_443.jpg
284.64784002304077	1.1120100021362305	self-protection?	why_hand	no	no	correct	task-tomspunt/H_006.jpg
286.06502985954285	0.9951200485229492	self-protection?	why_hand	yes	yes	correct	task-tomspunt/H_581.jpg
287.36552000045776	1.3352599143981934	self-protection?	why_hand	no	no	correct	task-tomspunt/H_532.jpg
289.01612997055054	0.9013800621032715	self-protection?	why_hand	yes	yes	correct	task-tomspunt/H_027.jpg
290.2332499027252	0.9260001182556152	self-protection?	why_hand	no	yes	incorrect	task-tomspunt/H_038.jpg
291.4670498371124	0.9517800807952881	self-protection?	why_hand	no	no	correct	task-tomspunt/H_332.jpg
292.7341899871826	0.8588600158691406	self-protection?	why_hand	yes	yes	correct	task-tomspunt/H_189.jpg
304.85537004470825	0.8038299083709717	smiling?	how_face	yes	yes	correct	task-tomspunt/F_759.jpg
305.9724500179291	0.6368098258972168	smiling?	how_face	no	no	correct	task-tomspunt/F_412.jpg
306.92280983924866	0.7367501258850098	smiling?	how_face	yes	yes	correct	task-tomspunt/F_593.jpg
307.97319984436035	0.7698299884796143	smiling?	how_face	no	no	correct	task-tomspunt/F_712.jpg
309.0569398403168	0.6857800483703613	smiling?	how_face	yes	yes	correct	task-tomspunt/F_695.jpg
310.05730986595154	0.6519501209259033	smiling?	how_face	yes	yes	correct	task-tomspunt/F_139.jpg
311.0243399143219	0.6686999797821045	smiling?	how_face	yes	yes	correct	task-tomspunt/F_083.jpg
312.00803995132446	0.7018699645996094	smiling?	how_face	no	no	correct	task-tomspunt/F_758.jpg
322.6453399658203	0.7514500617980957	admiring?	why_face	yes	yes	correct	task-tomspunt/F_593.jpg
323.71240997314453	0.6474299430847168	admiring?	why_face	no	no	correct	task-tomspunt/F_129.jpg
324.66276001930237	0.6512598991394043	admiring?	why_face	yes	yes	correct	task-tomspunt/F_759.jpg
325.62978982925415	0.7629001140594482	admiring?	why_face	no	no	correct	task-tomspunt/F_692.jpg
326.6968500614166	0.718059778213501	admiring?	why_face	yes	yes	correct	task-tomspunt/F_779.jpg
327.73056983947754	0.7846500873565674	admiring?	why_face	yes	yes	correct	task-tomspunt/F_590.jpg
328.83098006248474	0.7012598514556885	admiring?	why_face	yes	yes	correct	task-tomspunt/F_648.jpg
329.84802985191345	0.6952800750732422	admiring?	why_face	no	no	correct	task-tomspunt/F_110.jpg
340.5353398323059	0.7016701698303223	competing?	why_hand	yes	yes	correct	task-tomspunt/H_261.jpg
341.5523898601532	0.5406601428985596	competing?	why_hand	yes	yes	correct	task-tomspunt/H_170.jpg
342.4027099609375	0.6236701011657715	competing?	why_hand	no	no	correct	task-tomspunt/H_483.jpg
343.33639001846313	0.5738799571990967	competing?	why_hand	yes	yes	correct	task-tomspunt/H_132.jpg
344.22004985809326	0.6229901313781738	competing?	why_hand	yes	yes	correct	task-tomspunt/H_136.jpg
345.1537299156189	0.5729899406433105	competing?	why_hand	yes	yes	correct	task-tomspunt/H_003.jpg
346.0374000072479	0.6392600536346436	competing?	why_hand	no	no	correct	task-tomspunt/H_126.jpg
346.98775005340576	0.7388098239898682	competing?	why_hand	no	no	correct	task-tomspunt/H_502.jpg
362.0100200176239	0.6847898960113525	reaching?	how_hand	yes	yes	correct	task-tomspunt/H_003.jpg
363.01039004325867	0.7182998657226562	reaching?	how_hand	yes	yes	correct	task-tomspunt/H_364.jpg
364.04411005973816	1.0020198822021484	reaching?	how_hand	no	no	correct	task-tomspunt/H_532.jpg
365.3612699508667	0.7683100700378418	reaching?	how_hand	yes	yes	correct	task-tomspunt/H_006.jpg
366.4450099468231	0.9808900356292725	reaching?	how_hand	no	no	correct	task-tomspunt/H_438.jpg
367.72881984710693	0.8346099853515625	reaching?	how_hand	yes	yes	correct	task-tomspunt/H_007.jpg
368.87925004959106	0.8681600093841553	reaching?	how_hand	yes	yes	correct	task-tomspunt/H_474.jpg
370.063019990921	0.9802298545837402	reaching?	how_hand	no	no	correct	task-tomspunt/H_132.jpg
379.8500099182129	0.6593499183654785	open mouth?	how_face	yes	yes	correct	task-tomspunt/F_403.jpg
380.81702995300293	0.6928598880767822	open mouth?	how_face	no	no	correct	task-tomspunt/F_648.jpg
381.817409992218	0.6518599987030029	open mouth?	how_face	yes	yes	correct	task-tomspunt/F_776.jpg
382.78443002700806	0.841559886932373	open mouth?	how_face	no	no	correct	task-tomspunt/F_584.jpg
383.9348599910736	0.7410500049591064	open mouth?	how_face	yes	yes	correct	task-tomspunt/F_844.jpg
384.9852499961853	0.7414200305938721	open mouth?	how_face	yes	yes	correct	task-tomspunt/F_692.jpg
386.0356500148773	0.6902599334716797	open mouth?	how_face	yes	yes	correct	task-tomspunt/F_086.jpg
387.0360200405121	0.9241797924041748	open mouth?	how_face	no	no	correct	task-tomspunt/F_544.jpg
398.52363991737366	0.9862499237060547	argument?	why_face	yes	yes	correct	task-tomspunt/F_403.jpg
399.82412004470825	0.652400016784668	argument?	why_face	no	no	correct	task-tomspunt/F_844.jpg
400.79114985466003	0.8013901710510254	argument?	why_face	yes	yes	correct	task-tomspunt/F_712.jpg
401.90823006629944	0.7351799011230469	argument?	why_face	yes	yes	correct	task-tomspunt/F_758.jpg
402.95861983299255	0.7180900573730469	argument?	why_face	no	no	correct	task-tomspunt/F_433.jpg
403.99233984947205	0.6513199806213379	argument?	why_face	yes	yes	correct	task-tomspunt/F_716.jpg
404.9593698978424	0.768049955368042	argument?	why_face	no	no	correct	task-tomspunt/F_139.jpg
406.0431098937988	0.7346501350402832	argument?	why_face	yes	yes	correct	task-tomspunt/F_743.jpg
416.7470998764038	0.7627801895141602	helping?	why_hand	yes	yes	correct	task-tomspunt/H_024.jpg
417.8141598701477	0.8183801174163818	helping?	why_hand	yes	yes	correct	task-tomspunt/H_349.jpg
418.94791984558105	0.6622300148010254	helping?	why_hand	yes	yes	correct	task-tomspunt/H_077.jpg
419.9149498939514	0.7186601161956787	helping?	why_hand	yes	yes	correct	task-tomspunt/H_474.jpg
420.9486699104309	0.8352401256561279	helping?	why_hand	no	no	correct	task-tomspunt/H_091.jpg
422.09908986091614	0.6679701805114746	helping?	why_hand	no	no	correct	task-tomspunt/H_159.jpg
423.082799911499	0.7352199554443359	helping?	why_hand	yes	yes	correct	task-tomspunt/H_111.jpg
424.1331899166107	0.8687300682067871	helping?	why_hand	no	no	correct	task-tomspunt/H_012.jpg
434.8205099105835	1.8640799522399902	both hands?	how_hand	yes	yes	correct	task-tomspunt/H_111.jpg
436.85459995269775	1.1682000160217285	both hands?	how_hand	yes	yes	correct	task-tomspunt/H_027.jpg
438.33847999572754	0.9374299049377441	both hands?	how_hand	no	no	correct	task-tomspunt/H_091.jpg
439.58894991874695	0.7207200527191162	both hands?	how_hand	yes	yes	correct	task-tomspunt/H_167.jpg
440.62266993522644	0.7539899349212646	both hands?	how_hand	yes	yes	correct	task-tomspunt/H_581.jpg
441.68972992897034	0.702970027923584	both hands?	how_hand	no	no	correct	task-tomspunt/H_159.jpg
442.7067799568176	0.6525099277496338	both hands?	how_hand	yes	yes	correct	task-tomspunt/H_349.jpg
443.673810005188	1.2521798610687256	both hands?	how_hand	no	no	correct	task-tomspunt/H_627.jpg
452.3437099456787	0.8680899143218994	healthy?	why_hand	yes	yes	correct	task-tomspunt/H_438.jpg
453.52747988700867	0.7184600830078125	healthy?	why_hand	yes	yes	correct	task-tomspunt/H_364.jpg
454.56119990348816	0.6683900356292725	healthy?	why_hand	yes	yes	correct	task-tomspunt/H_362.jpg
455.5448999404907	0.702009916305542	healthy?	why_hand	no	no	correct	task-tomspunt/H_019.jpg
456.561949968338	0.6512000560760498	healthy?	why_hand	yes	yes	correct	task-tomspunt/H_167.jpg
457.52897000312805	0.7309999465942383	healthy?	why_hand	no	no	correct	task-tomspunt/H_007.jpg
458.56269001960754	0.9852399826049805	healthy?	why_hand	yes	yes	correct	task-tomspunt/H_627.jpg
459.8631799221039	0.6846201419830322	healthy?	why_hand	no	no	correct	task-tomspunt/H_130.jpg
471.38414001464844	0.6421999931335449	pressing button?	how_hand	yes	yes	correct	task-tomspunt/H_126.jpg
472.334499835968	0.6012601852416992	pressing button?	how_hand	no	no	correct	task-tomspunt/H_130.jpg
473.25150990486145	0.6419401168823242	pressing button?	how_hand	yes	yes	correct	task-tomspunt/H_483.jpg
474.2018599510193	0.7246599197387695	pressing button?	how_hand	no	no	correct	task-tomspunt/H_024.jpg
475.2355799674988	0.6240899562835693	pressing button?	how_hand	yes	yes	correct	task-tomspunt/H_332.jpg
476.1692600250244	0.5240600109100342	pressing button?	how_hand	yes	yes	correct	task-tomspunt/H_019.jpg
477.0028998851776	0.6402900218963623	pressing button?	how_hand	no	no	correct	task-tomspunt/H_261.jpg
477.95325994491577	0.5894699096679688	pressing button?	how_hand	yes	yes	correct	task-tomspunt/H_502.jpg
488.9240200519562	1.352329969406128	looking at camera?	how_face	yes	yes	correct	task-tomspunt/F_618.jpg
490.5913100242615	0.9680500030517578	looking at camera?	how_face	no	no	correct	task-tomspunt/F_754.jpg
491.8751199245453	0.6679599285125732	looking at camera?	how_face	yes	yes	correct	task-tomspunt/F_129.jpg
492.85881996154785	0.6180300712585449	looking at camera?	how_face	yes	yes	correct	task-tomspunt/F_598.jpg
493.7925000190735	0.5678298473358154	looking at camera?	how_face	yes	yes	correct	task-tomspunt/F_128.jpg
494.6761598587036	0.68461012840271	looking at camera?	how_face	yes	no	incorrect	task-tomspunt/F_582.jpg
495.6765298843384	0.9187800884246826	looking at camera?	how_face	yes	yes	correct	task-tomspunt/F_774.jpg
496.91033005714417	0.8854398727416992	looking at camera?	how_face	no	no	correct	task-tomspunt/F_743.jpg
507.881089925766	n/a	self-doubt?	why_face	n/a	yes	incorrect	task-tomspunt/F_798.jpg
509.91517996788025	1.2278399467468262	self-doubt?	why_face	yes	no	incorrect	task-tomspunt/F_086.jpg
511.44907999038696	0.6268599033355713	self-doubt?	why_face	yes	yes	correct	task-tomspunt/F_544.jpg
512.3827600479126	0.5685999393463135	self-doubt?	why_face	yes	yes	correct	task-tomspunt/F_754.jpg
513.266429901123	0.8347599506378174	self-doubt?	why_face	no	yes	incorrect	task-tomspunt/F_111.jpg
514.4168598651886	1.051760196685791	self-doubt?	why_face	yes	yes	correct	task-tomspunt/F_584.jpg
515.7840299606323	0.7087399959564209	self-doubt?	why_face	no	no	correct	task-tomspunt/F_128.jpg
516.8010799884796	0.818120002746582	self-doubt?	why_face	no	no	correct	task-tomspunt/F_774.jpg
525.4042899608612	1.2518301010131836	self-protection?	why_hand	no	yes	incorrect	task-tomspunt/H_581.jpg
526.9715399742126	1.0550899505615234	self-protection?	why_hand	no	yes	incorrect	task-tomspunt/H_443.jpg
528.3387198448181	1.2871100902557373	self-protection?	why_hand	no	no	correct	task-tomspunt/H_332.jpg
529.939309835434	0.7867200374603271	self-protection?	why_hand	yes	yes	correct	task-tomspunt/H_027.jpg
531.0397200584412	0.7366499900817871	self-protection?	why_hand	no	no	correct	task-tomspunt/H_532.jpg
532.0901100635529	0.8862299919128418	self-protection?	why_hand	yes	yes	correct	task-tomspunt/H_189.jpg
533.2905600070953	0.7687098979949951	self-protection?	why_hand	no	no	correct	task-tomspunt/H_006.jpg
534.3743000030518	1.0348799228668213	self-protection?	why_hand	no	yes	incorrect	task-tomspunt/H_038.jpg
543.6277499198914	1.018160104751587	lifting?	how_hand	yes	yes	correct	task-tomspunt/H_443.jpg
544.9615800380707	0.8148000240325928	lifting?	how_hand	no	no	correct	task-tomspunt/H_038.jpg
546.0786600112915	1.0351099967956543	lifting?	how_hand	yes	yes	correct	task-tomspunt/H_136.jpg
547.4291698932648	0.8020601272583008	lifting?	how_hand	no	no	correct	task-tomspunt/H_012.jpg
548.5462498664856	0.680610179901123	lifting?	how_hand	yes	yes	correct	task-tomspunt/H_362.jpg
549.5299499034882	0.879349946975708	lifting?	how_hand	yes	yes	correct	task-tomspunt/H_189.jpg
550.7137198448181	1.1790900230407715	lifting?	how_hand	yes	yes	correct	task-tomspunt/H_170.jpg
552.1976099014282	1.1284599304199219	lifting?	how_hand	no	no	correct	task-tomspunt/H_077.jpg
561.5010800361633	1.2252299785614014	looking to side?	how_face	yes	yes	correct	task-tomspunt/F_716.jpg
563.0349898338318	0.7016100883483887	looking to side?	how_face	no	no	correct	task-tomspunt/F_798.jpg
564.0520298480988	0.6743001937866211	looking to side?	how_face	yes	yes	correct	task-tomspunt/F_760.jpg
565.0357298851013	1.1739001274108887	looking to side?	how_face	yes	yes	correct	task-tomspunt/F_110.jpg
566.5196199417114	1.0563199520111084	looking to side?	how_face	no	no	correct	task-tomspunt/F_779.jpg
567.8868000507355	1.0058598518371582	looking to side?	how_face	yes	yes	correct	task-tomspunt/F_590.jpg
569.2039499282837	0.8719699382781982	looking to side?	how_face	no	no	correct	task-tomspunt/F_111.jpg
570.387729883194	1.1553599834442139	looking to side?	how_face	no	yes	incorrect	task-tomspunt/F_433.jpg
583.9761300086975	0.7504498958587646	proud?	why_face	yes	yes	correct	task-tomspunt/F_083.jpg
585.0265200138092	0.768470048904419	proud?	why_face	yes	yes	correct	task-tomspunt/F_582.jpg
586.1102600097656	0.7663099765777588	proud?	why_face	yes	yes	correct	task-tomspunt/F_618.jpg
587.1773200035095	0.7346799373626709	proud?	why_face	no	no	correct	task-tomspunt/F_776.jpg
588.2277100086212	0.8982198238372803	proud?	why_face	yes	yes	correct	task-tomspunt/F_598.jpg
589.4281599521637	0.7353200912475586	proud?	why_face	no	no	correct	task-tomspunt/F_760.jpg
590.4785599708557	0.6848499774932861	proud?	why_face	no	no	correct	task-tomspunt/F_412.jpg
591.4789299964905	1.2681598663330078	proud?	why_face	yes	yes	correct	task-tomspunt/F_695.jpg
0.0994191074371336	2.01741862297058	reaching?	block_question_presentation	n/a	n/a	n/a	n/a
0.0994191074371336	0.3	reaching?	block_question_presentation	n/a	n/a	n/a	n/a
17.5392565631866	2.10078358650208	healthy?	block_question_presentation	n/a	n/a	n/a	n/a
17.5392565631866	0.3	healthy?	block_question_presentation	n/a	n/a	n/a	n/a
36.6463813686371	2.1007833480835	admiring?	block_question_presentation	n/a	n/a	n/a	n/a
36.6463813686371	0.3	admiring?	block_question_presentation	n/a	n/a	n/a	n/a
55.6201245689392	2.10078310966492	smiling?	block_question_presentation	n/a	n/a	n/a	n/a
55.6201245689392	0.3	smiling?	block_question_presentation	n/a	n/a	n/a	n/a
73.1433260345459	2.10078263282776	lifting?	block_question_presentation	n/a	n/a	n/a	n/a
73.1433260345459	0.3	lifting?	block_question_presentation	n/a	n/a	n/a	n/a
95.635046710968	2.08410978317261	helping?	block_question_presentation	n/a	n/a	n/a	n/a
95.635046710968	0.3	helping?	block_question_presentation	n/a	n/a	n/a	n/a
113.508378734589	2.0841109752655	proud?	block_question_presentation	n/a	n/a	n/a	n/a
113.508378734589	0.3	proud?	block_question_presentation	n/a	n/a	n/a	n/a
131.031577339172	2.10078644752502	looking to side?	block_question_presentation	n/a	n/a	n/a	n/a
131.031577339172	0.3	looking to side?	block_question_presentation	n/a	n/a	n/a	n/a
150.138705720901	2.10078287124634	argument?	block_question_presentation	n/a	n/a	n/a	n/a
150.138705720901	0.3	argument?	block_question_presentation	n/a	n/a	n/a	n/a
167.978691568375	2.10078287124634	open mouth?	block_question_presentation	n/a	n/a	n/a	n/a
167.978691568375	0.3	open mouth?	block_question_presentation	n/a	n/a	n/a	n/a
185.86869644165	2.10078358650208	pressing button?	block_question_presentation	n/a	n/a	n/a	n/a
185.86869644165	0.3	pressing button?	block_question_presentation	n/a	n/a	n/a	n/a
203.658664455414	2.10078382492065	competing?	block_question_presentation	n/a	n/a	n/a	n/a
203.658664455414	0.3	competing?	block_question_presentation	n/a	n/a	n/a	n/a
221.732070913315	2.10078310966492	self-doubt?	block_question_presentation	n/a	n/a	n/a	n/a
221.732070913315	0.3	self-doubt?	block_question_presentation	n/a	n/a	n/a	n/a
240.789176931381	2.10078406333923	looking at camera?	block_question_presentation	n/a	n/a	n/a	n/a
240.789176931381	0.3	looking at camera?	block_question_presentation	n/a	n/a	n/a	n/a
259.579518785477	2.10078263282776	both hands?	block_question_presentation	n/a	n/a	n/a	n/a
259.579518785477	0.3	both hands?	block_question_presentation	n/a	n/a	n/a	n/a
278.369858255386	2.10078454017639	self-protection?	block_question_presentation	n/a	n/a	n/a	n/a
278.369858255386	0.3	self-protection?	block_question_presentation	n/a	n/a	n/a	n/a
299.844533195496	2.10078406333923	smiling?	block_question_presentation	n/a	n/a	n/a	n/a
299.844533195496	0.3	smiling?	block_question_presentation	n/a	n/a	n/a	n/a
317.634502162933	2.10078310966492	admiring?	block_question_presentation	n/a	n/a	n/a	n/a
317.634502162933	0.3	admiring?	block_question_presentation	n/a	n/a	n/a	n/a
335.524506082535	2.10078430175781	competing?	block_question_presentation	n/a	n/a	n/a	n/a
335.524506082535	0.3	competing?	block_question_presentation	n/a	n/a	n/a	n/a
356.999181976318	2.10078239440918	reaching?	block_question_presentation	n/a	n/a	n/a	n/a
356.999181976318	0.3	reaching?	block_question_presentation	n/a	n/a	n/a	n/a
374.839167346954	2.10078430175781	open mouth?	block_question_presentation	n/a	n/a	n/a	n/a
374.839167346954	0.3	open mouth?	block_question_presentation	n/a	n/a	n/a	n/a
393.512798776627	2.1007833480835	argument?	block_question_presentation	n/a	n/a	n/a	n/a
393.512798776627	0.3	argument?	block_question_presentation	n/a	n/a	n/a	n/a
411.736261119843	2.1007821559906	helping?	block_question_presentation	n/a	n/a	n/a	n/a
411.736261119843	0.3	helping?	block_question_presentation	n/a	n/a	n/a	n/a
429.809667816162	2.10078310966492	both hands?	block_question_presentation	n/a	n/a	n/a	n/a
429.809667816162	0.3	both hands?	block_question_presentation	n/a	n/a	n/a	n/a
447.332868566513	2.10078382492065	healthy?	block_question_presentation	n/a	n/a	n/a	n/a
447.332868566513	0.3	healthy?	block_question_presentation	n/a	n/a	n/a	n/a
466.373302688599	2.10078406333923	pressing button?	block_question_presentation	n/a	n/a	n/a	n/a
466.373302688599	0.3	pressing button?	block_question_presentation	n/a	n/a	n/a	n/a
483.913177957535	2.10078239440918	looking at camera?	block_question_presentation	n/a	n/a	n/a	n/a
483.913177957535	0.3	looking at camera?	block_question_presentation	n/a	n/a	n/a	n/a
502.870246400833	2.10078454017639	self-doubt?	block_question_presentation	n/a	n/a	n/a	n/a
502.870246400833	0.3	self-doubt?	block_question_presentation	n/a	n/a	n/a	n/a
520.393448343277	2.10078287124634	self-protection?	block_question_presentation	n/a	n/a	n/a	n/a
520.393448343277	0.3	self-protection?	block_question_presentation	n/a	n/a	n/a	n/a
538.616910686493	2.10078358650208	lifting?	block_question_presentation	n/a	n/a	n/a	n/a
538.616910686493	0.3	lifting?	block_question_presentation	n/a	n/a	n/a	n/a
556.490242471695	2.10078382492065	looking to side?	block_question_presentation	n/a	n/a	n/a	n/a
556.490242471695	0.3	looking to side?	block_question_presentation	n/a	n/a	n/a	n/a
578.965290536881	2.10078358650208	proud?	block_question_presentation	n/a	n/a	n/a	n/a
578.965290536881	0.3	proud?	block_question_presentation	n/a	n/a	n/a	n/a
