onset	duration	trial_type	response_value	stim_file
2.77	155.211	video	n/a	task-alignvideo/ses-01_run-02_order-01_content-harrymetsally.mp4
162.532	n/a	rating_relevance	n/a	task-alignvideo/ses-01_run-02_order-01_content-harrymetsally.mp4
167.551	n/a	rating_happy	n/a	task-alignvideo/ses-01_run-02_order-01_content-harrymetsally.mp4
172.586	n/a	rating_sad	n/a	task-alignvideo/ses-01_run-02_order-01_content-harrymetsally.mp4
177.621	n/a	rating_afraid	n/a	task-alignvideo/ses-01_run-02_order-01_content-harrymetsally.mp4
182.656	n/a	rating_disgusted	n/a	task-alignvideo/ses-01_run-02_order-01_content-harrymetsally.mp4
187.692	n/a	rating_warm	n/a	task-alignvideo/ses-01_run-02_order-01_content-harrymetsally.mp4
192.727	n/a	rating_engaged	n/a	task-alignvideo/ses-01_run-02_order-01_content-harrymetsally.mp4
193.261	57.117	video	n/a	task-alignvideo/ses-01_run-02_order-02_content-HB.mp4
254.933	n/a	rating_relevance	n/a	task-alignvideo/ses-01_run-02_order-02_content-HB.mp4
259.969	n/a	rating_happy	n/a	task-alignvideo/ses-01_run-02_order-02_content-HB.mp4
264.987	n/a	rating_sad	n/a	task-alignvideo/ses-01_run-02_order-02_content-HB.mp4
270.006	n/a	rating_afraid	n/a	task-alignvideo/ses-01_run-02_order-02_content-HB.mp4
275.024	n/a	rating_disgusted	n/a	task-alignvideo/ses-01_run-02_order-02_content-HB.mp4
280.059	n/a	rating_warm	n/a	task-alignvideo/ses-01_run-02_order-02_content-HB.mp4
285.095	n/a	rating_engaged	n/a	task-alignvideo/ses-01_run-02_order-02_content-HB.mp4
285.627	243.892	video	n/a	task-alignvideo/ses-01_run-02_order-03_content-islamophobia.mp4
534.071	n/a	rating_relevance	n/a	task-alignvideo/ses-01_run-02_order-03_content-islamophobia.mp4
539.089	n/a	rating_happy	n/a	task-alignvideo/ses-01_run-02_order-03_content-islamophobia.mp4
544.108	n/a	rating_sad	n/a	task-alignvideo/ses-01_run-02_order-03_content-islamophobia.mp4
549.143	n/a	rating_afraid	n/a	task-alignvideo/ses-01_run-02_order-03_content-islamophobia.mp4
554.178	n/a	rating_disgusted	n/a	task-alignvideo/ses-01_run-02_order-03_content-islamophobia.mp4
559.213	n/a	rating_warm	n/a	task-alignvideo/ses-01_run-02_order-03_content-islamophobia.mp4
564.249	n/a	rating_engaged	n/a	task-alignvideo/ses-01_run-02_order-03_content-islamophobia.mp4
564.781	30.148	video	n/a	task-alignvideo/ses-01_run-02_order-04_content-beachsunset.mp4
599.478	n/a	rating_relevance	n/a	task-alignvideo/ses-01_run-02_order-04_content-beachsunset.mp4
604.514	n/a	rating_happy	n/a	task-alignvideo/ses-01_run-02_order-04_content-beachsunset.mp4
609.549	n/a	rating_sad	n/a	task-alignvideo/ses-01_run-02_order-04_content-beachsunset.mp4
614.567	n/a	rating_afraid	n/a	task-alignvideo/ses-01_run-02_order-04_content-beachsunset.mp4
619.586	n/a	rating_disgusted	n/a	task-alignvideo/ses-01_run-02_order-04_content-beachsunset.mp4
624.604	n/a	rating_warm	n/a	task-alignvideo/ses-01_run-02_order-04_content-beachsunset.mp4
629.623	n/a	rating_engaged	n/a	task-alignvideo/ses-01_run-02_order-04_content-beachsunset.mp4
