onset	duration	run_type	trial_type	trial_index	cue	stimulusintensity	rating_value	rating_glmslabel	rating_value_fillna	rating_glmslabel_fillna	rating_mouseonset	rating_mousedur	stim_file_TODO	pain_onset_ttl1	pain_onset_ttl2	pain_onset_ttl3	pain_onset_ttl4	pain_stimulus_delivery_success	cognitive_correct_response	cognitive_participant_response	cognitive_response_accuracy
4.98	1.0	pain	cue	1	low_cue	n/a	n/a	n/a	n/a	n/a	n/a	n/a	task-social/cue/runtype-pain/scl/l044.png	n/a	n/a	n/a	n/a	n/a	n/a	n/a	n/a
7.6	1.8	pain	expectrating	1	low_cue	n/a	13.48	Moderate	13.48	Moderate	0.37	1.43	task-social/cue/runtype-pain/scl/l044.png	n/a	n/a	n/a	n/a	n/a	n/a	n/a	n/a
16.82	12.82	pain	stimulus	1	low_cue	high_stim	n/a	n/a	n/a	n/a	n/a	n/a	n/a	16.82	20.83	25.83	29.64	success	n/a	n/a	n/a
28.79	2.8	pain	outcomerating	1	low_cue	high_stim	29.86	Strong	29.86	Strong	0.37	1.43	task-social/outcomerating/task-pain_scale.png	n/a	n/a	n/a	n/a	success	n/a	n/a	n/a
37.39	1.0	pain	cue	2	high_cue	n/a	n/a	n/a	n/a	n/a	n/a	n/a	task-social/cue/runtype-pain/sch/h047.png	n/a	n/a	n/a	n/a	n/a	n/a	n/a	n/a
39.7	2.5	pain	expectrating	2	high_cue	n/a	22.87	Moderate	22.87	Moderate	0.4	2.1	task-social/cue/runtype-pain/sch/h047.png	n/a	n/a	n/a	n/a	n/a	n/a	n/a	n/a
50.01	12.370000000000005	pain	stimulus	2	high_cue	med_stim	n/a	n/a	n/a	n/a	n/a	n/a	n/a	50.01	53.77	58.77	62.38	success	n/a	n/a	n/a
65.49	2.02	pain	outcomerating	2	high_cue	med_stim	19.67	Moderate	19.67	Moderate	0.4	2.1	task-social/outcomerating/task-pain_scale.png	n/a	n/a	n/a	n/a	success	n/a	n/a	n/a
70.69	1.0	pain	cue	3	low_cue	n/a	n/a	n/a	n/a	n/a	n/a	n/a	task-social/cue/runtype-pain/scl/l055.png	n/a	n/a	n/a	n/a	n/a	n/a	n/a	n/a
72.99	2.04	pain	expectrating	3	low_cue	n/a	25.23	Moderate	25.23	Moderate	0.4	1.64	task-social/cue/runtype-pain/scl/l055.png	n/a	n/a	n/a	n/a	n/a	n/a	n/a	n/a
77.91	11.900000000000006	pain	stimulus	3	low_cue	low_stim	n/a	n/a	n/a	n/a	n/a	n/a	n/a	77.91	81.41	86.41	89.81	success	n/a	n/a	n/a
88.3	2.47	pain	outcomerating	3	low_cue	low_stim	15.32	Moderate	15.32	Moderate	0.4	1.64	task-social/outcomerating/task-pain_scale.png	n/a	n/a	n/a	n/a	success	n/a	n/a	n/a
100.18	1.0	pain	cue	4	high_cue	n/a	n/a	n/a	n/a	n/a	n/a	n/a	task-social/cue/runtype-pain/sch/h033.png	n/a	n/a	n/a	n/a	n/a	n/a	n/a	n/a
102.79	2.19	pain	expectrating	4	high_cue	n/a	24.61	Moderate	24.61	Moderate	0.32	1.88	task-social/cue/runtype-pain/sch/h033.png	n/a	n/a	n/a	n/a	n/a	n/a	n/a	n/a
108.22	11.900000000000006	pain	stimulus	4	high_cue	low_stim	n/a	n/a	n/a	n/a	n/a	n/a	n/a	108.22	111.72	116.72	120.12	success	n/a	n/a	n/a
123.69	2.29	pain	outcomerating	4	high_cue	low_stim	9.69	Weak	9.69	Weak	0.32	1.88	task-social/outcomerating/task-pain_scale.png	n/a	n/a	n/a	n/a	success	n/a	n/a	n/a
132.58	1.0	pain	cue	5	low_cue	n/a	n/a	n/a	n/a	n/a	n/a	n/a	task-social/cue/runtype-pain/scl/l043.png	n/a	n/a	n/a	n/a	n/a	n/a	n/a	n/a
135.2	2.2	pain	expectrating	5	low_cue	n/a	25.23	Moderate	25.23	Moderate	0.3	1.9	task-social/cue/runtype-pain/scl/l043.png	n/a	n/a	n/a	n/a	n/a	n/a	n/a	n/a
145.53	12.359999999999985	pain	stimulus	5	low_cue	med_stim	n/a	n/a	n/a	n/a	n/a	n/a	n/a	145.53	149.29	154.29	157.9	success	n/a	n/a	n/a
156.39	2.37	pain	outcomerating	5	low_cue	med_stim	21.29	Moderate	21.29	Moderate	0.3	1.9	task-social/outcomerating/task-pain_scale.png	n/a	n/a	n/a	n/a	success	n/a	n/a	n/a
165.29	1.0	pain	cue	6	high_cue	n/a	n/a	n/a	n/a	n/a	n/a	n/a	task-social/cue/runtype-pain/sch/h053.png	n/a	n/a	n/a	n/a	n/a	n/a	n/a	n/a
167.59	2.07	pain	expectrating	6	high_cue	n/a	22.87	Moderate	22.87	Moderate	0.33	1.74	task-social/cue/runtype-pain/sch/h053.png	n/a	n/a	n/a	n/a	n/a	n/a	n/a	n/a
177.82	12.819999999999993	pain	stimulus	6	high_cue	high_stim	n/a	n/a	n/a	n/a	n/a	n/a	n/a	177.82	181.83	186.83	190.64	success	n/a	n/a	n/a
190.59	2.68	pain	outcomerating	6	high_cue	high_stim	31.64	Strong	31.64	Strong	0.33	1.74	task-social/outcomerating/task-pain_scale.png	n/a	n/a	n/a	n/a	success	n/a	n/a	n/a
199.39	1.0	pain	cue	7	low_cue	n/a	n/a	n/a	n/a	n/a	n/a	n/a	task-social/cue/runtype-pain/scl/l015.png	n/a	n/a	n/a	n/a	n/a	n/a	n/a	n/a
201.79	2.61	pain	expectrating	7	low_cue	n/a	28.52	Moderate	28.52	Moderate	0.37	2.24	task-social/cue/runtype-pain/scl/l015.png	n/a	n/a	n/a	n/a	n/a	n/a	n/a	n/a
212.11	11.899999999999977	pain	stimulus	7	low_cue	low_stim	n/a	n/a	n/a	n/a	n/a	n/a	n/a	212.11	215.61	220.61	224.01	success	n/a	n/a	n/a
230.98	2.27	pain	outcomerating	7	low_cue	low_stim	13.42	Moderate	13.42	Moderate	0.37	2.24	task-social/outcomerating/task-pain_scale.png	n/a	n/a	n/a	n/a	success	n/a	n/a	n/a
236.39	1.0	pain	cue	8	low_cue	n/a	n/a	n/a	n/a	n/a	n/a	n/a	task-social/cue/runtype-pain/scl/l053.png	n/a	n/a	n/a	n/a	n/a	n/a	n/a	n/a
239.09	1.79	pain	expectrating	8	low_cue	n/a	9.46	Weak	9.46	Weak	0.35	1.44	task-social/cue/runtype-pain/scl/l053.png	n/a	n/a	n/a	n/a	n/a	n/a	n/a	n/a
245.41	12.830000000000013	pain	stimulus	8	low_cue	high_stim	n/a	n/a	n/a	n/a	n/a	n/a	n/a	245.41	249.42	254.42	258.23	success	n/a	n/a	n/a
261.19	2.53	pain	outcomerating	8	low_cue	high_stim	25.43	Moderate	25.43	Moderate	0.35	1.44	task-social/outcomerating/task-pain_scale.png	n/a	n/a	n/a	n/a	success	n/a	n/a	n/a
266.48	1.0	pain	cue	9	high_cue	n/a	n/a	n/a	n/a	n/a	n/a	n/a	task-social/cue/runtype-pain/sch/h015.png	n/a	n/a	n/a	n/a	n/a	n/a	n/a	n/a
269.7	1.98	pain	expectrating	9	high_cue	n/a	27.6	Moderate	27.6	Moderate	0.4	1.58	task-social/cue/runtype-pain/sch/h015.png	n/a	n/a	n/a	n/a	n/a	n/a	n/a	n/a
278.21	12.819999999999993	pain	stimulus	9	high_cue	high_stim	n/a	n/a	n/a	n/a	n/a	n/a	n/a	278.21	282.22	287.22	291.03	success	n/a	n/a	n/a
290.69	1.99	pain	outcomerating	9	high_cue	high_stim	26.67	Moderate	26.67	Moderate	0.4	1.58	task-social/outcomerating/task-pain_scale.png	n/a	n/a	n/a	n/a	success	n/a	n/a	n/a
304.49	0.98	pain	cue	10	high_cue	n/a	n/a	n/a	n/a	n/a	n/a	n/a	task-social/cue/runtype-pain/sch/h027.png	n/a	n/a	n/a	n/a	n/a	n/a	n/a	n/a
307.4	3.27	pain	expectrating	10	high_cue	n/a	24.41	Moderate	24.41	Moderate	0.4	2.87	task-social/cue/runtype-pain/sch/h027.png	n/a	n/a	n/a	n/a	n/a	n/a	n/a	n/a
317.61	12.370000000000005	pain	stimulus	10	high_cue	med_stim	n/a	n/a	n/a	n/a	n/a	n/a	n/a	317.61	321.37	326.37	329.98	success	n/a	n/a	n/a
329.69	2.61	pain	outcomerating	10	high_cue	med_stim	16.26	Moderate	16.26	Moderate	0.4	2.87	task-social/outcomerating/task-pain_scale.png	n/a	n/a	n/a	n/a	success	n/a	n/a	n/a
335.89	1.0	pain	cue	11	high_cue	n/a	n/a	n/a	n/a	n/a	n/a	n/a	task-social/cue/runtype-pain/sch/h010.png	n/a	n/a	n/a	n/a	n/a	n/a	n/a	n/a
338.29	1.81	pain	expectrating	11	high_cue	n/a	32.74	Strong	32.74	Strong	0.37	1.44	task-social/cue/runtype-pain/sch/h010.png	n/a	n/a	n/a	n/a	n/a	n/a	n/a	n/a
344.61	11.899999999999977	pain	stimulus	11	high_cue	low_stim	n/a	n/a	n/a	n/a	n/a	n/a	n/a	344.61	348.11	353.11	356.51	success	n/a	n/a	n/a
358.3	2.67	pain	outcomerating	11	high_cue	low_stim	11.81	Moderate	11.81	Moderate	0.37	1.44	task-social/outcomerating/task-pain_scale.png	n/a	n/a	n/a	n/a	success	n/a	n/a	n/a
371.19	1.0	pain	cue	12	low_cue	n/a	n/a	n/a	n/a	n/a	n/a	n/a	task-social/cue/runtype-pain/scl/l021.png	n/a	n/a	n/a	n/a	n/a	n/a	n/a	n/a
373.09	1.98	pain	expectrating	12	low_cue	n/a	15.32	Moderate	15.32	Moderate	0.38	1.59	task-social/cue/runtype-pain/scl/l021.png	n/a	n/a	n/a	n/a	n/a	n/a	n/a	n/a
383.24	12.360000000000014	pain	stimulus	12	low_cue	med_stim	n/a	n/a	n/a	n/a	n/a	n/a	n/a	383.24	387.0	392.0	395.61	success	n/a	n/a	n/a
394.89	3.02	pain	outcomerating	12	low_cue	med_stim	21.2	Moderate	21.2	Moderate	0.38	1.59	task-social/outcomerating/task-pain_scale.png	n/a	n/a	n/a	n/a	success	n/a	n/a	n/a
