onset	duration	run_type	trial_type	trial_index	cue	stimulusintensity	rating_value	rating_glmslabel	rating_value_fillna	rating_glmslabel_fillna	rating_mouseonset	rating_mousedur	stim_file_TODO	pain_onset_ttl1	pain_onset_ttl2	pain_onset_ttl3	pain_onset_ttl4	pain_stimulus_delivery_success	cognitive_correct_response	cognitive_participant_response	cognitive_response_accuracy
9.08	0.98	pain	cue	1	high_cue	n/a	n/a	n/a	n/a	n/a	n/a	n/a	task-social/cue/runtype-pain/sch/h002.png	n/a	n/a	n/a	n/a	n/a	n/a	n/a	n/a
10.68	2.78	pain	expectrating	1	high_cue	n/a	23.89	Moderate	23.89	Moderate	0.82	1.97	task-social/cue/runtype-pain/sch/h002.png	n/a	n/a	n/a	n/a	n/a	n/a	n/a	n/a
20.66	12.819999999999997	pain	stimulus	1	high_cue	high_stim	n/a	n/a	n/a	n/a	n/a	n/a	n/a	20.66	24.67	29.67	33.48	success	n/a	n/a	n/a
32.58	2.84	pain	outcomerating	1	high_cue	high_stim	39.78	Strong	39.78	Strong	0.82	1.97	task-social/outcomerating/task-pain_scale.png	n/a	n/a	n/a	n/a	success	n/a	n/a	n/a
45.48	1.0	pain	cue	2	low_cue	n/a	n/a	n/a	n/a	n/a	n/a	n/a	task-social/cue/runtype-pain/scl/l040.png	n/a	n/a	n/a	n/a	n/a	n/a	n/a	n/a
47.38	2.9	pain	expectrating	2	low_cue	n/a	4.13	Weak	4.13	Weak	0.85	2.05	task-social/cue/runtype-pain/scl/l040.png	n/a	n/a	n/a	n/a	n/a	n/a	n/a	n/a
58.73	11.899999999999999	pain	stimulus	2	low_cue	low_stim	n/a	n/a	n/a	n/a	n/a	n/a	n/a	58.73	62.23	67.23	70.63	success	n/a	n/a	n/a
75.48	3.18	pain	outcomerating	2	low_cue	low_stim	8.29	Weak	8.29	Weak	0.85	2.05	task-social/outcomerating/task-pain_scale.png	n/a	n/a	n/a	n/a	success	n/a	n/a	n/a
87.18	1.0	pain	cue	3	high_cue	n/a	n/a	n/a	n/a	n/a	n/a	n/a	task-social/cue/runtype-pain/sch/h033.png	n/a	n/a	n/a	n/a	n/a	n/a	n/a	n/a
89.48	2.39	pain	expectrating	3	high_cue	n/a	20.61	Moderate	20.61	Moderate	0.45	1.94	task-social/cue/runtype-pain/sch/h033.png	n/a	n/a	n/a	n/a	n/a	n/a	n/a	n/a
102.51	11.899999999999991	pain	stimulus	3	high_cue	low_stim	n/a	n/a	n/a	n/a	n/a	n/a	n/a	102.51	106.01	111.01	114.41	success	n/a	n/a	n/a
118.37	2.91	pain	outcomerating	3	high_cue	low_stim	10.49	Moderate	10.49	Moderate	0.45	1.94	task-social/outcomerating/task-pain_scale.png	n/a	n/a	n/a	n/a	success	n/a	n/a	n/a
129.08	1.0	pain	cue	4	high_cue	n/a	n/a	n/a	n/a	n/a	n/a	n/a	task-social/cue/runtype-pain/sch/h020.png	n/a	n/a	n/a	n/a	n/a	n/a	n/a	n/a
130.98	1.99	pain	expectrating	4	high_cue	n/a	40.45	Strong	40.45	Strong	0.53	1.46	task-social/cue/runtype-pain/sch/h020.png	n/a	n/a	n/a	n/a	n/a	n/a	n/a	n/a
136.1	12.360000000000014	pain	stimulus	4	high_cue	med_stim	n/a	n/a	n/a	n/a	n/a	n/a	n/a	136.1	139.86	144.86	148.47	success	n/a	n/a	n/a
148.59	2.75	pain	outcomerating	4	high_cue	med_stim	43.54	Strong	43.54	Strong	0.53	1.46	task-social/outcomerating/task-pain_scale.png	n/a	n/a	n/a	n/a	success	n/a	n/a	n/a
155.37	1.0	pain	cue	5	low_cue	n/a	n/a	n/a	n/a	n/a	n/a	n/a	task-social/cue/runtype-pain/scl/l032.png	n/a	n/a	n/a	n/a	n/a	n/a	n/a	n/a
158.59	2.93	pain	expectrating	5	low_cue	n/a	3.0	Barely detectable	3.0	Barely detectable	0.68	2.25	task-social/cue/runtype-pain/scl/l032.png	n/a	n/a	n/a	n/a	n/a	n/a	n/a	n/a
168.54	11.900000000000006	pain	stimulus	5	low_cue	low_stim	n/a	n/a	n/a	n/a	n/a	n/a	n/a	168.54	172.04	177.04	180.44	success	n/a	n/a	n/a
184.28	2.8	pain	outcomerating	5	low_cue	low_stim	22.53	Moderate	22.53	Moderate	0.68	2.25	task-social/outcomerating/task-pain_scale.png	n/a	n/a	n/a	n/a	success	n/a	n/a	n/a
189.57	1.0	pain	cue	6	low_cue	n/a	n/a	n/a	n/a	n/a	n/a	n/a	task-social/cue/runtype-pain/scl/l031.png	n/a	n/a	n/a	n/a	n/a	n/a	n/a	n/a
192.29	1.28	pain	expectrating	6	low_cue	n/a	0.0	n/a	0.0	n/a	0.42	0.87	task-social/cue/runtype-pain/scl/l031.png	n/a	n/a	n/a	n/a	n/a	n/a	n/a	n/a
197.7	12.820000000000022	pain	stimulus	6	low_cue	high_stim	n/a	n/a	n/a	n/a	n/a	n/a	n/a	197.7	201.71	206.71	210.52	success	n/a	n/a	n/a
208.17	3.88	pain	outcomerating	6	low_cue	high_stim	37.71	Strong	37.71	Strong	0.42	0.87	task-social/outcomerating/task-pain_scale.png	n/a	n/a	n/a	n/a	success	n/a	n/a	n/a
214.08	1.0	pain	cue	7	low_cue	n/a	n/a	n/a	n/a	n/a	n/a	n/a	task-social/cue/runtype-pain/scl/l038.png	n/a	n/a	n/a	n/a	n/a	n/a	n/a	n/a
216.38	2.06	pain	expectrating	7	low_cue	n/a	6.95	Weak	6.95	Weak	0.67	1.39	task-social/cue/runtype-pain/scl/l038.png	n/a	n/a	n/a	n/a	n/a	n/a	n/a	n/a
222.1	12.360000000000014	pain	stimulus	7	low_cue	med_stim	n/a	n/a	n/a	n/a	n/a	n/a	n/a	222.1	225.86	230.86	234.47	success	n/a	n/a	n/a
232.68	1.95	pain	outcomerating	7	low_cue	med_stim	21.63	Moderate	21.63	Moderate	0.67	1.39	task-social/outcomerating/task-pain_scale.png	n/a	n/a	n/a	n/a	success	n/a	n/a	n/a
238.97	1.0	pain	cue	8	low_cue	n/a	n/a	n/a	n/a	n/a	n/a	n/a	task-social/cue/runtype-pain/scl/l044.png	n/a	n/a	n/a	n/a	n/a	n/a	n/a	n/a
241.37	3.8	pain	expectrating	8	low_cue	n/a	10.41	Moderate	10.41	Moderate	0.88	2.92	task-social/cue/runtype-pain/scl/l044.png	n/a	n/a	n/a	n/a	n/a	n/a	n/a	n/a
246.53	12.369999999999976	pain	stimulus	8	low_cue	med_stim	n/a	n/a	n/a	n/a	n/a	n/a	n/a	246.53	250.29	255.29	258.9	success	n/a	n/a	n/a
261.68	1.97	pain	outcomerating	8	low_cue	med_stim	9.91	Weak	9.91	Weak	0.88	2.92	task-social/outcomerating/task-pain_scale.png	n/a	n/a	n/a	n/a	success	n/a	n/a	n/a
267.98	1.0	pain	cue	9	low_cue	n/a	n/a	n/a	n/a	n/a	n/a	n/a	task-social/cue/runtype-pain/scl/l005.png	n/a	n/a	n/a	n/a	n/a	n/a	n/a	n/a
271.18	3.24	pain	expectrating	9	low_cue	n/a	15.17	Moderate	15.17	Moderate	1.03	2.2	task-social/cue/runtype-pain/scl/l005.png	n/a	n/a	n/a	n/a	n/a	n/a	n/a	n/a
279.71	12.819999999999993	pain	stimulus	9	low_cue	high_stim	n/a	n/a	n/a	n/a	n/a	n/a	n/a	279.71	283.72	288.72	292.53	success	n/a	n/a	n/a
294.87	2.2	pain	outcomerating	9	low_cue	high_stim	29.86	Strong	29.86	Strong	1.03	2.2	task-social/outcomerating/task-pain_scale.png	n/a	n/a	n/a	n/a	success	n/a	n/a	n/a
304.98	1.0	pain	cue	10	high_cue	n/a	n/a	n/a	n/a	n/a	n/a	n/a	task-social/cue/runtype-pain/sch/h001.png	n/a	n/a	n/a	n/a	n/a	n/a	n/a	n/a
308.08	2.77	pain	expectrating	10	high_cue	n/a	59.19	Strong	59.19	Strong	0.85	1.92	task-social/cue/runtype-pain/sch/h001.png	n/a	n/a	n/a	n/a	n/a	n/a	n/a	n/a
315.11	11.899999999999977	pain	stimulus	10	high_cue	low_stim	n/a	n/a	n/a	n/a	n/a	n/a	n/a	315.11	318.61	323.61	327.01	success	n/a	n/a	n/a
328.59	3.57	pain	outcomerating	10	high_cue	low_stim	6.18	Weak	6.18	Weak	0.85	1.92	task-social/outcomerating/task-pain_scale.png	n/a	n/a	n/a	n/a	success	n/a	n/a	n/a
339.17	1.0	pain	cue	11	high_cue	n/a	n/a	n/a	n/a	n/a	n/a	n/a	task-social/cue/runtype-pain/sch/h035.png	n/a	n/a	n/a	n/a	n/a	n/a	n/a	n/a
341.87	1.58	pain	expectrating	11	high_cue	n/a	63.43	Strong	63.43	Strong	0.48	1.1	task-social/cue/runtype-pain/sch/h035.png	n/a	n/a	n/a	n/a	n/a	n/a	n/a	n/a
350.43	12.360000000000014	pain	stimulus	11	high_cue	med_stim	n/a	n/a	n/a	n/a	n/a	n/a	n/a	350.43	354.19	359.19	362.8	success	n/a	n/a	n/a
364.88	3.25	pain	outcomerating	11	high_cue	med_stim	34.78	Strong	34.78	Strong	0.48	1.1	task-social/outcomerating/task-pain_scale.png	n/a	n/a	n/a	n/a	success	n/a	n/a	n/a
370.07	1.0	pain	cue	12	high_cue	n/a	n/a	n/a	n/a	n/a	n/a	n/a	task-social/cue/runtype-pain/sch/h056.png	n/a	n/a	n/a	n/a	n/a	n/a	n/a	n/a
372.79	1.87	pain	expectrating	12	high_cue	n/a	37.19	Strong	37.19	Strong	0.37	1.5	task-social/cue/runtype-pain/sch/h056.png	n/a	n/a	n/a	n/a	n/a	n/a	n/a	n/a
385.52	12.819999999999993	pain	stimulus	12	high_cue	high_stim	n/a	n/a	n/a	n/a	n/a	n/a	n/a	385.52	389.53	394.53	398.34	success	n/a	n/a	n/a
394.98	2.38	pain	outcomerating	12	high_cue	high_stim	46.97	Strong	46.97	Strong	0.37	1.5	task-social/outcomerating/task-pain_scale.png	n/a	n/a	n/a	n/a	success	n/a	n/a	n/a
