onset	duration	subtask_type	question	event_type	participant_response	normative_response	response_accuracy	stim_file	trial_index
0.091	2.017	tomspunt	smiling?	block_question_presentation	n/a	n/a	n/a	n/a	1
5.018	1.62	tomspunt	smiling?	how_face	yes	yes	correct	task-fractional/runtype-tomspunt/F_759.jpg	1
6.952	0.888	tomspunt	smiling?	how_face	no	no	correct	task-fractional/runtype-tomspunt/F_412.jpg	2
8.153	0.787	tomspunt	smiling?	how_face	yes	yes	correct	task-fractional/runtype-tomspunt/F_593.jpg	3
9.253	0.87	tomspunt	smiling?	how_face	no	no	correct	task-fractional/runtype-tomspunt/F_712.jpg	4
10.437	0.689	tomspunt	smiling?	how_face	yes	yes	correct	task-fractional/runtype-tomspunt/F_695.jpg	5
11.437	0.786	tomspunt	smiling?	how_face	yes	yes	correct	task-fractional/runtype-tomspunt/F_139.jpg	6
12.538	0.586	tomspunt	smiling?	how_face	yes	yes	correct	task-fractional/runtype-tomspunt/F_083.jpg	7
13.438	0.786	tomspunt	smiling?	how_face	no	no	correct	task-fractional/runtype-tomspunt/F_758.jpg	8
19.115	2.101	tomspunt	admiring?	block_question_presentation	n/a	n/a	n/a	n/a	9
24.125	1.103	tomspunt	admiring?	why_face	yes	yes	correct	task-fractional/runtype-tomspunt/F_593.jpg	9
25.543	1.402	tomspunt	admiring?	why_face	no	no	correct	task-fractional/runtype-tomspunt/F_129.jpg	10
27.26	0.964	tomspunt	admiring?	why_face	yes	yes	correct	task-fractional/runtype-tomspunt/F_759.jpg	11
28.527	1.152	tomspunt	admiring?	why_face	yes	no	incorrect	task-fractional/runtype-tomspunt/F_692.jpg	12
29.994	0.718	tomspunt	admiring?	why_face	yes	yes	correct	task-fractional/runtype-tomspunt/F_779.jpg	13
31.028	0.595	tomspunt	admiring?	why_face	yes	yes	correct	task-fractional/runtype-tomspunt/F_590.jpg	14
31.928	0.685	tomspunt	admiring?	why_face	yes	yes	correct	task-fractional/runtype-tomspunt/F_648.jpg	15
32.929	1.011	tomspunt	admiring?	why_face	no	no	correct	task-fractional/runtype-tomspunt/F_110.jpg	16
38.172	2.101	tomspunt	competing?	block_question_presentation	n/a	n/a	n/a	n/a	17
43.183	0.851	tomspunt	competing?	why_hand	yes	yes	correct	task-fractional/runtype-tomspunt/H_261.jpg	17
44.35	0.835	tomspunt	competing?	why_hand	yes	yes	correct	task-fractional/runtype-tomspunt/H_170.jpg	18
45.5	0.973	tomspunt	competing?	why_hand	no	no	correct	task-fractional/runtype-tomspunt/H_483.jpg	19
46.784	0.823	tomspunt	competing?	why_hand	yes	yes	correct	task-fractional/runtype-tomspunt/H_132.jpg	20
47.918	1.139	tomspunt	competing?	why_hand	yes	yes	correct	task-fractional/runtype-tomspunt/H_136.jpg	21
49.368	0.835	tomspunt	competing?	why_hand	yes	yes	correct	task-fractional/runtype-tomspunt/H_003.jpg	22
50.519	0.888	tomspunt	competing?	why_hand	no	no	correct	task-fractional/runtype-tomspunt/H_126.jpg	23
51.719	1.271	tomspunt	competing?	why_hand	no	no	correct	task-fractional/runtype-tomspunt/H_502.jpg	24
60.663	2.084	tomspunt	reaching?	block_question_presentation	n/a	n/a	n/a	n/a	25
65.674	0.702	tomspunt	reaching?	how_hand	yes	yes	correct	task-fractional/runtype-tomspunt/H_003.jpg	25
66.691	0.819	tomspunt	reaching?	how_hand	yes	yes	correct	task-fractional/runtype-tomspunt/H_364.jpg	26
67.825	0.815	tomspunt	reaching?	how_hand	no	no	correct	task-fractional/runtype-tomspunt/H_532.jpg	27
68.942	0.801	tomspunt	reaching?	how_hand	yes	yes	correct	task-fractional/runtype-tomspunt/H_006.jpg	28
70.059	1.151	tomspunt	reaching?	how_hand	no	no	correct	task-fractional/runtype-tomspunt/H_438.jpg	29
71.526	0.663	tomspunt	reaching?	how_hand	yes	yes	correct	task-fractional/runtype-tomspunt/H_007.jpg	30
72.493	1.865	tomspunt	reaching?	how_hand	no	yes	incorrect	task-fractional/runtype-tomspunt/H_474.jpg	31
74.528	0.018	tomspunt	reaching?	how_hand	no	no	correct	task-fractional/runtype-tomspunt/H_132.jpg	32
79.771	2.101	tomspunt	open mouth?	block_question_presentation	n/a	n/a	n/a	n/a	33
84.781	0.651	tomspunt	open mouth?	how_face	yes	yes	correct	task-fractional/runtype-tomspunt/F_403.jpg	33
85.748	0.742	tomspunt	open mouth?	how_face	no	no	correct	task-fractional/runtype-tomspunt/F_648.jpg	34
86.799	0.557	tomspunt	open mouth?	how_face	yes	yes	correct	task-fractional/runtype-tomspunt/F_776.jpg	35
87.666	0.657	tomspunt	open mouth?	how_face	no	no	correct	task-fractional/runtype-tomspunt/F_584.jpg	36
88.633	0.54	tomspunt	open mouth?	how_face	yes	yes	correct	task-fractional/runtype-tomspunt/F_844.jpg	37
89.483	0.657	tomspunt	open mouth?	how_face	yes	yes	correct	task-fractional/runtype-tomspunt/F_692.jpg	38
90.45	0.539	tomspunt	open mouth?	how_face	yes	yes	correct	task-fractional/runtype-tomspunt/F_086.jpg	39
91.301	0.756	tomspunt	open mouth?	how_face	no	no	correct	task-fractional/runtype-tomspunt/F_544.jpg	40
101.245	2.101	tomspunt	argument?	block_question_presentation	n/a	n/a	n/a	n/a	41
106.256	0.601	tomspunt	argument?	why_face	yes	yes	correct	task-fractional/runtype-tomspunt/F_403.jpg	41
107.173	0.719	tomspunt	argument?	why_face	no	no	correct	task-fractional/runtype-tomspunt/F_844.jpg	42
108.207	0.685	tomspunt	argument?	why_face	yes	yes	correct	task-fractional/runtype-tomspunt/F_712.jpg	43
109.207	0.683	tomspunt	argument?	why_face	yes	yes	correct	task-fractional/runtype-tomspunt/F_758.jpg	44
110.191	1.068	tomspunt	argument?	why_face	yes	no	incorrect	task-fractional/runtype-tomspunt/F_433.jpg	45
111.575	0.685	tomspunt	argument?	why_face	yes	yes	correct	task-fractional/runtype-tomspunt/F_716.jpg	46
112.575	1.001	tomspunt	argument?	why_face	no	no	correct	task-fractional/runtype-tomspunt/F_139.jpg	47
113.892	0.652	tomspunt	argument?	why_face	yes	yes	correct	task-fractional/runtype-tomspunt/F_743.jpg	48
123.72	2.101	tomspunt	helping?	block_question_presentation	n/a	n/a	n/a	n/a	49
128.731	1.142	tomspunt	helping?	why_hand	yes	yes	correct	task-fractional/runtype-tomspunt/H_024.jpg	49
130.182	0.775	tomspunt	helping?	why_hand	yes	yes	correct	task-fractional/runtype-tomspunt/H_349.jpg	50
131.265	0.735	tomspunt	helping?	why_hand	yes	yes	correct	task-fractional/runtype-tomspunt/H_077.jpg	51
132.316	0.758	tomspunt	helping?	why_hand	yes	yes	correct	task-fractional/runtype-tomspunt/H_474.jpg	52
133.383	1.069	tomspunt	helping?	why_hand	no	no	correct	task-fractional/runtype-tomspunt/H_091.jpg	53
134.767	1.04	tomspunt	helping?	why_hand	no	no	correct	task-fractional/runtype-tomspunt/H_159.jpg	54
136.117	0.952	tomspunt	helping?	why_hand	yes	yes	correct	task-fractional/runtype-tomspunt/H_111.jpg	55
137.384	0.839	tomspunt	helping?	why_hand	no	no	correct	task-fractional/runtype-tomspunt/H_012.jpg	56
141.26	2.101	tomspunt	both hands?	block_question_presentation	n/a	n/a	n/a	n/a	57
146.271	0.752	tomspunt	both hands?	how_hand	yes	yes	correct	task-fractional/runtype-tomspunt/H_111.jpg	57
147.338	0.752	tomspunt	both hands?	how_hand	yes	yes	correct	task-fractional/runtype-tomspunt/H_027.jpg	58
148.405	0.718	tomspunt	both hands?	how_hand	no	no	correct	task-fractional/runtype-tomspunt/H_091.jpg	59
149.439	0.919	tomspunt	both hands?	how_hand	yes	yes	correct	task-fractional/runtype-tomspunt/H_167.jpg	60
150.673	0.902	tomspunt	both hands?	how_hand	yes	yes	correct	task-fractional/runtype-tomspunt/H_581.jpg	61
151.89	0.836	tomspunt	both hands?	how_hand	no	no	correct	task-fractional/runtype-tomspunt/H_159.jpg	62
153.04	0.635	tomspunt	both hands?	how_hand	yes	yes	correct	task-fractional/runtype-tomspunt/H_349.jpg	63
153.991	1.386	tomspunt	both hands?	how_hand	no	no	correct	task-fractional/runtype-tomspunt/H_627.jpg	64
158.783	2.101	tomspunt	healthy?	block_question_presentation	n/a	n/a	n/a	n/a	65
163.794	0.962	tomspunt	healthy?	why_hand	yes	yes	correct	task-fractional/runtype-tomspunt/H_438.jpg	65
165.061	1.569	tomspunt	healthy?	why_hand	yes	yes	correct	task-fractional/runtype-tomspunt/H_364.jpg	66
166.945	1.278	tomspunt	healthy?	why_hand	yes	yes	correct	task-fractional/runtype-tomspunt/H_362.jpg	67
168.529	0.694	tomspunt	healthy?	why_hand	no	no	correct	task-fractional/runtype-tomspunt/H_019.jpg	68
169.53	0.685	tomspunt	healthy?	why_hand	yes	yes	correct	task-fractional/runtype-tomspunt/H_167.jpg	69
170.53	0.81	tomspunt	healthy?	why_hand	no	no	correct	task-fractional/runtype-tomspunt/H_007.jpg	70
171.647	0.893	tomspunt	healthy?	why_hand	yes	yes	correct	task-fractional/runtype-tomspunt/H_627.jpg	71
172.848	0.809	tomspunt	healthy?	why_hand	no	no	correct	task-fractional/runtype-tomspunt/H_130.jpg	72
177.457	2.101	tomspunt	pressing button?	block_question_presentation	n/a	n/a	n/a	n/a	73
182.468	0.622	tomspunt	pressing button?	how_hand	yes	yes	correct	task-fractional/runtype-tomspunt/H_126.jpg	73
183.402	0.852	tomspunt	pressing button?	how_hand	no	no	correct	task-fractional/runtype-tomspunt/H_130.jpg	74
184.569	0.654	tomspunt	pressing button?	how_hand	yes	yes	correct	task-fractional/runtype-tomspunt/H_483.jpg	75
185.536	0.702	tomspunt	pressing button?	how_hand	no	no	correct	task-fractional/runtype-tomspunt/H_024.jpg	76
186.553	0.635	tomspunt	pressing button?	how_hand	yes	yes	correct	task-fractional/runtype-tomspunt/H_332.jpg	77
187.503	0.721	tomspunt	pressing button?	how_hand	yes	yes	correct	task-fractional/runtype-tomspunt/H_019.jpg	78
188.537	0.753	tomspunt	pressing button?	how_hand	no	no	correct	task-fractional/runtype-tomspunt/H_261.jpg	79
189.604	0.586	tomspunt	pressing button?	how_hand	yes	yes	correct	task-fractional/runtype-tomspunt/H_502.jpg	80
198.948	2.101	tomspunt	looking at camera?	block_question_presentation	n/a	n/a	n/a	n/a	81
203.959	0.635	tomspunt	looking at camera?	how_face	yes	yes	correct	task-fractional/runtype-tomspunt/F_618.jpg	81
204.91	0.713	tomspunt	looking at camera?	how_face	no	no	correct	task-fractional/runtype-tomspunt/F_754.jpg	82
205.927	0.597	tomspunt	looking at camera?	how_face	yes	yes	correct	task-fractional/runtype-tomspunt/F_129.jpg	83
206.827	0.647	tomspunt	looking at camera?	how_face	yes	yes	correct	task-fractional/runtype-tomspunt/F_598.jpg	84
207.777	0.546	tomspunt	looking at camera?	how_face	yes	yes	correct	task-fractional/runtype-tomspunt/F_128.jpg	85
208.628	0.846	tomspunt	looking at camera?	how_face	no	no	correct	task-fractional/runtype-tomspunt/F_582.jpg	86
209.778	0.618	tomspunt	looking at camera?	how_face	yes	yes	correct	task-fractional/runtype-tomspunt/F_774.jpg	87
210.712	0.851	tomspunt	looking at camera?	how_face	no	no	correct	task-fractional/runtype-tomspunt/F_743.jpg	88
217.739	2.101	tomspunt	self-doubt?	block_question_presentation	n/a	n/a	n/a	n/a	89
222.75	0.69	tomspunt	self-doubt?	why_face	yes	yes	correct	task-fractional/runtype-tomspunt/F_798.jpg	89
223.75	0.835	tomspunt	self-doubt?	why_face	yes	no	incorrect	task-fractional/runtype-tomspunt/F_086.jpg	90
224.9	0.756	tomspunt	self-doubt?	why_face	yes	yes	correct	task-fractional/runtype-tomspunt/F_544.jpg	91
225.967	0.835	tomspunt	self-doubt?	why_face	yes	yes	correct	task-fractional/runtype-tomspunt/F_754.jpg	92
227.118	0.622	tomspunt	self-doubt?	why_face	yes	yes	correct	task-fractional/runtype-tomspunt/F_111.jpg	93
228.052	0.805	tomspunt	self-doubt?	why_face	yes	yes	correct	task-fractional/runtype-tomspunt/F_584.jpg	94
229.169	0.704	tomspunt	self-doubt?	why_face	no	no	correct	task-fractional/runtype-tomspunt/F_128.jpg	95
230.186	1.021	tomspunt	self-doubt?	why_face	no	no	correct	task-fractional/runtype-tomspunt/F_774.jpg	96
235.262	2.101	tomspunt	self-protection?	block_question_presentation	n/a	n/a	n/a	n/a	97
240.273	0.902	tomspunt	self-protection?	why_hand	yes	yes	correct	task-fractional/runtype-tomspunt/H_581.jpg	97
241.49	0.885	tomspunt	self-protection?	why_hand	yes	yes	correct	task-fractional/runtype-tomspunt/H_443.jpg	98
242.69	0.701	tomspunt	self-protection?	why_hand	no	no	correct	task-fractional/runtype-tomspunt/H_332.jpg	99
243.707	0.919	tomspunt	self-protection?	why_hand	yes	yes	correct	task-fractional/runtype-tomspunt/H_027.jpg	100
244.941	0.902	tomspunt	self-protection?	why_hand	no	no	correct	task-fractional/runtype-tomspunt/H_532.jpg	101
246.158	1.018	tomspunt	self-protection?	why_hand	yes	yes	correct	task-fractional/runtype-tomspunt/H_189.jpg	102
247.492	1.098	tomspunt	self-protection?	why_hand	no	no	correct	task-fractional/runtype-tomspunt/H_006.jpg	103
248.893	1.085	tomspunt	self-protection?	why_hand	yes	yes	correct	task-fractional/runtype-tomspunt/H_038.jpg	104
253.135	2.101	tomspunt	lifting?	block_question_presentation	n/a	n/a	n/a	n/a	105
258.146	0.885	tomspunt	lifting?	how_hand	yes	yes	correct	task-fractional/runtype-tomspunt/H_443.jpg	105
259.347	0.91	tomspunt	lifting?	how_hand	no	no	correct	task-fractional/runtype-tomspunt/H_038.jpg	106
260.564	0.885	tomspunt	lifting?	how_hand	yes	yes	correct	task-fractional/runtype-tomspunt/H_136.jpg	107
261.764	0.769	tomspunt	lifting?	how_hand	no	no	correct	task-fractional/runtype-tomspunt/H_012.jpg	108
262.848	0.585	tomspunt	lifting?	how_hand	yes	yes	correct	task-fractional/runtype-tomspunt/H_362.jpg	109
263.748	0.975	tomspunt	lifting?	how_hand	yes	yes	correct	task-fractional/runtype-tomspunt/H_189.jpg	110
265.032	0.758	tomspunt	lifting?	how_hand	yes	yes	correct	task-fractional/runtype-tomspunt/H_170.jpg	111
266.099	0.874	tomspunt	lifting?	how_hand	no	no	correct	task-fractional/runtype-tomspunt/H_077.jpg	112
271.009	2.101	tomspunt	looking to side?	block_question_presentation	n/a	n/a	n/a	n/a	113
276.019	0.771	tomspunt	looking to side?	how_face	yes	yes	correct	task-fractional/runtype-tomspunt/F_716.jpg	113
277.103	0.786	tomspunt	looking to side?	how_face	no	no	correct	task-fractional/runtype-tomspunt/F_798.jpg	114
278.204	0.82	tomspunt	looking to side?	how_face	yes	yes	correct	task-fractional/runtype-tomspunt/F_760.jpg	115
279.337	0.786	tomspunt	looking to side?	how_face	yes	yes	correct	task-fractional/runtype-tomspunt/F_110.jpg	116
280.438	0.802	tomspunt	looking to side?	how_face	yes	no	incorrect	task-fractional/runtype-tomspunt/F_779.jpg	117
281.555	0.602	tomspunt	looking to side?	how_face	yes	yes	correct	task-fractional/runtype-tomspunt/F_590.jpg	118
282.472	0.802	tomspunt	looking to side?	how_face	no	no	correct	task-fractional/runtype-tomspunt/F_111.jpg	119
283.589	0.618	tomspunt	looking to side?	how_face	yes	yes	correct	task-fractional/runtype-tomspunt/F_433.jpg	120
288.548	2.101	tomspunt	proud?	block_question_presentation	n/a	n/a	n/a	n/a	121
293.559	1.035	tomspunt	proud?	why_face	yes	yes	correct	task-fractional/runtype-tomspunt/F_083.jpg	121
294.91	0.568	tomspunt	proud?	why_face	yes	yes	correct	task-fractional/runtype-tomspunt/F_582.jpg	122
295.793	0.713	tomspunt	proud?	why_face	yes	yes	correct	task-fractional/runtype-tomspunt/F_618.jpg	123
296.81	0.93	tomspunt	proud?	why_face	no	no	correct	task-fractional/runtype-tomspunt/F_776.jpg	124
298.044	0.695	tomspunt	proud?	why_face	yes	yes	correct	task-fractional/runtype-tomspunt/F_598.jpg	125
299.045	0.918	tomspunt	proud?	why_face	no	no	correct	task-fractional/runtype-tomspunt/F_760.jpg	126
300.278	0.768	tomspunt	proud?	why_face	no	no	correct	task-fractional/runtype-tomspunt/F_412.jpg	127
301.362	0.627	tomspunt	proud?	why_face	yes	yes	correct	task-fractional/runtype-tomspunt/F_695.jpg	128
306.338	2.101	tomspunt	smiling?	block_question_presentation	n/a	n/a	n/a	n/a	129
311.349	0.84	tomspunt	smiling?	how_face	yes	yes	correct	task-fractional/runtype-tomspunt/F_695.jpg	129
312.5	0.801	tomspunt	smiling?	how_face	no	no	correct	task-fractional/runtype-tomspunt/F_412.jpg	130
313.617	0.606	tomspunt	smiling?	how_face	yes	yes	correct	task-fractional/runtype-tomspunt/F_593.jpg	131
314.534	0.673	tomspunt	smiling?	how_face	yes	yes	correct	task-fractional/runtype-tomspunt/F_139.jpg	132
315.517	0.556	tomspunt	smiling?	how_face	no	no	correct	task-fractional/runtype-tomspunt/F_712.jpg	133
316.384	0.469	tomspunt	smiling?	how_face	yes	yes	correct	task-fractional/runtype-tomspunt/F_759.jpg	134
317.168	0.922	tomspunt	smiling?	how_face	no	no	correct	task-fractional/runtype-tomspunt/F_758.jpg	135
318.402	0.538	tomspunt	smiling?	how_face	yes	yes	correct	task-fractional/runtype-tomspunt/F_083.jpg	136
325.379	2.101	tomspunt	admiring?	block_question_presentation	n/a	n/a	n/a	n/a	137
330.39	0.835	tomspunt	admiring?	why_face	yes	yes	correct	task-fractional/runtype-tomspunt/F_779.jpg	137
331.54	0.983	tomspunt	admiring?	why_face	no	no	correct	task-fractional/runtype-tomspunt/F_110.jpg	138
332.824	0.518	tomspunt	admiring?	why_face	yes	yes	correct	task-fractional/runtype-tomspunt/F_590.jpg	139
333.658	0.601	tomspunt	admiring?	why_face	yes	yes	correct	task-fractional/runtype-tomspunt/F_648.jpg	140
334.575	0.518	tomspunt	admiring?	why_face	yes	yes	correct	task-fractional/runtype-tomspunt/F_759.jpg	141
335.408	0.668	tomspunt	admiring?	why_face	no	no	correct	task-fractional/runtype-tomspunt/F_129.jpg	142
336.392	0.601	tomspunt	admiring?	why_face	yes	yes	correct	task-fractional/runtype-tomspunt/F_593.jpg	143
337.309	0.935	tomspunt	admiring?	why_face	yes	no	incorrect	task-fractional/runtype-tomspunt/F_692.jpg	144
343.452	2.101	tomspunt	healthy?	block_question_presentation	n/a	n/a	n/a	n/a	145
348.463	0.827	tomspunt	healthy?	why_hand	yes	yes	correct	task-fractional/runtype-tomspunt/H_364.jpg	145
349.597	1.144	tomspunt	healthy?	why_hand	no	no	correct	task-fractional/runtype-tomspunt/H_007.jpg	146
351.047	0.826	tomspunt	healthy?	why_hand	yes	yes	correct	task-fractional/runtype-tomspunt/H_167.jpg	147
352.181	0.802	tomspunt	healthy?	why_hand	no	no	correct	task-fractional/runtype-tomspunt/H_130.jpg	148
353.298	0.542	tomspunt	healthy?	why_hand	yes	yes	correct	task-fractional/runtype-tomspunt/H_438.jpg	149
354.149	0.651	tomspunt	healthy?	why_hand	no	no	correct	task-fractional/runtype-tomspunt/H_019.jpg	150
355.116	0.557	tomspunt	healthy?	why_hand	yes	yes	correct	task-fractional/runtype-tomspunt/H_362.jpg	151
355.983	1.018	tomspunt	healthy?	why_hand	yes	yes	correct	task-fractional/runtype-tomspunt/H_627.jpg	152
360.975	2.101	tomspunt	pressing button?	block_question_presentation	n/a	n/a	n/a	n/a	153
365.986	0.621	tomspunt	pressing button?	how_hand	yes	yes	correct	task-fractional/runtype-tomspunt/H_126.jpg	153
366.92	0.587	tomspunt	pressing button?	how_hand	yes	yes	correct	task-fractional/runtype-tomspunt/H_332.jpg	154
367.82	1.019	tomspunt	pressing button?	how_hand	no	no	correct	task-fractional/runtype-tomspunt/H_261.jpg	155
369.154	1.119	tomspunt	pressing button?	how_hand	no	no	correct	task-fractional/runtype-tomspunt/H_024.jpg	156
370.588	0.686	tomspunt	pressing button?	how_hand	yes	yes	correct	task-fractional/runtype-tomspunt/H_502.jpg	157
371.588	1.002	tomspunt	pressing button?	how_hand	no	no	correct	task-fractional/runtype-tomspunt/H_130.jpg	158
372.906	0.819	tomspunt	pressing button?	how_hand	yes	yes	correct	task-fractional/runtype-tomspunt/H_019.jpg	159
374.039	0.718	tomspunt	pressing button?	how_hand	yes	yes	correct	task-fractional/runtype-tomspunt/H_483.jpg	160
378.865	2.101	tomspunt	looking to side?	block_question_presentation	n/a	n/a	n/a	n/a	161
383.876	0.801	tomspunt	looking to side?	how_face	yes	yes	correct	task-fractional/runtype-tomspunt/F_590.jpg	161
384.993	0.935	tomspunt	looking to side?	how_face	yes	yes	correct	task-fractional/runtype-tomspunt/F_110.jpg	162
386.244	0.618	tomspunt	looking to side?	how_face	yes	yes	correct	task-fractional/runtype-tomspunt/F_760.jpg	163
387.178	0.685	tomspunt	looking to side?	how_face	yes	no	incorrect	task-fractional/runtype-tomspunt/F_779.jpg	164
388.178	0.596	tomspunt	looking to side?	how_face	yes	yes	correct	task-fractional/runtype-tomspunt/F_433.jpg	165
389.078	0.585	tomspunt	looking to side?	how_face	yes	no	incorrect	task-fractional/runtype-tomspunt/F_798.jpg	166
389.979	1.218	tomspunt	looking to side?	how_face	yes	yes	correct	task-fractional/runtype-tomspunt/F_716.jpg	167
391.512	0.919	tomspunt	looking to side?	how_face	no	no	correct	task-fractional/runtype-tomspunt/F_111.jpg	168
396.705	2.101	tomspunt	argument?	block_question_presentation	n/a	n/a	n/a	n/a	169
401.716	0.657	tomspunt	argument?	why_face	yes	yes	correct	task-fractional/runtype-tomspunt/F_403.jpg	169
402.683	0.873	tomspunt	argument?	why_face	no	no	correct	task-fractional/runtype-tomspunt/F_139.jpg	170
403.867	1.424	tomspunt	argument?	why_face	yes	yes	correct	task-fractional/runtype-tomspunt/F_743.jpg	171
405.601	1.022	tomspunt	argument?	why_face	yes	no	incorrect	task-fractional/runtype-tomspunt/F_433.jpg	172
406.935	0.705	tomspunt	argument?	why_face	yes	yes	correct	task-fractional/runtype-tomspunt/F_716.jpg	173
407.952	0.788	tomspunt	argument?	why_face	yes	yes	correct	task-fractional/runtype-tomspunt/F_758.jpg	174
409.052	0.718	tomspunt	argument?	why_face	no	no	correct	task-fractional/runtype-tomspunt/F_844.jpg	175
410.086	0.854	tomspunt	argument?	why_face	yes	yes	correct	task-fractional/runtype-tomspunt/F_712.jpg	176
414.545	2.101	tomspunt	self-protection?	block_question_presentation	n/a	n/a	n/a	n/a	177
419.556	1.051	tomspunt	self-protection?	why_hand	yes	yes	correct	task-fractional/runtype-tomspunt/H_189.jpg	177
420.923	0.551	tomspunt	self-protection?	why_hand	yes	yes	correct	task-fractional/runtype-tomspunt/H_038.jpg	178
421.79	0.602	tomspunt	self-protection?	why_hand	yes	yes	correct	task-fractional/runtype-tomspunt/H_581.jpg	179
422.707	0.568	tomspunt	self-protection?	why_hand	yes	no	incorrect	task-fractional/runtype-tomspunt/H_006.jpg	180
423.591	0.652	tomspunt	self-protection?	why_hand	yes	yes	correct	task-fractional/runtype-tomspunt/H_027.jpg	181
424.558	0.685	tomspunt	self-protection?	why_hand	yes	no	incorrect	task-fractional/runtype-tomspunt/H_332.jpg	182
425.558	0.968	tomspunt	self-protection?	why_hand	yes	yes	correct	task-fractional/runtype-tomspunt/H_443.jpg	183
426.842	0.819	tomspunt	self-protection?	why_hand	no	no	correct	task-fractional/runtype-tomspunt/H_532.jpg	184
432.069	2.084	tomspunt	both hands?	block_question_presentation	n/a	n/a	n/a	n/a	185
437.063	0.685	tomspunt	both hands?	how_hand	yes	yes	correct	task-fractional/runtype-tomspunt/H_581.jpg	185
438.063	0.601	tomspunt	both hands?	how_hand	yes	yes	correct	task-fractional/runtype-tomspunt/H_349.jpg	186
438.98	0.693	tomspunt	both hands?	how_hand	no	no	correct	task-fractional/runtype-tomspunt/H_159.jpg	187
439.981	0.693	tomspunt	both hands?	how_hand	yes	yes	correct	task-fractional/runtype-tomspunt/H_111.jpg	188
440.981	1.352	tomspunt	both hands?	how_hand	no	no	correct	task-fractional/runtype-tomspunt/H_627.jpg	189
442.648	1.152	tomspunt	both hands?	how_hand	yes	yes	correct	task-fractional/runtype-tomspunt/H_167.jpg	190
444.115	1.042	tomspunt	both hands?	how_hand	yes	yes	correct	task-fractional/runtype-tomspunt/H_027.jpg	191
445.466	1.308	tomspunt	both hands?	how_hand	no	no	correct	task-fractional/runtype-tomspunt/H_091.jpg	192
449.859	2.084	tomspunt	competing?	block_question_presentation	n/a	n/a	n/a	n/a	193
454.853	0.754	tomspunt	competing?	why_hand	yes	yes	correct	task-fractional/runtype-tomspunt/H_170.jpg	193
455.92	0.552	tomspunt	competing?	why_hand	yes	yes	correct	task-fractional/runtype-tomspunt/H_132.jpg	194
456.787	0.904	tomspunt	competing?	why_hand	no	no	correct	task-fractional/runtype-tomspunt/H_126.jpg	195
458.004	0.752	tomspunt	competing?	why_hand	yes	yes	correct	task-fractional/runtype-tomspunt/H_003.jpg	196
459.071	1.069	tomspunt	competing?	why_hand	no	no	correct	task-fractional/runtype-tomspunt/H_502.jpg	197
460.455	1.052	tomspunt	competing?	why_hand	yes	yes	correct	task-fractional/runtype-tomspunt/H_136.jpg	198
461.822	n/a	tomspunt	competing?	why_hand	n/a	no	incorrect	task-fractional/runtype-tomspunt/H_483.jpg	199
463.856	n/a	tomspunt	competing?	why_hand	n/a	yes	incorrect	task-fractional/runtype-tomspunt/H_261.jpg	200
467.749	2.084	tomspunt	lifting?	block_question_presentation	n/a	n/a	n/a	n/a	201
472.743	0.735	tomspunt	lifting?	how_hand	yes	yes	correct	task-fractional/runtype-tomspunt/H_362.jpg	201
473.793	0.768	tomspunt	lifting?	how_hand	no	no	correct	task-fractional/runtype-tomspunt/H_012.jpg	202
474.877	0.652	tomspunt	lifting?	how_hand	yes	yes	correct	task-fractional/runtype-tomspunt/H_136.jpg	203
475.844	0.935	tomspunt	lifting?	how_hand	yes	yes	correct	task-fractional/runtype-tomspunt/H_189.jpg	204
477.094	1.001	tomspunt	lifting?	how_hand	yes	yes	correct	task-fractional/runtype-tomspunt/H_170.jpg	205
478.412	1.052	tomspunt	lifting?	how_hand	yes	no	incorrect	task-fractional/runtype-tomspunt/H_077.jpg	206
479.779	n/a	tomspunt	lifting?	how_hand	n/a	yes	incorrect	task-fractional/runtype-tomspunt/H_443.jpg	207
481.813	0.977	tomspunt	lifting?	how_hand	no	no	correct	task-fractional/runtype-tomspunt/H_038.jpg	208
485.805	2.101	tomspunt	open mouth?	block_question_presentation	n/a	n/a	n/a	n/a	209
490.816	0.424	tomspunt	open mouth?	how_face	yes	yes	correct	task-fractional/runtype-tomspunt/F_403.jpg	209
491.55	0.585	tomspunt	open mouth?	how_face	yes	yes	correct	task-fractional/runtype-tomspunt/F_086.jpg	210
492.45	0.519	tomspunt	open mouth?	how_face	yes	yes	correct	task-fractional/runtype-tomspunt/F_844.jpg	211
493.284	0.651	tomspunt	open mouth?	how_face	no	no	correct	task-fractional/runtype-tomspunt/F_544.jpg	212
494.251	0.518	tomspunt	open mouth?	how_face	yes	yes	correct	task-fractional/runtype-tomspunt/F_776.jpg	213
495.084	0.705	tomspunt	open mouth?	how_face	no	no	correct	task-fractional/runtype-tomspunt/F_648.jpg	214
496.101	0.522	tomspunt	open mouth?	how_face	yes	yes	correct	task-fractional/runtype-tomspunt/F_692.jpg	215
496.935	0.905	tomspunt	open mouth?	how_face	no	no	correct	task-fractional/runtype-tomspunt/F_584.jpg	216
504.029	2.101	tomspunt	proud?	block_question_presentation	n/a	n/a	n/a	n/a	217
509.04	n/a	tomspunt	proud?	why_face	n/a	yes	incorrect	task-fractional/runtype-tomspunt/F_582.jpg	217
511.074	0.902	tomspunt	proud?	why_face	yes	no	incorrect	task-fractional/runtype-tomspunt/F_776.jpg	218
512.291	0.652	tomspunt	proud?	why_face	yes	yes	correct	task-fractional/runtype-tomspunt/F_598.jpg	219
513.258	0.785	tomspunt	proud?	why_face	no	no	correct	task-fractional/runtype-tomspunt/F_412.jpg	220
514.358	0.702	tomspunt	proud?	why_face	yes	yes	correct	task-fractional/runtype-tomspunt/F_618.jpg	221
515.375	0.785	tomspunt	proud?	why_face	yes	yes	correct	task-fractional/runtype-tomspunt/F_083.jpg	222
516.476	0.869	tomspunt	proud?	why_face	yes	yes	correct	task-fractional/runtype-tomspunt/F_695.jpg	223
517.66	0.747	tomspunt	proud?	why_face	no	no	correct	task-fractional/runtype-tomspunt/F_760.jpg	224
523.003	2.084	tomspunt	helping?	block_question_presentation	n/a	n/a	n/a	n/a	225
527.997	0.785	tomspunt	helping?	why_hand	yes	yes	correct	task-fractional/runtype-tomspunt/H_024.jpg	225
529.097	0.793	tomspunt	helping?	why_hand	yes	yes	correct	task-fractional/runtype-tomspunt/H_474.jpg	226
530.198	0.568	tomspunt	helping?	why_hand	yes	yes	correct	task-fractional/runtype-tomspunt/H_349.jpg	227
531.081	0.892	tomspunt	helping?	why_hand	no	no	correct	task-fractional/runtype-tomspunt/H_091.jpg	228
532.282	1.002	tomspunt	helping?	why_hand	no	no	correct	task-fractional/runtype-tomspunt/H_012.jpg	229
533.599	1.008	tomspunt	helping?	why_hand	yes	yes	correct	task-fractional/runtype-tomspunt/H_077.jpg	230
534.916	1.041	tomspunt	helping?	why_hand	no	no	correct	task-fractional/runtype-tomspunt/H_159.jpg	231
536.266	0.818	tomspunt	helping?	why_hand	yes	yes	correct	task-fractional/runtype-tomspunt/H_111.jpg	232
541.209	2.101	tomspunt	reaching?	block_question_presentation	n/a	n/a	n/a	n/a	233
546.22	n/a	tomspunt	reaching?	how_hand	n/a	yes	incorrect	task-fractional/runtype-tomspunt/H_474.jpg	233
548.254	1.353	tomspunt	reaching?	how_hand	yes	yes	correct	task-fractional/runtype-tomspunt/H_003.jpg	234
549.922	1.002	tomspunt	reaching?	how_hand	no	no	correct	task-fractional/runtype-tomspunt/H_132.jpg	235
551.239	0.735	tomspunt	reaching?	how_hand	yes	yes	correct	task-fractional/runtype-tomspunt/H_364.jpg	236
552.289	0.818	tomspunt	reaching?	how_hand	yes	yes	correct	task-fractional/runtype-tomspunt/H_006.jpg	237
553.423	0.852	tomspunt	reaching?	how_hand	no	no	correct	task-fractional/runtype-tomspunt/H_532.jpg	238
554.59	1.151	tomspunt	reaching?	how_hand	no	no	correct	task-fractional/runtype-tomspunt/H_438.jpg	239
556.057	0.65	tomspunt	reaching?	how_hand	yes	yes	correct	task-fractional/runtype-tomspunt/H_007.jpg	240
560.183	2.101	tomspunt	looking at camera?	block_question_presentation	n/a	n/a	n/a	n/a	241
565.194	0.985	tomspunt	looking at camera?	how_face	yes	yes	correct	task-fractional/runtype-tomspunt/F_618.jpg	241
566.494	0.779	tomspunt	looking at camera?	how_face	no	no	correct	task-fractional/runtype-tomspunt/F_743.jpg	242
567.578	0.612	tomspunt	looking at camera?	how_face	yes	yes	correct	task-fractional/runtype-tomspunt/F_598.jpg	243
568.495	0.662	tomspunt	looking at camera?	how_face	yes	yes	correct	task-fractional/runtype-tomspunt/F_774.jpg	244
569.462	0.528	tomspunt	looking at camera?	how_face	yes	yes	correct	task-fractional/runtype-tomspunt/F_129.jpg	245
570.296	0.602	tomspunt	looking at camera?	how_face	yes	yes	correct	task-fractional/runtype-tomspunt/F_128.jpg	246
571.213	0.885	tomspunt	looking at camera?	how_face	no	no	correct	task-fractional/runtype-tomspunt/F_582.jpg	247
572.413	0.81	tomspunt	looking at camera?	how_face	no	no	correct	task-fractional/runtype-tomspunt/F_754.jpg	248
578.973	2.101	tomspunt	self-doubt?	block_question_presentation	n/a	n/a	n/a	n/a	249
583.984	0.739	tomspunt	self-doubt?	why_face	yes	yes	correct	task-fractional/runtype-tomspunt/F_798.jpg	249
585.035	0.855	tomspunt	self-doubt?	why_face	yes	no	incorrect	task-fractional/runtype-tomspunt/F_128.jpg	250
586.202	0.618	tomspunt	self-doubt?	why_face	yes	yes	correct	task-fractional/runtype-tomspunt/F_754.jpg	251
587.135	0.601	tomspunt	self-doubt?	why_face	yes	yes	correct	task-fractional/runtype-tomspunt/F_544.jpg	252
588.052	1.021	tomspunt	self-doubt?	why_face	yes	no	incorrect	task-fractional/runtype-tomspunt/F_086.jpg	253
589.386	0.754	tomspunt	self-doubt?	why_face	yes	yes	correct	task-fractional/runtype-tomspunt/F_111.jpg	254
590.453	1.12	tomspunt	self-doubt?	why_face	no	no	correct	task-fractional/runtype-tomspunt/F_774.jpg	255
591.887	1.186	tomspunt	self-doubt?	why_face	yes	yes	correct	task-fractional/runtype-tomspunt/F_584.jpg	256
