onset	duration	subtask_type	question	event_type	participant_response	normative_response	response_accuracy	stim_file	trial_index
0.093	2.017	tomspunt	reaching?	block_question_presentation	n/a	n/a	n/a	n/a	0
0.093	0.3	tomspunt	reaching?	block_question_presentation	n/a	n/a	n/a	n/a	1
0.093	0.3	tomspunt	reaching?	block_question_presentation	n/a	n/a	n/a	n/a	2
0.093	0.3	tomspunt	reaching?	block_question_presentation	n/a	n/a	n/a	n/a	3
0.093	0.3	tomspunt	reaching?	block_question_presentation	n/a	n/a	n/a	n/a	4
0.093	0.3	tomspunt	reaching?	block_question_presentation	n/a	n/a	n/a	n/a	5
0.093	0.3	tomspunt	reaching?	block_question_presentation	n/a	n/a	n/a	n/a	6
0.093	0.3	tomspunt	reaching?	block_question_presentation	n/a	n/a	n/a	n/a	7
5.02	0.997	tomspunt	reaching?	how_hand	yes	yes	correct	task-tomspunt/H_007.jpg	0
6.321	1.263	tomspunt	reaching?	how_hand	no	no	correct	task-tomspunt/H_532.jpg	1
7.888	1.069	tomspunt	reaching?	how_hand	yes	yes	correct	task-tomspunt/H_474.jpg	2
9.272	1.545	tomspunt	reaching?	how_hand	no	no	correct	task-tomspunt/H_438.jpg	3
11.122	0.921	tomspunt	reaching?	how_hand	yes	yes	correct	task-tomspunt/H_364.jpg	4
12.356	0.86	tomspunt	reaching?	how_hand	yes	yes	correct	task-tomspunt/H_006.jpg	5
13.523	0.869	tomspunt	reaching?	how_hand	yes	yes	correct	task-tomspunt/H_003.jpg	6
14.707	0.935	tomspunt	reaching?	how_hand	no	no	correct	task-tomspunt/H_132.jpg	7
17.549	2.101	tomspunt	healthy?	block_question_presentation	n/a	n/a	n/a	n/a	8
17.549	0.3	tomspunt	healthy?	block_question_presentation	n/a	n/a	n/a	n/a	9
17.549	0.3	tomspunt	healthy?	block_question_presentation	n/a	n/a	n/a	n/a	10
17.549	0.3	tomspunt	healthy?	block_question_presentation	n/a	n/a	n/a	n/a	11
17.549	0.3	tomspunt	healthy?	block_question_presentation	n/a	n/a	n/a	n/a	12
17.549	0.3	tomspunt	healthy?	block_question_presentation	n/a	n/a	n/a	n/a	13
17.549	0.3	tomspunt	healthy?	block_question_presentation	n/a	n/a	n/a	n/a	14
17.549	0.3	tomspunt	healthy?	block_question_presentation	n/a	n/a	n/a	n/a	15
22.56	1.339	tomspunt	healthy?	why_hand	yes	yes	correct	task-tomspunt/H_627.jpg	8
24.211	0.985	tomspunt	healthy?	why_hand	yes	yes	correct	task-tomspunt/H_438.jpg	9
25.511	1.727	tomspunt	healthy?	why_hand	no	yes	incorrect	task-tomspunt/H_364.jpg	10
27.545	1.105	tomspunt	healthy?	why_hand	no	no	correct	task-tomspunt/H_130.jpg	11
28.962	1.154	tomspunt	healthy?	why_hand	yes	yes	correct	task-tomspunt/H_362.jpg	12
30.43	0.92	tomspunt	healthy?	why_hand	no	no	correct	task-tomspunt/H_007.jpg	13
31.663	0.819	tomspunt	healthy?	why_hand	yes	yes	correct	task-tomspunt/H_167.jpg	14
32.797	0.886	tomspunt	healthy?	why_hand	no	no	correct	task-tomspunt/H_019.jpg	15
36.656	2.101	tomspunt	admiring?	block_question_presentation	n/a	n/a	n/a	n/a	16
36.656	0.3	tomspunt	admiring?	block_question_presentation	n/a	n/a	n/a	n/a	17
36.656	0.3	tomspunt	admiring?	block_question_presentation	n/a	n/a	n/a	n/a	18
36.656	0.3	tomspunt	admiring?	block_question_presentation	n/a	n/a	n/a	n/a	19
36.656	0.3	tomspunt	admiring?	block_question_presentation	n/a	n/a	n/a	n/a	20
36.656	0.3	tomspunt	admiring?	block_question_presentation	n/a	n/a	n/a	n/a	21
36.656	0.3	tomspunt	admiring?	block_question_presentation	n/a	n/a	n/a	n/a	22
36.656	0.3	tomspunt	admiring?	block_question_presentation	n/a	n/a	n/a	n/a	23
41.667	0.982	tomspunt	admiring?	why_face	yes	yes	correct	task-tomspunt/F_779.jpg	16
42.951	1.302	tomspunt	admiring?	why_face	yes	yes	correct	task-tomspunt/F_593.jpg	17
44.568	0.769	tomspunt	admiring?	why_face	no	no	correct	task-tomspunt/F_110.jpg	18
45.652	0.901	tomspunt	admiring?	why_face	yes	yes	correct	task-tomspunt/F_590.jpg	19
46.869	0.997	tomspunt	admiring?	why_face	no	no	correct	task-tomspunt/F_692.jpg	20
48.17	1.035	tomspunt	admiring?	why_face	yes	yes	correct	task-tomspunt/F_759.jpg	21
49.52	0.751	tomspunt	admiring?	why_face	yes	yes	correct	task-tomspunt/F_648.jpg	22
50.587	0.729	tomspunt	admiring?	why_face	no	no	correct	task-tomspunt/F_129.jpg	23
55.613	2.101	tomspunt	smiling?	block_question_presentation	n/a	n/a	n/a	n/a	24
55.613	0.3	tomspunt	smiling?	block_question_presentation	n/a	n/a	n/a	n/a	25
55.613	0.3	tomspunt	smiling?	block_question_presentation	n/a	n/a	n/a	n/a	26
55.613	0.3	tomspunt	smiling?	block_question_presentation	n/a	n/a	n/a	n/a	27
55.613	0.3	tomspunt	smiling?	block_question_presentation	n/a	n/a	n/a	n/a	28
55.613	0.3	tomspunt	smiling?	block_question_presentation	n/a	n/a	n/a	n/a	29
55.613	0.3	tomspunt	smiling?	block_question_presentation	n/a	n/a	n/a	n/a	30
55.613	0.3	tomspunt	smiling?	block_question_presentation	n/a	n/a	n/a	n/a	31
60.624	1.158	tomspunt	smiling?	how_face	yes	yes	correct	task-tomspunt/F_139.jpg	24
62.091	0.742	tomspunt	smiling?	how_face	no	no	correct	task-tomspunt/F_712.jpg	25
63.142	1.008	tomspunt	smiling?	how_face	yes	yes	correct	task-tomspunt/F_695.jpg	26
64.459	0.751	tomspunt	smiling?	how_face	no	no	correct	task-tomspunt/F_758.jpg	27
65.526	0.574	tomspunt	smiling?	how_face	yes	yes	correct	task-tomspunt/F_083.jpg	28
66.41	0.657	tomspunt	smiling?	how_face	yes	yes	correct	task-tomspunt/F_759.jpg	29
67.377	0.652	tomspunt	smiling?	how_face	no	no	correct	task-tomspunt/F_412.jpg	30
68.344	0.906	tomspunt	smiling?	how_face	yes	yes	correct	task-tomspunt/F_593.jpg	31
73.153	2.084	tomspunt	lifting?	block_question_presentation	n/a	n/a	n/a	n/a	32
73.153	0.3	tomspunt	lifting?	block_question_presentation	n/a	n/a	n/a	n/a	33
73.153	0.3	tomspunt	lifting?	block_question_presentation	n/a	n/a	n/a	n/a	34
73.153	0.3	tomspunt	lifting?	block_question_presentation	n/a	n/a	n/a	n/a	35
73.153	0.3	tomspunt	lifting?	block_question_presentation	n/a	n/a	n/a	n/a	36
73.153	0.3	tomspunt	lifting?	block_question_presentation	n/a	n/a	n/a	n/a	37
73.153	0.3	tomspunt	lifting?	block_question_presentation	n/a	n/a	n/a	n/a	38
73.153	0.3	tomspunt	lifting?	block_question_presentation	n/a	n/a	n/a	n/a	39
78.164	1.169	tomspunt	lifting?	how_hand	yes	yes	correct	task-tomspunt/H_136.jpg	32
79.648	1.018	tomspunt	lifting?	how_hand	no	no	correct	task-tomspunt/H_038.jpg	33
80.982	1.352	tomspunt	lifting?	how_hand	no	yes	incorrect	task-tomspunt/H_189.jpg	34
82.649	1.335	tomspunt	lifting?	how_hand	no	no	correct	task-tomspunt/H_077.jpg	35
84.3	1.302	tomspunt	lifting?	how_hand	no	yes	incorrect	task-tomspunt/H_443.jpg	36
85.917	1.268	tomspunt	lifting?	how_hand	no	no	correct	task-tomspunt/H_012.jpg	37
87.501	0.702	tomspunt	lifting?	how_hand	yes	yes	correct	task-tomspunt/H_362.jpg	38
88.518	1.319	tomspunt	lifting?	how_hand	yes	yes	correct	task-tomspunt/H_170.jpg	39
95.628	2.101	tomspunt	helping?	block_question_presentation	n/a	n/a	n/a	n/a	40
95.628	0.3	tomspunt	helping?	block_question_presentation	n/a	n/a	n/a	n/a	41
95.628	0.3	tomspunt	helping?	block_question_presentation	n/a	n/a	n/a	n/a	42
95.628	0.3	tomspunt	helping?	block_question_presentation	n/a	n/a	n/a	n/a	43
95.628	0.3	tomspunt	helping?	block_question_presentation	n/a	n/a	n/a	n/a	44
95.628	0.3	tomspunt	helping?	block_question_presentation	n/a	n/a	n/a	n/a	45
95.628	0.3	tomspunt	helping?	block_question_presentation	n/a	n/a	n/a	n/a	46
95.628	0.3	tomspunt	helping?	block_question_presentation	n/a	n/a	n/a	n/a	47
100.639	0.977	tomspunt	helping?	why_hand	yes	yes	correct	task-tomspunt/H_077.jpg	40
101.923	1.311	tomspunt	helping?	why_hand	yes	yes	correct	task-tomspunt/H_349.jpg	41
103.54	1.276	tomspunt	helping?	why_hand	no	yes	incorrect	task-tomspunt/H_474.jpg	42
105.124	1.468	tomspunt	helping?	why_hand	no	yes	incorrect	task-tomspunt/H_024.jpg	43
106.908	1.552	tomspunt	helping?	why_hand	no	no	correct	task-tomspunt/H_012.jpg	44
108.776	1.64	tomspunt	helping?	why_hand	no	no	correct	task-tomspunt/H_159.jpg	45
110.726	1.123	tomspunt	helping?	why_hand	yes	yes	correct	task-tomspunt/H_111.jpg	46
112.16	1.035	tomspunt	helping?	why_hand	no	no	correct	task-tomspunt/H_091.jpg	47
113.502	2.101	tomspunt	proud?	block_question_presentation	n/a	n/a	n/a	n/a	48
113.502	0.3	tomspunt	proud?	block_question_presentation	n/a	n/a	n/a	n/a	49
113.502	0.3	tomspunt	proud?	block_question_presentation	n/a	n/a	n/a	n/a	50
113.502	0.3	tomspunt	proud?	block_question_presentation	n/a	n/a	n/a	n/a	51
113.502	0.3	tomspunt	proud?	block_question_presentation	n/a	n/a	n/a	n/a	52
113.502	0.3	tomspunt	proud?	block_question_presentation	n/a	n/a	n/a	n/a	53
113.502	0.3	tomspunt	proud?	block_question_presentation	n/a	n/a	n/a	n/a	54
113.502	0.3	tomspunt	proud?	block_question_presentation	n/a	n/a	n/a	n/a	55
118.512	n/a	tomspunt	proud?	why_face	n/a	yes	incorrect	task-tomspunt/F_598.jpg	48
120.547	0.837	tomspunt	proud?	why_face	no	no	correct	task-tomspunt/F_760.jpg	49
121.697	0.769	tomspunt	proud?	why_face	yes	yes	correct	task-tomspunt/F_582.jpg	50
122.781	0.702	tomspunt	proud?	why_face	no	no	correct	task-tomspunt/F_412.jpg	51
123.798	0.819	tomspunt	proud?	why_face	yes	yes	correct	task-tomspunt/F_083.jpg	52
124.932	1.085	tomspunt	proud?	why_face	no	no	correct	task-tomspunt/F_776.jpg	53
126.332	1.202	tomspunt	proud?	why_face	yes	yes	correct	task-tomspunt/F_618.jpg	54
127.849	1.168	tomspunt	proud?	why_face	no	yes	incorrect	task-tomspunt/F_695.jpg	55
131.025	2.101	tomspunt	looking to side?	block_question_presentation	n/a	n/a	n/a	n/a	56
131.025	0.3	tomspunt	looking to side?	block_question_presentation	n/a	n/a	n/a	n/a	57
131.025	0.3	tomspunt	looking to side?	block_question_presentation	n/a	n/a	n/a	n/a	58
131.025	0.3	tomspunt	looking to side?	block_question_presentation	n/a	n/a	n/a	n/a	59
131.025	0.3	tomspunt	looking to side?	block_question_presentation	n/a	n/a	n/a	n/a	60
131.025	0.3	tomspunt	looking to side?	block_question_presentation	n/a	n/a	n/a	n/a	61
131.025	0.3	tomspunt	looking to side?	block_question_presentation	n/a	n/a	n/a	n/a	62
131.025	0.3	tomspunt	looking to side?	block_question_presentation	n/a	n/a	n/a	n/a	63
136.036	0.831	tomspunt	looking to side?	how_face	yes	yes	correct	task-tomspunt/F_590.jpg	56
137.169	1.452	tomspunt	looking to side?	how_face	yes	yes	correct	task-tomspunt/F_433.jpg	57
138.937	0.918	tomspunt	looking to side?	how_face	yes	yes	correct	task-tomspunt/F_716.jpg	58
140.171	0.768	tomspunt	looking to side?	how_face	yes	no	incorrect	task-tomspunt/F_779.jpg	59
141.254	0.968	tomspunt	looking to side?	how_face	yes	yes	correct	task-tomspunt/F_760.jpg	60
142.538	0.785	tomspunt	looking to side?	how_face	no	no	correct	task-tomspunt/F_111.jpg	61
143.639	0.978	tomspunt	looking to side?	how_face	no	yes	incorrect	task-tomspunt/F_110.jpg	62
144.922	0.868	tomspunt	looking to side?	how_face	no	no	correct	task-tomspunt/F_798.jpg	63
150.132	2.101	tomspunt	argument?	block_question_presentation	n/a	n/a	n/a	n/a	64
150.132	0.3	tomspunt	argument?	block_question_presentation	n/a	n/a	n/a	n/a	65
150.132	0.3	tomspunt	argument?	block_question_presentation	n/a	n/a	n/a	n/a	66
150.132	0.3	tomspunt	argument?	block_question_presentation	n/a	n/a	n/a	n/a	67
150.132	0.3	tomspunt	argument?	block_question_presentation	n/a	n/a	n/a	n/a	68
150.132	0.3	tomspunt	argument?	block_question_presentation	n/a	n/a	n/a	n/a	69
150.132	0.3	tomspunt	argument?	block_question_presentation	n/a	n/a	n/a	n/a	70
150.132	0.3	tomspunt	argument?	block_question_presentation	n/a	n/a	n/a	n/a	71
155.143	0.718	tomspunt	argument?	why_face	yes	yes	correct	task-tomspunt/F_716.jpg	64
156.177	0.723	tomspunt	argument?	why_face	no	no	correct	task-tomspunt/F_139.jpg	65
157.21	0.789	tomspunt	argument?	why_face	yes	yes	correct	task-tomspunt/F_712.jpg	66
158.311	0.855	tomspunt	argument?	why_face	no	no	correct	task-tomspunt/F_433.jpg	67
159.478	0.772	tomspunt	argument?	why_face	yes	yes	correct	task-tomspunt/F_403.jpg	68
160.562	0.922	tomspunt	argument?	why_face	no	no	correct	task-tomspunt/F_844.jpg	69
161.795	0.704	tomspunt	argument?	why_face	yes	yes	correct	task-tomspunt/F_743.jpg	70
162.812	0.787	tomspunt	argument?	why_face	yes	yes	correct	task-tomspunt/F_758.jpg	71
167.972	2.101	tomspunt	open mouth?	block_question_presentation	n/a	n/a	n/a	n/a	72
167.972	0.3	tomspunt	open mouth?	block_question_presentation	n/a	n/a	n/a	n/a	73
167.972	0.3	tomspunt	open mouth?	block_question_presentation	n/a	n/a	n/a	n/a	74
167.972	0.3	tomspunt	open mouth?	block_question_presentation	n/a	n/a	n/a	n/a	75
167.972	0.3	tomspunt	open mouth?	block_question_presentation	n/a	n/a	n/a	n/a	76
167.972	0.3	tomspunt	open mouth?	block_question_presentation	n/a	n/a	n/a	n/a	77
167.972	0.3	tomspunt	open mouth?	block_question_presentation	n/a	n/a	n/a	n/a	78
167.972	0.3	tomspunt	open mouth?	block_question_presentation	n/a	n/a	n/a	n/a	79
172.983	0.785	tomspunt	open mouth?	how_face	yes	yes	correct	task-tomspunt/F_844.jpg	72
174.083	0.633	tomspunt	open mouth?	how_face	yes	yes	correct	task-tomspunt/F_776.jpg	73
175.017	0.782	tomspunt	open mouth?	how_face	no	no	correct	task-tomspunt/F_544.jpg	74
176.101	0.732	tomspunt	open mouth?	how_face	yes	yes	correct	task-tomspunt/F_692.jpg	75
177.134	0.685	tomspunt	open mouth?	how_face	no	no	correct	task-tomspunt/F_584.jpg	76
178.135	0.735	tomspunt	open mouth?	how_face	yes	yes	correct	task-tomspunt/F_403.jpg	77
179.185	0.785	tomspunt	open mouth?	how_face	yes	yes	correct	task-tomspunt/F_086.jpg	78
180.286	0.681	tomspunt	open mouth?	how_face	no	no	correct	task-tomspunt/F_648.jpg	79
185.862	2.101	tomspunt	pressing button?	block_question_presentation	n/a	n/a	n/a	n/a	80
185.862	0.3	tomspunt	pressing button?	block_question_presentation	n/a	n/a	n/a	n/a	81
185.862	0.3	tomspunt	pressing button?	block_question_presentation	n/a	n/a	n/a	n/a	82
185.862	0.3	tomspunt	pressing button?	block_question_presentation	n/a	n/a	n/a	n/a	83
185.862	0.3	tomspunt	pressing button?	block_question_presentation	n/a	n/a	n/a	n/a	84
185.862	0.3	tomspunt	pressing button?	block_question_presentation	n/a	n/a	n/a	n/a	85
185.862	0.3	tomspunt	pressing button?	block_question_presentation	n/a	n/a	n/a	n/a	86
185.862	0.3	tomspunt	pressing button?	block_question_presentation	n/a	n/a	n/a	n/a	87
190.873	0.635	tomspunt	pressing button?	how_hand	yes	yes	correct	task-tomspunt/H_019.jpg	80
191.823	0.751	tomspunt	pressing button?	how_hand	no	no	correct	task-tomspunt/H_024.jpg	81
192.89	0.759	tomspunt	pressing button?	how_hand	no	no	correct	task-tomspunt/H_130.jpg	82
193.957	0.609	tomspunt	pressing button?	how_hand	yes	yes	correct	task-tomspunt/H_502.jpg	83
194.874	0.819	tomspunt	pressing button?	how_hand	no	no	correct	task-tomspunt/H_261.jpg	84
196.008	0.542	tomspunt	pressing button?	how_hand	yes	yes	correct	task-tomspunt/H_332.jpg	85
196.858	0.625	tomspunt	pressing button?	how_hand	yes	yes	correct	task-tomspunt/H_126.jpg	86
197.792	0.891	tomspunt	pressing button?	how_hand	yes	yes	correct	task-tomspunt/H_483.jpg	87
203.652	2.101	tomspunt	competing?	block_question_presentation	n/a	n/a	n/a	n/a	88
203.652	0.3	tomspunt	competing?	block_question_presentation	n/a	n/a	n/a	n/a	89
203.652	0.3	tomspunt	competing?	block_question_presentation	n/a	n/a	n/a	n/a	90
203.652	0.3	tomspunt	competing?	block_question_presentation	n/a	n/a	n/a	n/a	91
203.652	0.3	tomspunt	competing?	block_question_presentation	n/a	n/a	n/a	n/a	92
203.652	0.3	tomspunt	competing?	block_question_presentation	n/a	n/a	n/a	n/a	93
203.652	0.3	tomspunt	competing?	block_question_presentation	n/a	n/a	n/a	n/a	94
203.652	0.3	tomspunt	competing?	block_question_presentation	n/a	n/a	n/a	n/a	95
208.663	0.72	tomspunt	competing?	why_hand	yes	yes	correct	task-tomspunt/H_261.jpg	88
209.696	0.703	tomspunt	competing?	why_hand	no	no	correct	task-tomspunt/H_483.jpg	89
210.714	1.069	tomspunt	competing?	why_hand	yes	yes	correct	task-tomspunt/H_132.jpg	90
212.097	0.769	tomspunt	competing?	why_hand	no	no	correct	task-tomspunt/H_126.jpg	91
213.181	0.851	tomspunt	competing?	why_hand	yes	yes	correct	task-tomspunt/H_136.jpg	92
214.348	1.152	tomspunt	competing?	why_hand	no	no	correct	task-tomspunt/H_502.jpg	93
215.815	0.752	tomspunt	competing?	why_hand	yes	yes	correct	task-tomspunt/H_003.jpg	94
216.882	0.618	tomspunt	competing?	why_hand	yes	yes	correct	task-tomspunt/H_170.jpg	95
221.725	2.101	tomspunt	self-doubt?	block_question_presentation	n/a	n/a	n/a	n/a	96
221.725	0.3	tomspunt	self-doubt?	block_question_presentation	n/a	n/a	n/a	n/a	97
221.725	0.3	tomspunt	self-doubt?	block_question_presentation	n/a	n/a	n/a	n/a	98
221.725	0.3	tomspunt	self-doubt?	block_question_presentation	n/a	n/a	n/a	n/a	99
221.725	0.3	tomspunt	self-doubt?	block_question_presentation	n/a	n/a	n/a	n/a	100
221.725	0.3	tomspunt	self-doubt?	block_question_presentation	n/a	n/a	n/a	n/a	101
221.725	0.3	tomspunt	self-doubt?	block_question_presentation	n/a	n/a	n/a	n/a	102
221.725	0.3	tomspunt	self-doubt?	block_question_presentation	n/a	n/a	n/a	n/a	103
226.736	1.019	tomspunt	self-doubt?	why_face	yes	yes	correct	task-tomspunt/F_544.jpg	96
228.07	0.93	tomspunt	self-doubt?	why_face	no	no	correct	task-tomspunt/F_086.jpg	97
229.304	0.746	tomspunt	self-doubt?	why_face	yes	yes	correct	task-tomspunt/F_798.jpg	98
230.354	0.612	tomspunt	self-doubt?	why_face	yes	yes	correct	task-tomspunt/F_111.jpg	99
231.271	0.652	tomspunt	self-doubt?	why_face	no	no	correct	task-tomspunt/F_774.jpg	100
232.238	0.885	tomspunt	self-doubt?	why_face	yes	yes	correct	task-tomspunt/F_754.jpg	101
233.439	0.835	tomspunt	self-doubt?	why_face	no	no	correct	task-tomspunt/F_128.jpg	102
234.589	1.352	tomspunt	self-doubt?	why_face	no	yes	incorrect	task-tomspunt/F_584.jpg	103
240.782	2.101	tomspunt	looking at camera?	block_question_presentation	n/a	n/a	n/a	n/a	104
240.782	0.3	tomspunt	looking at camera?	block_question_presentation	n/a	n/a	n/a	n/a	105
240.782	0.3	tomspunt	looking at camera?	block_question_presentation	n/a	n/a	n/a	n/a	106
240.782	0.3	tomspunt	looking at camera?	block_question_presentation	n/a	n/a	n/a	n/a	107
240.782	0.3	tomspunt	looking at camera?	block_question_presentation	n/a	n/a	n/a	n/a	108
240.782	0.3	tomspunt	looking at camera?	block_question_presentation	n/a	n/a	n/a	n/a	109
240.782	0.3	tomspunt	looking at camera?	block_question_presentation	n/a	n/a	n/a	n/a	110
240.782	0.3	tomspunt	looking at camera?	block_question_presentation	n/a	n/a	n/a	n/a	111
245.793	1.006	tomspunt	looking at camera?	how_face	yes	yes	correct	task-tomspunt/F_128.jpg	104
247.11	0.656	tomspunt	looking at camera?	how_face	yes	yes	correct	task-tomspunt/F_618.jpg	105
248.077	0.972	tomspunt	looking at camera?	how_face	yes	yes	correct	task-tomspunt/F_598.jpg	106
249.361	0.605	tomspunt	looking at camera?	how_face	no	no	correct	task-tomspunt/F_743.jpg	107
250.278	0.621	tomspunt	looking at camera?	how_face	yes	yes	correct	task-tomspunt/F_774.jpg	108
251.212	1.004	tomspunt	looking at camera?	how_face	no	no	correct	task-tomspunt/F_582.jpg	109
252.529	0.687	tomspunt	looking at camera?	how_face	no	no	correct	task-tomspunt/F_754.jpg	110
253.53	0.685	tomspunt	looking at camera?	how_face	yes	yes	correct	task-tomspunt/F_129.jpg	111
259.573	2.101	tomspunt	both hands?	block_question_presentation	n/a	n/a	n/a	n/a	112
259.573	0.3	tomspunt	both hands?	block_question_presentation	n/a	n/a	n/a	n/a	113
259.573	0.3	tomspunt	both hands?	block_question_presentation	n/a	n/a	n/a	n/a	114
259.573	0.3	tomspunt	both hands?	block_question_presentation	n/a	n/a	n/a	n/a	115
259.573	0.3	tomspunt	both hands?	block_question_presentation	n/a	n/a	n/a	n/a	116
259.573	0.3	tomspunt	both hands?	block_question_presentation	n/a	n/a	n/a	n/a	117
259.573	0.3	tomspunt	both hands?	block_question_presentation	n/a	n/a	n/a	n/a	118
259.573	0.3	tomspunt	both hands?	block_question_presentation	n/a	n/a	n/a	n/a	119
264.584	1.152	tomspunt	both hands?	how_hand	yes	yes	correct	task-tomspunt/H_167.jpg	112
266.051	1.085	tomspunt	both hands?	how_hand	no	no	correct	task-tomspunt/H_091.jpg	113
267.451	1.318	tomspunt	both hands?	how_hand	no	no	correct	task-tomspunt/H_627.jpg	114
269.085	0.902	tomspunt	both hands?	how_hand	yes	yes	correct	task-tomspunt/H_027.jpg	115
270.302	1.235	tomspunt	both hands?	how_hand	yes	yes	correct	task-tomspunt/H_111.jpg	116
271.853	1.185	tomspunt	both hands?	how_hand	no	no	correct	task-tomspunt/H_159.jpg	117
273.354	1.002	tomspunt	both hands?	how_hand	yes	yes	correct	task-tomspunt/H_581.jpg	118
274.671	0.935	tomspunt	both hands?	how_hand	yes	yes	correct	task-tomspunt/H_349.jpg	119
278.363	2.101	tomspunt	self-protection?	block_question_presentation	n/a	n/a	n/a	n/a	120
278.363	0.3	tomspunt	self-protection?	block_question_presentation	n/a	n/a	n/a	n/a	121
278.363	0.3	tomspunt	self-protection?	block_question_presentation	n/a	n/a	n/a	n/a	122
278.363	0.3	tomspunt	self-protection?	block_question_presentation	n/a	n/a	n/a	n/a	123
278.363	0.3	tomspunt	self-protection?	block_question_presentation	n/a	n/a	n/a	n/a	124
278.363	0.3	tomspunt	self-protection?	block_question_presentation	n/a	n/a	n/a	n/a	125
278.363	0.3	tomspunt	self-protection?	block_question_presentation	n/a	n/a	n/a	n/a	126
278.363	0.3	tomspunt	self-protection?	block_question_presentation	n/a	n/a	n/a	n/a	127
283.374	0.892	tomspunt	self-protection?	why_hand	yes	yes	correct	task-tomspunt/H_443.jpg	120
284.574	1.359	tomspunt	self-protection?	why_hand	no	no	correct	task-tomspunt/H_006.jpg	121
286.242	1.141	tomspunt	self-protection?	why_hand	yes	yes	correct	task-tomspunt/H_581.jpg	122
287.692	1.124	tomspunt	self-protection?	why_hand	no	no	correct	task-tomspunt/H_532.jpg	123
289.126	0.857	tomspunt	self-protection?	why_hand	yes	yes	correct	task-tomspunt/H_027.jpg	124
290.293	0.902	tomspunt	self-protection?	why_hand	yes	yes	correct	task-tomspunt/H_038.jpg	125
291.51	0.973	tomspunt	self-protection?	why_hand	no	no	correct	task-tomspunt/H_332.jpg	126
292.794	0.852	tomspunt	self-protection?	why_hand	yes	yes	correct	task-tomspunt/H_189.jpg	127
299.838	2.101	tomspunt	smiling?	block_question_presentation	n/a	n/a	n/a	n/a	128
299.838	0.3	tomspunt	smiling?	block_question_presentation	n/a	n/a	n/a	n/a	129
299.838	0.3	tomspunt	smiling?	block_question_presentation	n/a	n/a	n/a	n/a	130
299.838	0.3	tomspunt	smiling?	block_question_presentation	n/a	n/a	n/a	n/a	131
299.838	0.3	tomspunt	smiling?	block_question_presentation	n/a	n/a	n/a	n/a	132
299.838	0.3	tomspunt	smiling?	block_question_presentation	n/a	n/a	n/a	n/a	133
299.838	0.3	tomspunt	smiling?	block_question_presentation	n/a	n/a	n/a	n/a	134
299.838	0.3	tomspunt	smiling?	block_question_presentation	n/a	n/a	n/a	n/a	135
304.849	0.701	tomspunt	smiling?	how_face	yes	yes	correct	task-tomspunt/F_759.jpg	128
305.866	0.901	tomspunt	smiling?	how_face	no	no	correct	task-tomspunt/F_412.jpg	129
307.083	0.868	tomspunt	smiling?	how_face	yes	yes	correct	task-tomspunt/F_593.jpg	130
308.267	0.718	tomspunt	smiling?	how_face	no	no	correct	task-tomspunt/F_712.jpg	131
309.3	0.751	tomspunt	smiling?	how_face	yes	yes	correct	task-tomspunt/F_695.jpg	132
310.367	0.602	tomspunt	smiling?	how_face	yes	yes	correct	task-tomspunt/F_139.jpg	133
311.284	0.685	tomspunt	smiling?	how_face	yes	yes	correct	task-tomspunt/F_083.jpg	134
312.285	0.582	tomspunt	smiling?	how_face	no	no	correct	task-tomspunt/F_758.jpg	135
317.628	2.101	tomspunt	admiring?	block_question_presentation	n/a	n/a	n/a	n/a	136
317.628	0.3	tomspunt	admiring?	block_question_presentation	n/a	n/a	n/a	n/a	137
317.628	0.3	tomspunt	admiring?	block_question_presentation	n/a	n/a	n/a	n/a	138
317.628	0.3	tomspunt	admiring?	block_question_presentation	n/a	n/a	n/a	n/a	139
317.628	0.3	tomspunt	admiring?	block_question_presentation	n/a	n/a	n/a	n/a	140
317.628	0.3	tomspunt	admiring?	block_question_presentation	n/a	n/a	n/a	n/a	141
317.628	0.3	tomspunt	admiring?	block_question_presentation	n/a	n/a	n/a	n/a	142
317.628	0.3	tomspunt	admiring?	block_question_presentation	n/a	n/a	n/a	n/a	143
322.639	0.818	tomspunt	admiring?	why_face	yes	yes	correct	task-tomspunt/F_593.jpg	136
323.772	1.394	tomspunt	admiring?	why_face	no	no	correct	task-tomspunt/F_129.jpg	137
325.473	0.827	tomspunt	admiring?	why_face	yes	yes	correct	task-tomspunt/F_759.jpg	138
326.607	0.969	tomspunt	admiring?	why_face	no	no	correct	task-tomspunt/F_692.jpg	139
327.891	0.902	tomspunt	admiring?	why_face	yes	yes	correct	task-tomspunt/F_779.jpg	140
329.108	0.542	tomspunt	admiring?	why_face	yes	yes	correct	task-tomspunt/F_590.jpg	141
329.958	0.735	tomspunt	admiring?	why_face	yes	yes	correct	task-tomspunt/F_648.jpg	142
331.008	0.602	tomspunt	admiring?	why_face	no	no	correct	task-tomspunt/F_110.jpg	143
335.518	2.101	tomspunt	competing?	block_question_presentation	n/a	n/a	n/a	n/a	144
335.518	0.3	tomspunt	competing?	block_question_presentation	n/a	n/a	n/a	n/a	145
335.518	0.3	tomspunt	competing?	block_question_presentation	n/a	n/a	n/a	n/a	146
335.518	0.3	tomspunt	competing?	block_question_presentation	n/a	n/a	n/a	n/a	147
335.518	0.3	tomspunt	competing?	block_question_presentation	n/a	n/a	n/a	n/a	148
335.518	0.3	tomspunt	competing?	block_question_presentation	n/a	n/a	n/a	n/a	149
335.518	0.3	tomspunt	competing?	block_question_presentation	n/a	n/a	n/a	n/a	150
335.518	0.3	tomspunt	competing?	block_question_presentation	n/a	n/a	n/a	n/a	151
340.529	0.721	tomspunt	competing?	why_hand	yes	yes	correct	task-tomspunt/H_261.jpg	144
341.562	0.57	tomspunt	competing?	why_hand	yes	yes	correct	task-tomspunt/H_170.jpg	145
342.446	0.77	tomspunt	competing?	why_hand	no	no	correct	task-tomspunt/H_483.jpg	146
343.53	0.62	tomspunt	competing?	why_hand	yes	yes	correct	task-tomspunt/H_132.jpg	147
344.463	0.835	tomspunt	competing?	why_hand	yes	yes	correct	task-tomspunt/H_136.jpg	148
345.614	0.702	tomspunt	competing?	why_hand	yes	yes	correct	task-tomspunt/H_003.jpg	149
346.631	0.669	tomspunt	competing?	why_hand	no	no	correct	task-tomspunt/H_126.jpg	150
347.615	0.852	tomspunt	competing?	why_hand	no	no	correct	task-tomspunt/H_502.jpg	151
357.009	2.101	tomspunt	reaching?	block_question_presentation	n/a	n/a	n/a	n/a	152
357.009	0.3	tomspunt	reaching?	block_question_presentation	n/a	n/a	n/a	n/a	153
357.009	0.3	tomspunt	reaching?	block_question_presentation	n/a	n/a	n/a	n/a	154
357.009	0.3	tomspunt	reaching?	block_question_presentation	n/a	n/a	n/a	n/a	155
357.009	0.3	tomspunt	reaching?	block_question_presentation	n/a	n/a	n/a	n/a	156
357.009	0.3	tomspunt	reaching?	block_question_presentation	n/a	n/a	n/a	n/a	157
357.009	0.3	tomspunt	reaching?	block_question_presentation	n/a	n/a	n/a	n/a	158
357.009	0.3	tomspunt	reaching?	block_question_presentation	n/a	n/a	n/a	n/a	159
362.02	0.818	tomspunt	reaching?	how_hand	yes	yes	correct	task-tomspunt/H_003.jpg	152
363.154	0.851	tomspunt	reaching?	how_hand	yes	yes	correct	task-tomspunt/H_364.jpg	153
364.321	0.796	tomspunt	reaching?	how_hand	no	no	correct	task-tomspunt/H_532.jpg	154
365.421	0.762	tomspunt	reaching?	how_hand	yes	yes	correct	task-tomspunt/H_006.jpg	155
366.488	0.912	tomspunt	reaching?	how_hand	no	no	correct	task-tomspunt/H_438.jpg	156
367.705	0.735	tomspunt	reaching?	how_hand	yes	yes	correct	task-tomspunt/H_007.jpg	157
368.756	1.763	tomspunt	reaching?	how_hand	yes	yes	correct	task-tomspunt/H_474.jpg	158
370.79	n/a	tomspunt	reaching?	how_hand	n/a	no	incorrect	task-tomspunt/H_132.jpg	159
374.849	2.101	tomspunt	open mouth?	block_question_presentation	n/a	n/a	n/a	n/a	160
374.849	0.3	tomspunt	open mouth?	block_question_presentation	n/a	n/a	n/a	n/a	161
374.849	0.3	tomspunt	open mouth?	block_question_presentation	n/a	n/a	n/a	n/a	162
374.849	0.3	tomspunt	open mouth?	block_question_presentation	n/a	n/a	n/a	n/a	163
374.849	0.3	tomspunt	open mouth?	block_question_presentation	n/a	n/a	n/a	n/a	164
374.849	0.3	tomspunt	open mouth?	block_question_presentation	n/a	n/a	n/a	n/a	165
374.849	0.3	tomspunt	open mouth?	block_question_presentation	n/a	n/a	n/a	n/a	166
374.849	0.3	tomspunt	open mouth?	block_question_presentation	n/a	n/a	n/a	n/a	167
379.86	0.702	tomspunt	open mouth?	how_face	yes	yes	correct	task-tomspunt/F_403.jpg	160
380.877	0.623	tomspunt	open mouth?	how_face	no	no	correct	task-tomspunt/F_648.jpg	161
381.811	0.522	tomspunt	open mouth?	how_face	yes	yes	correct	task-tomspunt/F_776.jpg	162
382.644	0.852	tomspunt	open mouth?	how_face	no	no	correct	task-tomspunt/F_584.jpg	163
383.811	0.605	tomspunt	open mouth?	how_face	yes	yes	correct	task-tomspunt/F_844.jpg	164
384.728	0.552	tomspunt	open mouth?	how_face	yes	yes	correct	task-tomspunt/F_692.jpg	165
385.595	0.635	tomspunt	open mouth?	how_face	yes	yes	correct	task-tomspunt/F_086.jpg	166
386.546	0.571	tomspunt	open mouth?	how_face	no	no	correct	task-tomspunt/F_544.jpg	167
393.523	2.101	tomspunt	argument?	block_question_presentation	n/a	n/a	n/a	n/a	168
393.523	0.3	tomspunt	argument?	block_question_presentation	n/a	n/a	n/a	n/a	169
393.523	0.3	tomspunt	argument?	block_question_presentation	n/a	n/a	n/a	n/a	170
393.523	0.3	tomspunt	argument?	block_question_presentation	n/a	n/a	n/a	n/a	171
393.523	0.3	tomspunt	argument?	block_question_presentation	n/a	n/a	n/a	n/a	172
393.523	0.3	tomspunt	argument?	block_question_presentation	n/a	n/a	n/a	n/a	173
393.523	0.3	tomspunt	argument?	block_question_presentation	n/a	n/a	n/a	n/a	174
393.523	0.3	tomspunt	argument?	block_question_presentation	n/a	n/a	n/a	n/a	175
398.534	0.55	tomspunt	argument?	why_face	yes	yes	correct	task-tomspunt/F_403.jpg	168
399.384	0.668	tomspunt	argument?	why_face	no	no	correct	task-tomspunt/F_844.jpg	169
400.368	0.685	tomspunt	argument?	why_face	yes	yes	correct	task-tomspunt/F_712.jpg	170
401.368	0.635	tomspunt	argument?	why_face	yes	yes	correct	task-tomspunt/F_758.jpg	171
402.318	0.585	tomspunt	argument?	why_face	no	no	correct	task-tomspunt/F_433.jpg	172
403.219	0.514	tomspunt	argument?	why_face	yes	yes	correct	task-tomspunt/F_716.jpg	173
404.036	0.635	tomspunt	argument?	why_face	no	no	correct	task-tomspunt/F_139.jpg	174
404.986	0.619	tomspunt	argument?	why_face	yes	yes	correct	task-tomspunt/F_743.jpg	175
411.746	2.101	tomspunt	helping?	block_question_presentation	n/a	n/a	n/a	n/a	176
411.746	0.3	tomspunt	helping?	block_question_presentation	n/a	n/a	n/a	n/a	177
411.746	0.3	tomspunt	helping?	block_question_presentation	n/a	n/a	n/a	n/a	178
411.746	0.3	tomspunt	helping?	block_question_presentation	n/a	n/a	n/a	n/a	179
411.746	0.3	tomspunt	helping?	block_question_presentation	n/a	n/a	n/a	n/a	180
411.746	0.3	tomspunt	helping?	block_question_presentation	n/a	n/a	n/a	n/a	181
411.746	0.3	tomspunt	helping?	block_question_presentation	n/a	n/a	n/a	n/a	182
411.746	0.3	tomspunt	helping?	block_question_presentation	n/a	n/a	n/a	n/a	183
416.757	0.809	tomspunt	helping?	why_hand	yes	yes	correct	task-tomspunt/H_024.jpg	176
417.874	0.802	tomspunt	helping?	why_hand	yes	yes	correct	task-tomspunt/H_349.jpg	177
418.991	0.785	tomspunt	helping?	why_hand	yes	yes	correct	task-tomspunt/H_077.jpg	178
420.092	0.958	tomspunt	helping?	why_hand	yes	yes	correct	task-tomspunt/H_474.jpg	179
421.359	1.041	tomspunt	helping?	why_hand	no	no	correct	task-tomspunt/H_091.jpg	180
422.709	0.735	tomspunt	helping?	why_hand	no	no	correct	task-tomspunt/H_159.jpg	181
423.76	0.752	tomspunt	helping?	why_hand	yes	yes	correct	task-tomspunt/H_111.jpg	182
424.827	0.806	tomspunt	helping?	why_hand	no	no	correct	task-tomspunt/H_012.jpg	183
429.803	2.101	tomspunt	both hands?	block_question_presentation	n/a	n/a	n/a	n/a	184
429.803	0.3	tomspunt	both hands?	block_question_presentation	n/a	n/a	n/a	n/a	185
429.803	0.3	tomspunt	both hands?	block_question_presentation	n/a	n/a	n/a	n/a	186
429.803	0.3	tomspunt	both hands?	block_question_presentation	n/a	n/a	n/a	n/a	187
429.803	0.3	tomspunt	both hands?	block_question_presentation	n/a	n/a	n/a	n/a	188
429.803	0.3	tomspunt	both hands?	block_question_presentation	n/a	n/a	n/a	n/a	189
429.803	0.3	tomspunt	both hands?	block_question_presentation	n/a	n/a	n/a	n/a	190
429.803	0.3	tomspunt	both hands?	block_question_presentation	n/a	n/a	n/a	n/a	191
434.814	0.736	tomspunt	both hands?	how_hand	yes	yes	correct	task-tomspunt/H_111.jpg	184
435.864	0.636	tomspunt	both hands?	how_hand	yes	yes	correct	task-tomspunt/H_027.jpg	185
436.815	0.619	tomspunt	both hands?	how_hand	no	no	correct	task-tomspunt/H_091.jpg	186
437.748	0.669	tomspunt	both hands?	how_hand	yes	yes	correct	task-tomspunt/H_167.jpg	187
438.732	0.885	tomspunt	both hands?	how_hand	yes	yes	correct	task-tomspunt/H_581.jpg	188
439.932	0.652	tomspunt	both hands?	how_hand	no	no	correct	task-tomspunt/H_159.jpg	189
440.899	0.618	tomspunt	both hands?	how_hand	yes	yes	correct	task-tomspunt/H_349.jpg	190
441.833	0.735	tomspunt	both hands?	how_hand	no	no	correct	task-tomspunt/H_627.jpg	191
447.326	2.101	tomspunt	healthy?	block_question_presentation	n/a	n/a	n/a	n/a	192
447.326	0.3	tomspunt	healthy?	block_question_presentation	n/a	n/a	n/a	n/a	193
447.326	0.3	tomspunt	healthy?	block_question_presentation	n/a	n/a	n/a	n/a	194
447.326	0.3	tomspunt	healthy?	block_question_presentation	n/a	n/a	n/a	n/a	195
447.326	0.3	tomspunt	healthy?	block_question_presentation	n/a	n/a	n/a	n/a	196
447.326	0.3	tomspunt	healthy?	block_question_presentation	n/a	n/a	n/a	n/a	197
447.326	0.3	tomspunt	healthy?	block_question_presentation	n/a	n/a	n/a	n/a	198
447.326	0.3	tomspunt	healthy?	block_question_presentation	n/a	n/a	n/a	n/a	199
452.337	0.852	tomspunt	healthy?	why_hand	yes	yes	correct	task-tomspunt/H_438.jpg	192
453.504	0.779	tomspunt	healthy?	why_hand	yes	yes	correct	task-tomspunt/H_364.jpg	193
454.588	0.678	tomspunt	healthy?	why_hand	yes	yes	correct	task-tomspunt/H_362.jpg	194
455.572	0.802	tomspunt	healthy?	why_hand	no	no	correct	task-tomspunt/H_019.jpg	195
456.689	0.668	tomspunt	healthy?	why_hand	yes	yes	correct	task-tomspunt/H_167.jpg	196
457.672	0.661	tomspunt	healthy?	why_hand	no	no	correct	task-tomspunt/H_007.jpg	197
458.639	0.736	tomspunt	healthy?	why_hand	yes	yes	correct	task-tomspunt/H_627.jpg	198
459.69	0.86	tomspunt	healthy?	why_hand	no	no	correct	task-tomspunt/H_130.jpg	199
466.383	2.101	tomspunt	pressing button?	block_question_presentation	n/a	n/a	n/a	n/a	200
466.383	0.3	tomspunt	pressing button?	block_question_presentation	n/a	n/a	n/a	n/a	201
466.383	0.3	tomspunt	pressing button?	block_question_presentation	n/a	n/a	n/a	n/a	202
466.383	0.3	tomspunt	pressing button?	block_question_presentation	n/a	n/a	n/a	n/a	203
466.383	0.3	tomspunt	pressing button?	block_question_presentation	n/a	n/a	n/a	n/a	204
466.383	0.3	tomspunt	pressing button?	block_question_presentation	n/a	n/a	n/a	n/a	205
466.383	0.3	tomspunt	pressing button?	block_question_presentation	n/a	n/a	n/a	n/a	206
466.383	0.3	tomspunt	pressing button?	block_question_presentation	n/a	n/a	n/a	n/a	207
471.394	0.722	tomspunt	pressing button?	how_hand	yes	yes	correct	task-tomspunt/H_126.jpg	200
472.428	0.639	tomspunt	pressing button?	how_hand	no	no	correct	task-tomspunt/H_130.jpg	201
473.378	0.638	tomspunt	pressing button?	how_hand	yes	yes	correct	task-tomspunt/H_483.jpg	202
474.329	0.688	tomspunt	pressing button?	how_hand	no	no	correct	task-tomspunt/H_024.jpg	203
475.329	0.571	tomspunt	pressing button?	how_hand	yes	yes	correct	task-tomspunt/H_332.jpg	204
476.213	0.571	tomspunt	pressing button?	how_hand	yes	yes	correct	task-tomspunt/H_019.jpg	205
477.096	0.686	tomspunt	pressing button?	how_hand	no	no	correct	task-tomspunt/H_261.jpg	206
478.097	0.651	tomspunt	pressing button?	how_hand	yes	yes	correct	task-tomspunt/H_502.jpg	207
483.906	2.101	tomspunt	looking at camera?	block_question_presentation	n/a	n/a	n/a	n/a	208
483.906	0.3	tomspunt	looking at camera?	block_question_presentation	n/a	n/a	n/a	n/a	209
483.906	0.3	tomspunt	looking at camera?	block_question_presentation	n/a	n/a	n/a	n/a	210
483.906	0.3	tomspunt	looking at camera?	block_question_presentation	n/a	n/a	n/a	n/a	211
483.906	0.3	tomspunt	looking at camera?	block_question_presentation	n/a	n/a	n/a	n/a	212
483.906	0.3	tomspunt	looking at camera?	block_question_presentation	n/a	n/a	n/a	n/a	213
483.906	0.3	tomspunt	looking at camera?	block_question_presentation	n/a	n/a	n/a	n/a	214
483.906	0.3	tomspunt	looking at camera?	block_question_presentation	n/a	n/a	n/a	n/a	215
488.917	0.685	tomspunt	looking at camera?	how_face	yes	yes	correct	task-tomspunt/F_618.jpg	208
489.918	0.732	tomspunt	looking at camera?	how_face	no	no	correct	task-tomspunt/F_754.jpg	209
490.951	0.785	tomspunt	looking at camera?	how_face	yes	yes	correct	task-tomspunt/F_129.jpg	210
492.052	0.668	tomspunt	looking at camera?	how_face	yes	yes	correct	task-tomspunt/F_598.jpg	211
493.035	0.581	tomspunt	looking at camera?	how_face	yes	yes	correct	task-tomspunt/F_128.jpg	212
493.919	0.581	tomspunt	looking at camera?	how_face	no	no	correct	task-tomspunt/F_582.jpg	213
494.803	0.535	tomspunt	looking at camera?	how_face	yes	yes	correct	task-tomspunt/F_774.jpg	214
495.653	0.902	tomspunt	looking at camera?	how_face	no	no	correct	task-tomspunt/F_743.jpg	215
502.88	2.101	tomspunt	self-doubt?	block_question_presentation	n/a	n/a	n/a	n/a	216
502.88	0.3	tomspunt	self-doubt?	block_question_presentation	n/a	n/a	n/a	n/a	217
502.88	0.3	tomspunt	self-doubt?	block_question_presentation	n/a	n/a	n/a	n/a	218
502.88	0.3	tomspunt	self-doubt?	block_question_presentation	n/a	n/a	n/a	n/a	219
502.88	0.3	tomspunt	self-doubt?	block_question_presentation	n/a	n/a	n/a	n/a	220
502.88	0.3	tomspunt	self-doubt?	block_question_presentation	n/a	n/a	n/a	n/a	221
502.88	0.3	tomspunt	self-doubt?	block_question_presentation	n/a	n/a	n/a	n/a	222
502.88	0.3	tomspunt	self-doubt?	block_question_presentation	n/a	n/a	n/a	n/a	223
507.891	0.875	tomspunt	self-doubt?	why_face	yes	yes	correct	task-tomspunt/F_798.jpg	216
509.075	0.708	tomspunt	self-doubt?	why_face	no	no	correct	task-tomspunt/F_086.jpg	217
510.092	0.691	tomspunt	self-doubt?	why_face	yes	yes	correct	task-tomspunt/F_544.jpg	218
511.092	0.708	tomspunt	self-doubt?	why_face	yes	yes	correct	task-tomspunt/F_754.jpg	219
512.109	0.707	tomspunt	self-doubt?	why_face	yes	yes	correct	task-tomspunt/F_111.jpg	220
513.126	0.64	tomspunt	self-doubt?	why_face	yes	yes	correct	task-tomspunt/F_584.jpg	221
514.077	0.59	tomspunt	self-doubt?	why_face	no	no	correct	task-tomspunt/F_128.jpg	222
514.977	0.756	tomspunt	self-doubt?	why_face	no	no	correct	task-tomspunt/F_774.jpg	223
520.387	2.101	tomspunt	self-protection?	block_question_presentation	n/a	n/a	n/a	n/a	224
520.387	0.3	tomspunt	self-protection?	block_question_presentation	n/a	n/a	n/a	n/a	225
520.387	0.3	tomspunt	self-protection?	block_question_presentation	n/a	n/a	n/a	n/a	226
520.387	0.3	tomspunt	self-protection?	block_question_presentation	n/a	n/a	n/a	n/a	227
520.387	0.3	tomspunt	self-protection?	block_question_presentation	n/a	n/a	n/a	n/a	228
520.387	0.3	tomspunt	self-protection?	block_question_presentation	n/a	n/a	n/a	n/a	229
520.387	0.3	tomspunt	self-protection?	block_question_presentation	n/a	n/a	n/a	n/a	230
520.387	0.3	tomspunt	self-protection?	block_question_presentation	n/a	n/a	n/a	n/a	231
525.398	0.986	tomspunt	self-protection?	why_hand	yes	yes	correct	task-tomspunt/H_581.jpg	224
526.698	0.601	tomspunt	self-protection?	why_hand	no	yes	incorrect	task-tomspunt/H_443.jpg	225
527.615	1.001	tomspunt	self-protection?	why_hand	no	no	correct	task-tomspunt/H_332.jpg	226
528.932	0.718	tomspunt	self-protection?	why_hand	yes	yes	correct	task-tomspunt/H_027.jpg	227
529.966	0.668	tomspunt	self-protection?	why_hand	no	no	correct	task-tomspunt/H_532.jpg	228
530.95	0.685	tomspunt	self-protection?	why_hand	yes	yes	correct	task-tomspunt/H_189.jpg	229
531.95	0.818	tomspunt	self-protection?	why_hand	no	no	correct	task-tomspunt/H_006.jpg	230
533.084	0.499	tomspunt	self-protection?	why_hand	yes	yes	correct	task-tomspunt/H_038.jpg	231
538.61	2.101	tomspunt	lifting?	block_question_presentation	n/a	n/a	n/a	n/a	232
538.61	0.3	tomspunt	lifting?	block_question_presentation	n/a	n/a	n/a	n/a	233
538.61	0.3	tomspunt	lifting?	block_question_presentation	n/a	n/a	n/a	n/a	234
538.61	0.3	tomspunt	lifting?	block_question_presentation	n/a	n/a	n/a	n/a	235
538.61	0.3	tomspunt	lifting?	block_question_presentation	n/a	n/a	n/a	n/a	236
538.61	0.3	tomspunt	lifting?	block_question_presentation	n/a	n/a	n/a	n/a	237
538.61	0.3	tomspunt	lifting?	block_question_presentation	n/a	n/a	n/a	n/a	238
538.61	0.3	tomspunt	lifting?	block_question_presentation	n/a	n/a	n/a	n/a	239
543.621	1.652	tomspunt	lifting?	how_hand	no	yes	incorrect	task-tomspunt/H_443.jpg	232
545.588	0.761	tomspunt	lifting?	how_hand	no	no	correct	task-tomspunt/H_038.jpg	233
546.655	0.785	tomspunt	lifting?	how_hand	no	yes	incorrect	task-tomspunt/H_136.jpg	234
547.756	0.978	tomspunt	lifting?	how_hand	no	no	correct	task-tomspunt/H_012.jpg	235
549.04	0.568	tomspunt	lifting?	how_hand	yes	yes	correct	task-tomspunt/H_362.jpg	236
549.923	1.018	tomspunt	lifting?	how_hand	yes	yes	correct	task-tomspunt/H_189.jpg	237
551.257	0.518	tomspunt	lifting?	how_hand	yes	yes	correct	task-tomspunt/H_170.jpg	238
552.091	0.852	tomspunt	lifting?	how_hand	no	no	correct	task-tomspunt/H_077.jpg	239
556.484	2.101	tomspunt	looking to side?	block_question_presentation	n/a	n/a	n/a	n/a	240
556.484	0.3	tomspunt	looking to side?	block_question_presentation	n/a	n/a	n/a	n/a	241
556.484	0.3	tomspunt	looking to side?	block_question_presentation	n/a	n/a	n/a	n/a	242
556.484	0.3	tomspunt	looking to side?	block_question_presentation	n/a	n/a	n/a	n/a	243
556.484	0.3	tomspunt	looking to side?	block_question_presentation	n/a	n/a	n/a	n/a	244
556.484	0.3	tomspunt	looking to side?	block_question_presentation	n/a	n/a	n/a	n/a	245
556.484	0.3	tomspunt	looking to side?	block_question_presentation	n/a	n/a	n/a	n/a	246
556.484	0.3	tomspunt	looking to side?	block_question_presentation	n/a	n/a	n/a	n/a	247
561.494	0.905	tomspunt	looking to side?	how_face	yes	yes	correct	task-tomspunt/F_716.jpg	240
562.711	0.905	tomspunt	looking to side?	how_face	no	no	correct	task-tomspunt/F_798.jpg	241
563.929	0.821	tomspunt	looking to side?	how_face	yes	yes	correct	task-tomspunt/F_760.jpg	242
565.062	0.687	tomspunt	looking to side?	how_face	no	yes	incorrect	task-tomspunt/F_110.jpg	243
566.063	0.654	tomspunt	looking to side?	how_face	yes	no	incorrect	task-tomspunt/F_779.jpg	244
567.03	0.97	tomspunt	looking to side?	how_face	yes	yes	correct	task-tomspunt/F_590.jpg	245
568.314	0.736	tomspunt	looking to side?	how_face	no	no	correct	task-tomspunt/F_111.jpg	246
569.364	0.635	tomspunt	looking to side?	how_face	yes	yes	correct	task-tomspunt/F_433.jpg	247
578.975	2.084	tomspunt	proud?	block_question_presentation	n/a	n/a	n/a	n/a	248
578.975	0.3	tomspunt	proud?	block_question_presentation	n/a	n/a	n/a	n/a	249
578.975	0.3	tomspunt	proud?	block_question_presentation	n/a	n/a	n/a	n/a	250
578.975	0.3	tomspunt	proud?	block_question_presentation	n/a	n/a	n/a	n/a	251
578.975	0.3	tomspunt	proud?	block_question_presentation	n/a	n/a	n/a	n/a	252
578.975	0.3	tomspunt	proud?	block_question_presentation	n/a	n/a	n/a	n/a	253
578.975	0.3	tomspunt	proud?	block_question_presentation	n/a	n/a	n/a	n/a	254
578.975	0.3	tomspunt	proud?	block_question_presentation	n/a	n/a	n/a	n/a	255
583.969	0.797	tomspunt	proud?	why_face	yes	yes	correct	task-tomspunt/F_083.jpg	248
585.07	0.835	tomspunt	proud?	why_face	yes	yes	correct	task-tomspunt/F_582.jpg	249
586.22	0.596	tomspunt	proud?	why_face	yes	yes	correct	task-tomspunt/F_618.jpg	250
587.121	0.768	tomspunt	proud?	why_face	no	no	correct	task-tomspunt/F_776.jpg	251
588.204	0.969	tomspunt	proud?	why_face	yes	yes	correct	task-tomspunt/F_598.jpg	252
589.488	0.712	tomspunt	proud?	why_face	no	no	correct	task-tomspunt/F_760.jpg	253
590.505	0.635	tomspunt	proud?	why_face	no	no	correct	task-tomspunt/F_412.jpg	254
591.456	0.961	tomspunt	proud?	why_face	yes	yes	correct	task-tomspunt/F_695.jpg	255
