onset	duration	trial_type	response_value	stim_file
2.768	38.893	video	n/a	task-alignvideo/ses-04_run-02_order-01_content-dogdance.mp4
46.212	n/a	rating_relevance	n/a	task-alignvideo/ses-04_run-02_order-01_content-dogdance.mp4
51.247	n/a	rating_happy	n/a	task-alignvideo/ses-04_run-02_order-01_content-dogdance.mp4
56.282	n/a	rating_sad	n/a	task-alignvideo/ses-04_run-02_order-01_content-dogdance.mp4
61.301	n/a	rating_afraid	n/a	task-alignvideo/ses-04_run-02_order-01_content-dogdance.mp4
66.32	n/a	rating_disgusted	n/a	task-alignvideo/ses-04_run-02_order-01_content-dogdance.mp4
71.355	n/a	rating_warm	n/a	task-alignvideo/ses-04_run-02_order-01_content-dogdance.mp4
76.39	n/a	rating_engaged	n/a	task-alignvideo/ses-04_run-02_order-01_content-dogdance.mp4
76.929	74.58	video	n/a	task-alignvideo/ses-04_run-02_order-02_content-littleboat.mp4
156.036	n/a	rating_relevance	n/a	task-alignvideo/ses-04_run-02_order-02_content-littleboat.mp4
161.072	n/a	rating_happy	n/a	task-alignvideo/ses-04_run-02_order-02_content-littleboat.mp4
166.107	n/a	rating_sad	n/a	task-alignvideo/ses-04_run-02_order-02_content-littleboat.mp4
171.142	n/a	rating_afraid	n/a	task-alignvideo/ses-04_run-02_order-02_content-littleboat.mp4
176.177	n/a	rating_disgusted	n/a	task-alignvideo/ses-04_run-02_order-02_content-littleboat.mp4
181.212	n/a	rating_warm	n/a	task-alignvideo/ses-04_run-02_order-02_content-littleboat.mp4
186.248	n/a	rating_engaged	n/a	task-alignvideo/ses-04_run-02_order-02_content-littleboat.mp4
186.779	138.887	video	n/a	task-alignvideo/ses-04_run-02_order-03_content-gangan.mp4
330.218	n/a	rating_relevance	n/a	task-alignvideo/ses-04_run-02_order-03_content-gangan.mp4
335.253	n/a	rating_happy	n/a	task-alignvideo/ses-04_run-02_order-03_content-gangan.mp4
340.288	n/a	rating_sad	n/a	task-alignvideo/ses-04_run-02_order-03_content-gangan.mp4
345.324	n/a	rating_afraid	n/a	task-alignvideo/ses-04_run-02_order-03_content-gangan.mp4
350.359	n/a	rating_disgusted	n/a	task-alignvideo/ses-04_run-02_order-03_content-gangan.mp4
355.377	n/a	rating_warm	n/a	task-alignvideo/ses-04_run-02_order-03_content-gangan.mp4
360.413	n/a	rating_engaged	n/a	task-alignvideo/ses-04_run-02_order-03_content-gangan.mp4
360.944	27.048	video	n/a	task-alignvideo/ses-04_run-02_order-04_content-tornado.mp4
392.541	n/a	rating_relevance	n/a	task-alignvideo/ses-04_run-02_order-04_content-tornado.mp4
397.576	n/a	rating_happy	n/a	task-alignvideo/ses-04_run-02_order-04_content-tornado.mp4
402.612	n/a	rating_sad	n/a	task-alignvideo/ses-04_run-02_order-04_content-tornado.mp4
407.647	n/a	rating_afraid	n/a	task-alignvideo/ses-04_run-02_order-04_content-tornado.mp4
412.665	n/a	rating_disgusted	n/a	task-alignvideo/ses-04_run-02_order-04_content-tornado.mp4
417.701	n/a	rating_warm	n/a	task-alignvideo/ses-04_run-02_order-04_content-tornado.mp4
422.719	n/a	rating_engaged	n/a	task-alignvideo/ses-04_run-02_order-04_content-tornado.mp4
