onset	duration	run_type	trial_type	trial_index	cue	stimulusintensity	rating_value	rating_glmslabel	rating_value_fillna	rating_glmslabel_fillna	rating_mouseonset	rating_mousedur	stim_file	pain_onset_ttl1	pain_onset_ttl2	pain_onset_ttl3	pain_onset_ttl4	pain_stimulus_delivery_success	cognitive_correct_response	cognitive_participant_response	cognitive_response_accuracy
10.61	0.98	vicarious	cue	1	low_cue	n/a	n/a	n/a	n/a	n/a	n/a	n/a	task-social/cue/runtype-vicarious/scl/l009.png	n/a	n/a	n/a	n/a	n/a	n/a	n/a	n/a
12.34	1.93	vicarious	expectrating	1	low_cue	n/a	12.3	Moderate	12.3	Moderate	0.63	1.3	task-social/cue/runtype-vicarious/scl/l009.png	n/a	n/a	n/a	n/a	n/a	n/a	n/a	n/a
23.09	5.0	vicarious	stimulus	1	low_cue	low_stim	n/a	n/a	n/a	n/a	n/a	n/a	task-social/stim/runtype-vicarious/jl047t1aaunaff_L.mp4	n/a	n/a	n/a	n/a	n/a	n/a	n/a	n/a
31.11	1.42	vicarious	outcomerating	1	low_cue	low_stim	4.0	Weak	4.0	Weak	0.63	1.3	task-social/outcomerating/task-vicarious_scale.png	n/a	n/a	n/a	n/a	n/a	n/a	n/a	n/a
35.7	0.99	vicarious	cue	2	low_cue	n/a	n/a	n/a	n/a	n/a	n/a	n/a	task-social/cue/runtype-vicarious/scl/l046.png	n/a	n/a	n/a	n/a	n/a	n/a	n/a	n/a
38.0	2.3	vicarious	expectrating	2	low_cue	n/a	29.31	Strong	29.31	Strong	0.77	1.54	task-social/cue/runtype-vicarious/scl/l046.png	n/a	n/a	n/a	n/a	n/a	n/a	n/a	n/a
45.79	5.0	vicarious	stimulus	2	low_cue	med_stim	n/a	n/a	n/a	n/a	n/a	n/a	task-social/stim/runtype-vicarious/bn080t1aeaff_M.mp4	n/a	n/a	n/a	n/a	n/a	n/a	n/a	n/a
56.31	1.72	vicarious	outcomerating	2	low_cue	med_stim	61.37	Strong	61.37	Strong	0.77	1.54	task-social/outcomerating/task-vicarious_scale.png	n/a	n/a	n/a	n/a	n/a	n/a	n/a	n/a
61.29	0.99	vicarious	cue	3	low_cue	n/a	n/a	n/a	n/a	n/a	n/a	n/a	task-social/cue/runtype-vicarious/scl/l033.png	n/a	n/a	n/a	n/a	n/a	n/a	n/a	n/a
64.21	1.15	vicarious	expectrating	3	low_cue	n/a	5.17	Weak	5.17	Weak	0.3	0.85	task-social/cue/runtype-vicarious/scl/l033.png	n/a	n/a	n/a	n/a	n/a	n/a	n/a	n/a
74.19	5.0	vicarious	stimulus	3	low_cue	low_stim	n/a	n/a	n/a	n/a	n/a	n/a	task-social/stim/runtype-vicarious/jh043t2aaunaff_L.mp4	n/a	n/a	n/a	n/a	n/a	n/a	n/a	n/a
86.3	1.54	vicarious	outcomerating	3	low_cue	low_stim	5.55	Weak	5.55	Weak	0.3	0.85	task-social/outcomerating/task-vicarious_scale.png	n/a	n/a	n/a	n/a	n/a	n/a	n/a	n/a
91.3	0.98	vicarious	cue	4	low_cue	n/a	n/a	n/a	n/a	n/a	n/a	n/a	task-social/cue/runtype-vicarious/scl/l027.png	n/a	n/a	n/a	n/a	n/a	n/a	n/a	n/a
93.7	2.45	vicarious	expectrating	4	low_cue	n/a	10.13	Moderate	10.13	Moderate	0.28	2.17	task-social/cue/runtype-vicarious/scl/l027.png	n/a	n/a	n/a	n/a	n/a	n/a	n/a	n/a
101.79	5.0	vicarious	stimulus	4	low_cue	high_stim	n/a	n/a	n/a	n/a	n/a	n/a	task-social/stim/runtype-vicarious/mg066t1aaaff_H.mp4	n/a	n/a	n/a	n/a	n/a	n/a	n/a	n/a
112.31	2.02	vicarious	outcomerating	4	low_cue	high_stim	30.69	Strong	30.69	Strong	0.28	2.17	task-social/outcomerating/task-vicarious_scale.png	n/a	n/a	n/a	n/a	n/a	n/a	n/a	n/a
120.0	0.99	vicarious	cue	5	high_cue	n/a	n/a	n/a	n/a	n/a	n/a	n/a	task-social/cue/runtype-vicarious/sch/h051.png	n/a	n/a	n/a	n/a	n/a	n/a	n/a	n/a
122.91	1.26	vicarious	expectrating	5	high_cue	n/a	102.75	Strongest sensation of any kind	102.75	Strongest sensation of any kind	0.3	0.96	task-social/cue/runtype-vicarious/sch/h051.png	n/a	n/a	n/a	n/a	n/a	n/a	n/a	n/a
133.79	5.0	vicarious	stimulus	5	high_cue	med_stim	n/a	n/a	n/a	n/a	n/a	n/a	task-social/stim/runtype-vicarious/ib109t1afaff_M.mp4	n/a	n/a	n/a	n/a	n/a	n/a	n/a	n/a
142.8	1.9	vicarious	outcomerating	5	high_cue	med_stim	79.82	Very Strong	79.82	Very Strong	0.3	0.96	task-social/outcomerating/task-vicarious_scale.png	n/a	n/a	n/a	n/a	n/a	n/a	n/a	n/a
153.89	0.99	vicarious	cue	6	high_cue	n/a	n/a	n/a	n/a	n/a	n/a	n/a	task-social/cue/runtype-vicarious/sch/h045.png	n/a	n/a	n/a	n/a	n/a	n/a	n/a	n/a
155.79	1.38	vicarious	expectrating	6	high_cue	n/a	99.5	Strongest sensation of any kind	99.5	Strongest sensation of any kind	0.37	1.02	task-social/cue/runtype-vicarious/sch/h045.png	n/a	n/a	n/a	n/a	n/a	n/a	n/a	n/a
169.79	5.0	vicarious	stimulus	6	high_cue	high_stim	n/a	n/a	n/a	n/a	n/a	n/a	task-social/stim/runtype-vicarious/jh043t2aeaff_H.mp4	n/a	n/a	n/a	n/a	n/a	n/a	n/a	n/a
184.2	2.05	vicarious	outcomerating	6	high_cue	high_stim	58.29	Strong	58.29	Strong	0.37	1.02	task-social/outcomerating/task-vicarious_scale.png	n/a	n/a	n/a	n/a	n/a	n/a	n/a	n/a
194.19	0.99	vicarious	cue	7	high_cue	n/a	n/a	n/a	n/a	n/a	n/a	n/a	task-social/cue/runtype-vicarious/sch/h041.png	n/a	n/a	n/a	n/a	n/a	n/a	n/a	n/a
196.99	1.53	vicarious	expectrating	7	high_cue	n/a	94.38	Very Strong	94.38	Very Strong	0.32	1.22	task-social/cue/runtype-vicarious/sch/h041.png	n/a	n/a	n/a	n/a	n/a	n/a	n/a	n/a
206.19	5.0	vicarious	stimulus	7	high_cue	med_stim	n/a	n/a	n/a	n/a	n/a	n/a	task-social/stim/runtype-vicarious/vw121t1aiaff_M.mp4	n/a	n/a	n/a	n/a	n/a	n/a	n/a	n/a
214.21	1.37	vicarious	outcomerating	7	high_cue	med_stim	60.23	Strong	60.23	Strong	0.32	1.22	task-social/outcomerating/task-vicarious_scale.png	n/a	n/a	n/a	n/a	n/a	n/a	n/a	n/a
219.2	0.98	vicarious	cue	8	high_cue	n/a	n/a	n/a	n/a	n/a	n/a	n/a	task-social/cue/runtype-vicarious/sch/h014.png	n/a	n/a	n/a	n/a	n/a	n/a	n/a	n/a
222.1	1.54	vicarious	expectrating	8	high_cue	n/a	86.23	Very Strong	86.23	Very Strong	0.32	1.22	task-social/cue/runtype-vicarious/sch/h014.png	n/a	n/a	n/a	n/a	n/a	n/a	n/a	n/a
234.49	5.0	vicarious	stimulus	8	high_cue	low_stim	n/a	n/a	n/a	n/a	n/a	n/a	task-social/stim/runtype-vicarious/bg096t2afunaff_L.mp4	n/a	n/a	n/a	n/a	n/a	n/a	n/a	n/a
242.71	3.89	vicarious	outcomerating	8	high_cue	low_stim	35.62	Strong	35.62	Strong	0.32	1.22	task-social/outcomerating/task-vicarious_scale.png	n/a	n/a	n/a	n/a	n/a	n/a	n/a	n/a
251.4	0.99	vicarious	cue	9	high_cue	n/a	n/a	n/a	n/a	n/a	n/a	n/a	task-social/cue/runtype-vicarious/sch/h043.png	n/a	n/a	n/a	n/a	n/a	n/a	n/a	n/a
253.8	1.31	vicarious	expectrating	9	high_cue	n/a	100.86	Strongest sensation of any kind	100.86	Strongest sensation of any kind	0.48	0.82	task-social/cue/runtype-vicarious/sch/h043.png	n/a	n/a	n/a	n/a	n/a	n/a	n/a	n/a
266.69	5.0	vicarious	stimulus	9	high_cue	low_stim	n/a	n/a	n/a	n/a	n/a	n/a	task-social/stim/runtype-vicarious/bn080t1afunaff_L.mp4	n/a	n/a	n/a	n/a	n/a	n/a	n/a	n/a
280.81	2.15	vicarious	outcomerating	9	high_cue	low_stim	74.91	Very Strong	74.91	Very Strong	0.48	0.82	task-social/outcomerating/task-vicarious_scale.png	n/a	n/a	n/a	n/a	n/a	n/a	n/a	n/a
285.79	0.99	vicarious	cue	10	high_cue	n/a	n/a	n/a	n/a	n/a	n/a	n/a	task-social/cue/runtype-vicarious/sch/h013.png	n/a	n/a	n/a	n/a	n/a	n/a	n/a	n/a
288.99	1.55	vicarious	expectrating	10	high_cue	n/a	88.16	Very Strong	88.16	Very Strong	0.32	1.23	task-social/cue/runtype-vicarious/sch/h013.png	n/a	n/a	n/a	n/a	n/a	n/a	n/a	n/a
297.99	5.0	vicarious	stimulus	10	high_cue	high_stim	n/a	n/a	n/a	n/a	n/a	n/a	task-social/stim/runtype-vicarious/bn080t1afaff_H.mp4	n/a	n/a	n/a	n/a	n/a	n/a	n/a	n/a
311.3	1.77	vicarious	outcomerating	10	high_cue	high_stim	88.16	Very Strong	88.16	Very Strong	0.32	1.23	task-social/outcomerating/task-vicarious_scale.png	n/a	n/a	n/a	n/a	n/a	n/a	n/a	n/a
326.19	0.99	vicarious	cue	11	low_cue	n/a	n/a	n/a	n/a	n/a	n/a	n/a	task-social/cue/runtype-vicarious/scl/l040.png	n/a	n/a	n/a	n/a	n/a	n/a	n/a	n/a
328.11	1.07	vicarious	expectrating	11	low_cue	n/a	10.47	Moderate	10.47	Moderate	0.07	1.0	task-social/cue/runtype-vicarious/scl/l040.png	n/a	n/a	n/a	n/a	n/a	n/a	n/a	n/a
342.39	5.0	vicarious	stimulus	11	low_cue	med_stim	n/a	n/a	n/a	n/a	n/a	n/a	task-social/stim/runtype-vicarious/mg066t2aaunaff_M.mp4	n/a	n/a	n/a	n/a	n/a	n/a	n/a	n/a
353.3	3.42	vicarious	outcomerating	11	low_cue	med_stim	14.48	Moderate	14.48	Moderate	0.07	1.0	task-social/outcomerating/task-vicarious_scale.png	n/a	n/a	n/a	n/a	n/a	n/a	n/a	n/a
366.4	0.98	vicarious	cue	12	low_cue	n/a	n/a	n/a	n/a	n/a	n/a	n/a	task-social/cue/runtype-vicarious/scl/l051.png	n/a	n/a	n/a	n/a	n/a	n/a	n/a	n/a
369.21	1.23	vicarious	expectrating	12	low_cue	n/a	10.18	Moderate	10.18	Moderate	0.38	0.85	task-social/cue/runtype-vicarious/scl/l051.png	n/a	n/a	n/a	n/a	n/a	n/a	n/a	n/a
375.79	5.0	vicarious	stimulus	12	low_cue	high_stim	n/a	n/a	n/a	n/a	n/a	n/a	task-social/stim/runtype-vicarious/ib109t1aiaff_H.mp4	n/a	n/a	n/a	n/a	n/a	n/a	n/a	n/a
394.8	1.34	vicarious	outcomerating	12	low_cue	high_stim	12.48	Moderate	12.48	Moderate	0.38	0.85	task-social/outcomerating/task-vicarious_scale.png	n/a	n/a	n/a	n/a	n/a	n/a	n/a	n/a
