onset	duration	run_type	trial_type	trial_index	cue	stimulusintensity	rating_value	rating_glmslabel	rating_value_fillna	rating_glmslabel_fillna	rating_mouseonset	rating_mousedur	stim_file	pain_onset_ttl1	pain_onset_ttl2	pain_onset_ttl3	pain_onset_ttl4	pain_stimulus_delivery_success	cognitive_correct_response	cognitive_participant_response	cognitive_response_accuracy
5.48	1.0	pain	cue	1	low_cue	n/a	n/a	n/a	n/a	n/a	n/a	n/a	task-social/cue/runtype-pain/scl/l038.png	n/a	n/a	n/a	n/a	n/a	n/a	n/a	n/a
7.5	1.82	pain	expectrating	1	low_cue	n/a	30.57	Strong	30.57	Strong	0.45	1.37	task-social/cue/runtype-pain/scl/l038.png	n/a	n/a	n/a	n/a	n/a	n/a	n/a	n/a
16.25	12.36	pain	stimulus	1	low_cue	med_stim	n/a	n/a	n/a	n/a	n/a	n/a	n/a	16.25	20.01	25.01	28.62	success	n/a	n/a	n/a
28.09	1.68	pain	outcomerating	1	low_cue	med_stim	117.86	Strongest-sensation-of-any-kind	117.86	Strongest-sensation-of-any-kind	0.45	1.37	task-social/outcomerating/task-pain_scale.png	n/a	n/a	n/a	n/a	success	n/a	n/a	n/a
33.8	1.0	pain	cue	2	low_cue	n/a	n/a	n/a	n/a	n/a	n/a	n/a	task-social/cue/runtype-pain/scl/l048.png	n/a	n/a	n/a	n/a	n/a	n/a	n/a	n/a
36.1	2.37	pain	expectrating	2	low_cue	n/a	75.85	Very-Strong	75.85	Very-Strong	0.05	2.32	task-social/cue/runtype-pain/scl/l048.png	n/a	n/a	n/a	n/a	n/a	n/a	n/a	n/a
47.65	11.899999999999999	pain	stimulus	2	low_cue	low_stim	n/a	n/a	n/a	n/a	n/a	n/a	n/a	47.65	51.15	56.15	59.55	success	n/a	n/a	n/a
58.49	1.92	pain	outcomerating	2	low_cue	low_stim	66.44	Very-Strong	66.44	Very-Strong	0.05	2.32	task-social/outcomerating/task-pain_scale.png	n/a	n/a	n/a	n/a	success	n/a	n/a	n/a
74.19	1.0	pain	cue	3	low_cue	n/a	n/a	n/a	n/a	n/a	n/a	n/a	task-social/cue/runtype-pain/scl/l015.png	n/a	n/a	n/a	n/a	n/a	n/a	n/a	n/a
76.49	2.02	pain	expectrating	3	low_cue	n/a	80.78	Very-Strong	80.78	Very-Strong	0.47	1.55	task-social/cue/runtype-pain/scl/l015.png	n/a	n/a	n/a	n/a	n/a	n/a	n/a	n/a
85.31	12.829999999999998	pain	stimulus	3	low_cue	high_stim	n/a	n/a	n/a	n/a	n/a	n/a	n/a	85.31	89.32	94.32	98.13	success	n/a	n/a	n/a
96.39	2.35	pain	outcomerating	3	low_cue	high_stim	135.0	Strongest-sensation-of-any-kind	135.0	Strongest-sensation-of-any-kind	0.47	1.55	task-social/outcomerating/task-pain_scale.png	n/a	n/a	n/a	n/a	success	n/a	n/a	n/a
103.79	1.0	pain	cue	4	high_cue	n/a	n/a	n/a	n/a	n/a	n/a	n/a	task-social/cue/runtype-pain/sch/h017.png	n/a	n/a	n/a	n/a	n/a	n/a	n/a	n/a
106.59	2.13	pain	expectrating	4	high_cue	n/a	102.43	Strongest-sensation-of-any-kind	102.43	Strongest-sensation-of-any-kind	0.73	1.4	task-social/cue/runtype-pain/sch/h017.png	n/a	n/a	n/a	n/a	n/a	n/a	n/a	n/a
113.24	11.91000000000001	pain	stimulus	4	high_cue	low_stim	n/a	n/a	n/a	n/a	n/a	n/a	n/a	113.24	116.74	121.74	125.14	success	n/a	n/a	n/a
127.4	2.32	pain	outcomerating	4	high_cue	low_stim	49.1	Strong	49.1	Strong	0.73	1.4	task-social/outcomerating/task-pain_scale.png	n/a	n/a	n/a	n/a	success	n/a	n/a	n/a
138.28	1.0	pain	cue	5	high_cue	n/a	n/a	n/a	n/a	n/a	n/a	n/a	task-social/cue/runtype-pain/sch/h046.png	n/a	n/a	n/a	n/a	n/a	n/a	n/a	n/a
140.0	1.5	pain	expectrating	5	high_cue	n/a	90.24	Very-Strong	90.24	Very-Strong	0.52	0.99	task-social/cue/runtype-pain/sch/h046.png	n/a	n/a	n/a	n/a	n/a	n/a	n/a	n/a
153.03	12.359999999999985	pain	stimulus	5	high_cue	med_stim	n/a	n/a	n/a	n/a	n/a	n/a	n/a	153.03	156.79	161.79	165.4	success	n/a	n/a	n/a
167.19	2.61	pain	outcomerating	5	high_cue	med_stim	84.78	Very-Strong	84.78	Very-Strong	0.52	0.99	task-social/outcomerating/task-pain_scale.png	n/a	n/a	n/a	n/a	success	n/a	n/a	n/a
178.08	1.0	pain	cue	6	high_cue	n/a	n/a	n/a	n/a	n/a	n/a	n/a	task-social/cue/runtype-pain/sch/h052.png	n/a	n/a	n/a	n/a	n/a	n/a	n/a	n/a
179.88	1.71	pain	expectrating	6	high_cue	n/a	73.03	Very-Strong	73.03	Very-Strong	0.43	1.27	task-social/cue/runtype-pain/sch/h052.png	n/a	n/a	n/a	n/a	n/a	n/a	n/a	n/a
186.54	12.820000000000022	pain	stimulus	6	high_cue	high_stim	n/a	n/a	n/a	n/a	n/a	n/a	n/a	186.54	190.55	195.55	199.36	success	n/a	n/a	n/a
200.69	1.9	pain	outcomerating	6	high_cue	high_stim	100.14	Strongest-sensation-of-any-kind	100.14	Strongest-sensation-of-any-kind	0.43	1.27	task-social/outcomerating/task-pain_scale.png	n/a	n/a	n/a	n/a	success	n/a	n/a	n/a
206.69	1.0	pain	cue	7	high_cue	n/a	n/a	n/a	n/a	n/a	n/a	n/a	task-social/cue/runtype-pain/sch/h042.png	n/a	n/a	n/a	n/a	n/a	n/a	n/a	n/a
209.69	3.45	pain	expectrating	7	high_cue	n/a	113.05	Strongest-sensation-of-any-kind	113.05	Strongest-sensation-of-any-kind	1.42	2.03	task-social/cue/runtype-pain/sch/h042.png	n/a	n/a	n/a	n/a	n/a	n/a	n/a	n/a
217.32	11.900000000000006	pain	stimulus	7	high_cue	low_stim	n/a	n/a	n/a	n/a	n/a	n/a	n/a	217.32	220.82	225.82	229.22	success	n/a	n/a	n/a
235.79	2.18	pain	outcomerating	7	high_cue	low_stim	57.97	Strong	57.97	Strong	1.42	2.03	task-social/outcomerating/task-pain_scale.png	n/a	n/a	n/a	n/a	success	n/a	n/a	n/a
241.99	1.0	pain	cue	8	low_cue	n/a	n/a	n/a	n/a	n/a	n/a	n/a	task-social/cue/runtype-pain/scl/l014.png	n/a	n/a	n/a	n/a	n/a	n/a	n/a	n/a
244.69	2.17	pain	expectrating	8	low_cue	n/a	54.06	Strong	54.06	Strong	0.1	2.07	task-social/cue/runtype-pain/scl/l014.png	n/a	n/a	n/a	n/a	n/a	n/a	n/a	n/a
251.62	12.819999999999993	pain	stimulus	8	low_cue	high_stim	n/a	n/a	n/a	n/a	n/a	n/a	n/a	251.62	255.63	260.63	264.44	success	n/a	n/a	n/a
261.6	2.02	pain	outcomerating	8	low_cue	high_stim	113.17	Strongest-sensation-of-any-kind	113.17	Strongest-sensation-of-any-kind	0.1	2.07	task-social/outcomerating/task-pain_scale.png	n/a	n/a	n/a	n/a	success	n/a	n/a	n/a
270.78	1.0	pain	cue	9	high_cue	n/a	n/a	n/a	n/a	n/a	n/a	n/a	task-social/cue/runtype-pain/sch/h014.png	n/a	n/a	n/a	n/a	n/a	n/a	n/a	n/a
273.78	2.82	pain	expectrating	9	high_cue	n/a	92.54	Very-Strong	92.54	Very-Strong	0.27	2.55	task-social/cue/runtype-pain/sch/h014.png	n/a	n/a	n/a	n/a	n/a	n/a	n/a	n/a
279.71	12.819999999999993	pain	stimulus	9	high_cue	high_stim	n/a	n/a	n/a	n/a	n/a	n/a	n/a	279.71	283.72	288.72	292.53	success	n/a	n/a	n/a
300.49	2.9	pain	outcomerating	9	high_cue	high_stim	97.64	Very-Strong	97.64	Very-Strong	0.27	2.55	task-social/outcomerating/task-pain_scale.png	n/a	n/a	n/a	n/a	success	n/a	n/a	n/a
306.48	1.0	pain	cue	10	low_cue	n/a	n/a	n/a	n/a	n/a	n/a	n/a	task-social/cue/runtype-pain/scl/l053.png	n/a	n/a	n/a	n/a	n/a	n/a	n/a	n/a
308.8	2.36	pain	expectrating	10	low_cue	n/a	82.07	Very-Strong	82.07	Very-Strong	1.0	1.36	task-social/cue/runtype-pain/scl/l053.png	n/a	n/a	n/a	n/a	n/a	n/a	n/a	n/a
316.42	12.359999999999957	pain	stimulus	10	low_cue	med_stim	n/a	n/a	n/a	n/a	n/a	n/a	n/a	316.42	320.18	325.18	328.79	success	n/a	n/a	n/a
327.29	1.92	pain	outcomerating	10	low_cue	med_stim	61.17	Strong	61.17	Strong	1.0	1.36	task-social/outcomerating/task-pain_scale.png	n/a	n/a	n/a	n/a	success	n/a	n/a	n/a
333.49	1.0	pain	cue	11	high_cue	n/a	n/a	n/a	n/a	n/a	n/a	n/a	task-social/cue/runtype-pain/sch/h033.png	n/a	n/a	n/a	n/a	n/a	n/a	n/a	n/a
336.49	2.73	pain	expectrating	11	high_cue	n/a	53.18	Strong	53.18	Strong	0.75	1.98	task-social/cue/runtype-pain/sch/h033.png	n/a	n/a	n/a	n/a	n/a	n/a	n/a	n/a
346.82	12.370000000000005	pain	stimulus	11	high_cue	med_stim	n/a	n/a	n/a	n/a	n/a	n/a	n/a	346.82	350.58	355.58	359.19	success	n/a	n/a	n/a
361.18	3.17	pain	outcomerating	11	high_cue	med_stim	67.13	Very-Strong	67.13	Very-Strong	0.75	1.98	task-social/outcomerating/task-pain_scale.png	n/a	n/a	n/a	n/a	success	n/a	n/a	n/a
372.09	1.0	pain	cue	12	low_cue	n/a	n/a	n/a	n/a	n/a	n/a	n/a	task-social/cue/runtype-pain/scl/l025.png	n/a	n/a	n/a	n/a	n/a	n/a	n/a	n/a
375.09	1.2	pain	expectrating	12	low_cue	n/a	63.22	Strong	63.22	Strong	0.05	1.15	task-social/cue/runtype-pain/scl/l025.png	n/a	n/a	n/a	n/a	n/a	n/a	n/a	n/a
383.72	11.909999999999968	pain	stimulus	12	low_cue	low_stim	n/a	n/a	n/a	n/a	n/a	n/a	n/a	383.72	387.22	392.22	395.62	success	n/a	n/a	n/a
394.7	2.52	pain	outcomerating	12	low_cue	low_stim	45.49	Strong	45.49	Strong	0.05	1.15	task-social/outcomerating/task-pain_scale.png	n/a	n/a	n/a	n/a	success	n/a	n/a	n/a
