onset	duration	run_type	trial_type	trial_index	cue	stimulusintensity	rating_value	rating_glmslabel	rating_value_fillna	rating_glmslabel_fillna	rating_mouseonset	rating_mousedur	stim_file	pain_onset_ttl1	pain_onset_ttl2	pain_onset_ttl3	pain_onset_ttl4	pain_stimulus_delivery_success	cognitive_correct_response	cognitive_participant_response	cognitive_response_accuracy
10.99	1.0	pain	cue	1	low_cue	n/a	n/a	n/a	n/a	n/a	n/a	n/a	task-social/cue/runtype-pain/scl/l032.png	n/a	n/a	n/a	n/a	n/a	n/a	n/a	n/a
14.31	2.02	pain	expectrating	1	low_cue	n/a	27.18	Moderate	27.18	Moderate	0.38	1.64	task-social/cue/runtype-pain/scl/l032.png	n/a	n/a	n/a	n/a	n/a	n/a	n/a	n/a
30.54	12.369999999999997	pain	stimulus	1	low_cue	med_stim	n/a	n/a	n/a	n/a	n/a	n/a	n/a	30.54	34.3	39.3	42.91	success	n/a	n/a	n/a
45.3	2.58	pain	outcomerating	1	low_cue	med_stim	58.6	Strong	58.6	Strong	0.38	1.64	task-social/outcomerating/task-pain_scale.png	n/a	n/a	n/a	n/a	success	n/a	n/a	n/a
51.49	1.0	pain	cue	2	low_cue	n/a	n/a	n/a	n/a	n/a	n/a	n/a	task-social/cue/runtype-pain/scl/l044.png	n/a	n/a	n/a	n/a	n/a	n/a	n/a	n/a
53.69	1.72	pain	expectrating	2	low_cue	n/a	47.76	Strong	47.76	Strong	0.37	1.36	task-social/cue/runtype-pain/scl/l044.png	n/a	n/a	n/a	n/a	n/a	n/a	n/a	n/a
60.42	12.819999999999993	pain	stimulus	2	low_cue	high_stim	n/a	n/a	n/a	n/a	n/a	n/a	n/a	60.42	64.43	69.43	73.24	success	n/a	n/a	n/a
75.2	1.87	pain	outcomerating	2	low_cue	high_stim	54.46	Strong	54.46	Strong	0.37	1.36	task-social/outcomerating/task-pain_scale.png	n/a	n/a	n/a	n/a	success	n/a	n/a	n/a
83.0	0.98	pain	cue	3	high_cue	n/a	n/a	n/a	n/a	n/a	n/a	n/a	task-social/cue/runtype-pain/sch/h001.png	n/a	n/a	n/a	n/a	n/a	n/a	n/a	n/a
85.8	1.27	pain	expectrating	3	high_cue	n/a	68.88	Very Strong	68.88	Very Strong	0.18	1.08	task-social/cue/runtype-pain/sch/h001.png	n/a	n/a	n/a	n/a	n/a	n/a	n/a	n/a
90.52	11.91000000000001	pain	stimulus	3	high_cue	low_stim	n/a	n/a	n/a	n/a	n/a	n/a	n/a	90.52	94.02	99.02	102.42	success	n/a	n/a	n/a
100.39	2.62	pain	outcomerating	3	high_cue	low_stim	46.47	Strong	46.47	Strong	0.18	1.08	task-social/outcomerating/task-pain_scale.png	n/a	n/a	n/a	n/a	success	n/a	n/a	n/a
117.2	1.0	pain	cue	4	high_cue	n/a	n/a	n/a	n/a	n/a	n/a	n/a	task-social/cue/runtype-pain/sch/h036.png	n/a	n/a	n/a	n/a	n/a	n/a	n/a	n/a
119.3	1.98	pain	expectrating	4	high_cue	n/a	72.22	Very Strong	72.22	Very Strong	0.05	1.93	task-social/cue/runtype-pain/sch/h036.png	n/a	n/a	n/a	n/a	n/a	n/a	n/a	n/a
130.82	12.360000000000014	pain	stimulus	4	high_cue	med_stim	n/a	n/a	n/a	n/a	n/a	n/a	n/a	130.82	134.58	139.58	143.19	success	n/a	n/a	n/a
145.59	1.52	pain	outcomerating	4	high_cue	med_stim	54.01	Strong	54.01	Strong	0.05	1.93	task-social/outcomerating/task-pain_scale.png	n/a	n/a	n/a	n/a	success	n/a	n/a	n/a
150.49	1.0	pain	cue	5	high_cue	n/a	n/a	n/a	n/a	n/a	n/a	n/a	task-social/cue/runtype-pain/sch/h031.png	n/a	n/a	n/a	n/a	n/a	n/a	n/a	n/a
152.69	3.92	pain	expectrating	5	high_cue	n/a	36.18	Strong	36.18	Strong	3.18	0.74	task-social/cue/runtype-pain/sch/h031.png	n/a	n/a	n/a	n/a	n/a	n/a	n/a	n/a
168.92	12.820000000000022	pain	stimulus	5	high_cue	high_stim	n/a	n/a	n/a	n/a	n/a	n/a	n/a	168.92	172.93	177.93	181.74	success	n/a	n/a	n/a
179.6	3.6	pain	outcomerating	5	high_cue	high_stim	57.33	Strong	57.33	Strong	3.18	0.74	task-social/outcomerating/task-pain_scale.png	n/a	n/a	n/a	n/a	success	n/a	n/a	n/a
185.09	1.0	pain	cue	6	low_cue	n/a	n/a	n/a	n/a	n/a	n/a	n/a	task-social/cue/runtype-pain/scl/l053.png	n/a	n/a	n/a	n/a	n/a	n/a	n/a	n/a
187.09	2.29	pain	expectrating	6	low_cue	n/a	48.17	Strong	48.17	Strong	0.05	2.24	task-social/cue/runtype-pain/scl/l053.png	n/a	n/a	n/a	n/a	n/a	n/a	n/a	n/a
193.64	12.820000000000022	pain	stimulus	6	low_cue	high_stim	n/a	n/a	n/a	n/a	n/a	n/a	n/a	193.64	197.65	202.65	206.46	success	n/a	n/a	n/a
204.3	3.22	pain	outcomerating	6	low_cue	high_stim	49.87	Strong	49.87	Strong	0.05	2.24	task-social/outcomerating/task-pain_scale.png	n/a	n/a	n/a	n/a	success	n/a	n/a	n/a
213.2	1.0	pain	cue	7	low_cue	n/a	n/a	n/a	n/a	n/a	n/a	n/a	task-social/cue/runtype-pain/scl/l026.png	n/a	n/a	n/a	n/a	n/a	n/a	n/a	n/a
216.5	n/a	pain	expectrating	7	low_cue	n/a	n/a	n/a	n/a	n/a	n/a	n/a	task-social/cue/runtype-pain/scl/l026.png	n/a	n/a	n/a	n/a	n/a	n/a	n/a	n/a
223.02	11.899999999999977	pain	stimulus	7	low_cue	low_stim	n/a	n/a	n/a	n/a	n/a	n/a	n/a	223.02	226.52	231.52	234.92	success	n/a	n/a	n/a
238.09	2.4	pain	outcomerating	7	low_cue	low_stim	17.7	Moderate	17.7	Moderate	n/a	n/a	task-social/outcomerating/task-pain_scale.png	n/a	n/a	n/a	n/a	success	n/a	n/a	n/a
244.29	1.0	pain	cue	8	high_cue	n/a	n/a	n/a	n/a	n/a	n/a	n/a	task-social/cue/runtype-pain/sch/h003.png	n/a	n/a	n/a	n/a	n/a	n/a	n/a	n/a
247.3	1.38	pain	expectrating	8	high_cue	n/a	50.46	Strong	50.46	Strong	0.05	1.33	task-social/cue/runtype-pain/sch/h003.png	n/a	n/a	n/a	n/a	n/a	n/a	n/a	n/a
252.01	12.829999999999984	pain	stimulus	8	high_cue	high_stim	n/a	n/a	n/a	n/a	n/a	n/a	n/a	252.01	256.02	261.02	264.83	success	n/a	n/a	n/a
263.0	3.9	pain	outcomerating	8	high_cue	high_stim	55.1	Strong	55.1	Strong	0.05	1.33	task-social/outcomerating/task-pain_scale.png	n/a	n/a	n/a	n/a	success	n/a	n/a	n/a
270.39	1.0	pain	cue	9	high_cue	n/a	n/a	n/a	n/a	n/a	n/a	n/a	task-social/cue/runtype-pain/sch/h016.png	n/a	n/a	n/a	n/a	n/a	n/a	n/a	n/a
272.41	2.12	pain	expectrating	9	high_cue	n/a	52.81	Strong	52.81	Strong	0.47	1.65	task-social/cue/runtype-pain/sch/h016.png	n/a	n/a	n/a	n/a	n/a	n/a	n/a	n/a
279.72	11.909999999999968	pain	stimulus	9	high_cue	low_stim	n/a	n/a	n/a	n/a	n/a	n/a	n/a	279.72	283.22	288.22	291.62	success	n/a	n/a	n/a
298.6	2.02	pain	outcomerating	9	high_cue	low_stim	31.91	Strong	31.91	Strong	0.47	1.65	task-social/outcomerating/task-pain_scale.png	n/a	n/a	n/a	n/a	success	n/a	n/a	n/a
304.1	0.98	pain	cue	10	low_cue	n/a	n/a	n/a	n/a	n/a	n/a	n/a	task-social/cue/runtype-pain/scl/l005.png	n/a	n/a	n/a	n/a	n/a	n/a	n/a	n/a
306.3	1.92	pain	expectrating	10	low_cue	n/a	25.02	Moderate	25.02	Moderate	0.2	1.72	task-social/cue/runtype-pain/scl/l005.png	n/a	n/a	n/a	n/a	n/a	n/a	n/a	n/a
311.64	12.360000000000014	pain	stimulus	10	low_cue	med_stim	n/a	n/a	n/a	n/a	n/a	n/a	n/a	311.64	315.4	320.4	324.01	success	n/a	n/a	n/a
329.79	1.59	pain	outcomerating	10	low_cue	med_stim	51.66	Strong	51.66	Strong	0.2	1.72	task-social/outcomerating/task-pain_scale.png	n/a	n/a	n/a	n/a	success	n/a	n/a	n/a
338.1	1.0	pain	cue	11	low_cue	n/a	n/a	n/a	n/a	n/a	n/a	n/a	task-social/cue/runtype-pain/scl/l030.png	n/a	n/a	n/a	n/a	n/a	n/a	n/a	n/a
340.3	1.78	pain	expectrating	11	low_cue	n/a	28.32	Moderate	28.32	Moderate	0.32	1.47	task-social/cue/runtype-pain/scl/l030.png	n/a	n/a	n/a	n/a	n/a	n/a	n/a	n/a
350.22	11.899999999999977	pain	stimulus	11	low_cue	low_stim	n/a	n/a	n/a	n/a	n/a	n/a	n/a	350.22	353.72	358.72	362.12	success	n/a	n/a	n/a
363.89	2.86	pain	outcomerating	11	low_cue	low_stim	44.67	Strong	44.67	Strong	0.32	1.47	task-social/outcomerating/task-pain_scale.png	n/a	n/a	n/a	n/a	success	n/a	n/a	n/a
376.09	1.0	pain	cue	12	high_cue	n/a	n/a	n/a	n/a	n/a	n/a	n/a	task-social/cue/runtype-pain/sch/h024.png	n/a	n/a	n/a	n/a	n/a	n/a	n/a	n/a
378.89	1.79	pain	expectrating	12	high_cue	n/a	69.52	Very Strong	69.52	Very Strong	0.67	1.12	task-social/cue/runtype-pain/sch/h024.png	n/a	n/a	n/a	n/a	n/a	n/a	n/a	n/a
385.42	12.359999999999957	pain	stimulus	12	high_cue	med_stim	n/a	n/a	n/a	n/a	n/a	n/a	n/a	385.42	389.18	394.18	397.79	success	n/a	n/a	n/a
395.0	3.27	pain	outcomerating	12	high_cue	med_stim	47.43	Strong	47.43	Strong	0.67	1.12	task-social/outcomerating/task-pain_scale.png	n/a	n/a	n/a	n/a	success	n/a	n/a	n/a
