onset	duration	trial_type	response_x	response_y	situation	context	modality	stim_file
5.831	10.392	narrative_presentation			Supplication	hospital	Text	task-narratives/Narrative1Situation1.txt
16.223	3.133	rating_feeling	1040.0	563.0	Supplication	hospital	Text	
18.29	1.067	feeling_mouse_trajectory	1040.0	563.0	Supplication	hospital	Text	
20.272	2.283	rating_expectation	998.0	518.0	Supplication	hospital	Text	
20.805	1.75	expectation_mouse_trajectory	998.0	518.0	Supplication	hospital	Text	
26.339	14.409	narrative_presentation			Madness	hospital	Text	task-narratives/Narrative1Situation2.txt
40.747	1.75	rating_feeling	738.0	464.0	Madness	hospital	Text	
41.631	0.867	feeling_mouse_trajectory	738.0	464.0	Madness	hospital	Text	
44.768	1.55	rating_expectation	607.0	439.0	Madness	hospital	Text	
45.268	1.05	expectation_mouse_trajectory	607.0	439.0	Madness	hospital	Text	
49.831	20.778	narrative_presentation			Murderous adultury	hospital	Text	task-narratives/Narrative1Situation3.txt
70.609	3.633	rating_feeling	776.0	581.0	Murderous adultury	hospital	Text	
73.742	0.5	feeling_mouse_trajectory	776.0	581.0	Murderous adultury	hospital	Text	
74.635	1.667	rating_expectation	816.0	575.0	Murderous adultury	hospital	Text	
75.385	0.917	expectation_mouse_trajectory	816.0	575.0	Murderous adultury	hospital	Text	
81.726	18.427	narrative_presentation			Recovery of a lost one	town	Text	task-narratives/Narrative1Situation4.txt
100.153	2.883	rating_feeling	611.0	433.0	Recovery of a lost one	town	Text	
101.103	1.933	feeling_mouse_trajectory	611.0	433.0	Recovery of a lost one	town	Text	
104.169	2.317	rating_expectation	1065.0	438.0	Recovery of a lost one	town	Text	
104.586	1.9	expectation_mouse_trajectory	1065.0	438.0	Recovery of a lost one	town	Text	
111.237	11.058	narrative_presentation			Slaying of kin unrecognized	town	Text	task-narratives/Narrative1Situation5.txt
122.294	1.217	rating_feeling	1116.0	539.0	Slaying of kin unrecognized	town	Text	
123.078	0.433	feeling_mouse_trajectory	1116.0	539.0	Slaying of kin unrecognized	town	Text	
126.318	1.867	rating_expectation	1109.0	538.0	Slaying of kin unrecognized	town	Text	
127.084	1.1	expectation_mouse_trajectory	1109.0	538.0	Slaying of kin unrecognized	town	Text	
131.394	25.129	narrative_presentation			An enemy loved	town	Text	task-narratives/Narrative1Situation6.txt
156.523	3.333	rating_feeling	765.0	596.0	An enemy loved	town	Text	
157.523	2.333	feeling_mouse_trajectory	765.0	596.0	An enemy loved	town	Text	
160.54	0.983	rating_expectation	808.0	555.0	An enemy loved	town	Text	
160.906	0.617	expectation_mouse_trajectory	808.0	555.0	An enemy loved	town	Text	
167.624	22.112	narrative_presentation			Fatal imprudence	prison	Text	task-narratives/Narrative1Situation7.txt
189.736	1.933	rating_feeling	763.0	537.0	Fatal imprudence	prison	Text	
191.236	0.433	feeling_mouse_trajectory	763.0	537.0	Fatal imprudence	prison	Text	
193.752	1.017	rating_expectation	674.0	583.0	Fatal imprudence	prison	Text	
194.152	0.617	expectation_mouse_trajectory	674.0	583.0	Fatal imprudence	prison	Text	
198.819	12.391	narrative_presentation			Discovery of dishonour of loved one	prison	Text	task-narratives/Narrative1Situation8.txt
211.21	3.833	rating_feeling	769.0	549.0	Discovery of dishonour of loved one	prison	Text	
212.426	2.617	feeling_mouse_trajectory	769.0	549.0	Discovery of dishonour of loved one	prison	Text	
215.234	1.7	rating_expectation	780.0	533.0	Discovery of dishonour of loved one	prison	Text	
215.734	1.2	expectation_mouse_trajectory	780.0	533.0	Discovery of dishonour of loved one	prison	Text	
227.313	29.48	narrative_presentation			Abduction	prison	Text	task-narratives/Narrative1Situation9.txt
256.793	2.25	rating_feeling	600.0	361.0	Abduction	prison	Text	
257.209	1.833	feeling_mouse_trajectory	600.0	361.0	Abduction	prison	Text	
260.817	2.317	rating_expectation	582.0	380.0	Abduction	prison	Text	
261.184	1.95	expectation_mouse_trajectory	582.0	380.0	Abduction	prison	Text	
273.913	22.111	narrative_presentation			An enemy loved	forest	Text	task-narratives/Narrative2Situation1.txt
296.024	3.583	rating_feeling	869.0	407.0	An enemy loved	forest	Text	
296.791	2.817	feeling_mouse_trajectory	869.0	407.0	An enemy loved	forest	Text	
300.051	1.7	rating_expectation	799.0	391.0	An enemy loved	forest	Text	
300.451	1.3	expectation_mouse_trajectory	799.0	391.0	An enemy loved	forest	Text	
306.125	36.183	narrative_presentation			Enmity of kin	forest	Text	task-narratives/Narrative2Situation2.txt
342.308	3.983	rating_feeling	715.0	480.0	Enmity of kin	forest	Text	
344.508	1.783	feeling_mouse_trajectory	715.0	480.0	Enmity of kin	forest	Text	
346.333	1.4	rating_expectation	746.0	462.0	Enmity of kin	forest	Text	
346.9	0.833	expectation_mouse_trajectory	746.0	462.0	Enmity of kin	forest	Text	
354.409	9.376	narrative_presentation			Necessity of sacrificing loved ones	forest	Text	task-narratives/Narrative2Situation3.txt
363.785	3.067	rating_feeling	817.0	561.0	Necessity of sacrificing loved ones	forest	Text	
366.502	0.35	feeling_mouse_trajectory	817.0	561.0	Necessity of sacrificing loved ones	forest	Text	
367.8	1.5	rating_expectation	800.0	566.0	Necessity of sacrificing loved ones	forest	Text	
368.534	0.767	expectation_mouse_trajectory	800.0	566.0	Necessity of sacrificing loved ones	forest	Text	
374.867	18.427	narrative_presentation			Murderous adultury	town	Text	task-narratives/Narrative2Situation4.txt
393.294	2.3	rating_feeling	686.0	463.0	Murderous adultury	town	Text	
394.294	1.3	feeling_mouse_trajectory	686.0	463.0	Murderous adultury	town	Text	
397.317	1.833	rating_expectation	604.0	397.0	Murderous adultury	town	Text	
397.8	1.35	expectation_mouse_trajectory	604.0	397.0	Murderous adultury	town	Text	
404.394	16.742	narrative_presentation			Daring Enterprise	town	Text	task-narratives/Narrative2Situation5.txt
421.137	2.45	rating_feeling	716.0	443.0	Daring Enterprise	town	Text	
422.32	1.267	feeling_mouse_trajectory	716.0	443.0	Daring Enterprise	town	Text	
425.154	1.133	rating_expectation	716.0	487.0	Daring Enterprise	town	Text	
425.421	0.867	expectation_mouse_trajectory	716.0	487.0	Daring Enterprise	town	Text	
431.221	5.688	narrative_presentation			Ambition	town	Text	task-narratives/Narrative2Situation6.txt
436.909	2.317	rating_feeling	734.0	456.0	Ambition	town	Text	
437.826	1.4	feeling_mouse_trajectory	734.0	456.0	Ambition	town	Text	
440.934	1.85	rating_expectation	735.0	526.0	Ambition	town	Text	
441.317	1.467	expectation_mouse_trajectory	735.0	526.0	Ambition	town	Text	
446.026	19.093	narrative_presentation			Mistaken jealousy	hospital	Text	task-narratives/Narrative2Situation7.txt
465.12	1.967	rating_feeling	899.0	535.0	Mistaken jealousy	hospital	Text	
465.953	1.133	feeling_mouse_trajectory	899.0	535.0	Mistaken jealousy	hospital	Text	
469.137	1.883	rating_expectation	1043.0	565.0	Mistaken jealousy	hospital	Text	
470.404	0.617	expectation_mouse_trajectory	1043.0	565.0	Mistaken jealousy	hospital	Text	
476.204	18.097	narrative_presentation			Discovery of dishonour of loved one	hospital	Text	task-narratives/Narrative2Situation8.txt
494.301	3.983	rating_feeling	941.0	514.0	Discovery of dishonour of loved one	hospital	Text	
495.751	2.533	feeling_mouse_trajectory	941.0	514.0	Discovery of dishonour of loved one	hospital	Text	
498.316	2.45	rating_expectation	957.0	477.0	Discovery of dishonour of loved one	hospital	Text	
498.433	2.333	expectation_mouse_trajectory	957.0	477.0	Discovery of dishonour of loved one	hospital	Text	
