onset	duration	run_type	trial_type	trial_index	cue	stimulusintensity	rating_value	rating_glmslabel	rating_value_fillna	rating_glmslabel_fillna	rating_mouseonset	rating_mousedur	stim_file	pain_onset_ttl1	pain_onset_ttl2	pain_onset_ttl3	pain_onset_ttl4	pain_stimulus_delivery_success	cognitive_correct_response	cognitive_participant_response	cognitive_response_accuracy
14.19	1.0	pain	cue	1	low_cue	n/a	n/a	n/a	n/a	n/a	n/a	n/a	task-social/cue/runtype-pain/scl/l011.png	n/a	n/a	n/a	n/a	n/a	n/a	n/a	n/a
16.01	n/a	pain	expectrating	1	low_cue	n/a	n/a	n/a	45.83	Strong	0.43	1.85	task-social/cue/runtype-pain/scl/l011.png	n/a	n/a	n/a	n/a	n/a	n/a	n/a	n/a
24.73	11.900000000000002	pain	stimulus	1	low_cue	low_stim	n/a	n/a	n/a	n/a	n/a	n/a	n/a	24.73	28.23	33.23	36.63	success	n/a	n/a	n/a
37.7	n/a	pain	outcomerating	1	low_cue	low_stim	n/a	n/a	59.63	Strong	0.43	1.85	task-social/outcomerating/task-pain_scale.png	n/a	n/a	n/a	n/a	success	n/a	n/a	n/a
43.79	1.0	pain	cue	2	low_cue	n/a	n/a	n/a	n/a	n/a	n/a	n/a	task-social/cue/runtype-pain/scl/l052.png	n/a	n/a	n/a	n/a	n/a	n/a	n/a	n/a
46.81	n/a	pain	expectrating	2	low_cue	n/a	n/a	n/a	4.65	Weak	0.45	1.35	task-social/cue/runtype-pain/scl/l052.png	n/a	n/a	n/a	n/a	n/a	n/a	n/a	n/a
55.52	12.369999999999997	pain	stimulus	2	low_cue	med_stim	n/a	n/a	n/a	n/a	n/a	n/a	n/a	55.52	59.28	64.28	67.89	success	n/a	n/a	n/a
69.3	n/a	pain	outcomerating	2	low_cue	med_stim	n/a	n/a	73.23	Very-Strong	0.45	1.35	task-social/outcomerating/task-pain_scale.png	n/a	n/a	n/a	n/a	success	n/a	n/a	n/a
77.8	1.0	pain	cue	3	high_cue	n/a	n/a	n/a	n/a	n/a	n/a	n/a	task-social/cue/runtype-pain/sch/h049.png	n/a	n/a	n/a	n/a	n/a	n/a	n/a	n/a
80.8	n/a	pain	expectrating	3	high_cue	n/a	n/a	n/a	70.31	Very-Strong	1.05	2.82	task-social/cue/runtype-pain/sch/h049.png	n/a	n/a	n/a	n/a	n/a	n/a	n/a	n/a
85.62	12.36	pain	stimulus	3	high_cue	med_stim	n/a	n/a	n/a	n/a	n/a	n/a	n/a	85.62	89.38	94.38	97.99	success	n/a	n/a	n/a
97.41	n/a	pain	outcomerating	3	high_cue	med_stim	n/a	n/a	70.84	Very-Strong	1.05	2.82	task-social/outcomerating/task-pain_scale.png	n/a	n/a	n/a	n/a	success	n/a	n/a	n/a
110.5	1.0	pain	cue	4	low_cue	n/a	n/a	n/a	n/a	n/a	n/a	n/a	task-social/cue/runtype-pain/scl/l030.png	n/a	n/a	n/a	n/a	n/a	n/a	n/a	n/a
112.4	n/a	pain	expectrating	4	low_cue	n/a	n/a	n/a	7.84	Weak	0.4	2.5	task-social/cue/runtype-pain/scl/l030.png	n/a	n/a	n/a	n/a	n/a	n/a	n/a	n/a
123.93	12.819999999999993	pain	stimulus	4	low_cue	high_stim	n/a	n/a	n/a	n/a	n/a	n/a	n/a	123.93	127.94	132.94	136.75	success	n/a	n/a	n/a
136.11	n/a	pain	outcomerating	4	low_cue	high_stim	n/a	n/a	80.54	Very-Strong	0.4	2.5	task-social/outcomerating/task-pain_scale.png	n/a	n/a	n/a	n/a	success	n/a	n/a	n/a
150.69	1.0	pain	cue	5	high_cue	n/a	n/a	n/a	n/a	n/a	n/a	n/a	task-social/cue/runtype-pain/sch/h030.png	n/a	n/a	n/a	n/a	n/a	n/a	n/a	n/a
152.4	n/a	pain	expectrating	5	high_cue	n/a	n/a	n/a	61.79	Strong	0.48	1.8	task-social/cue/runtype-pain/sch/h030.png	n/a	n/a	n/a	n/a	n/a	n/a	n/a	n/a
158.91	12.360000000000014	pain	stimulus	5	high_cue	med_stim	n/a	n/a	n/a	n/a	n/a	n/a	n/a	158.91	162.67	167.67	171.28	success	n/a	n/a	n/a
173.8	n/a	pain	outcomerating	5	high_cue	med_stim	n/a	n/a	65.4	Very-Strong	0.48	1.8	task-social/outcomerating/task-pain_scale.png	n/a	n/a	n/a	n/a	success	n/a	n/a	n/a
178.69	1.0	pain	cue	6	low_cue	n/a	n/a	n/a	n/a	n/a	n/a	n/a	task-social/cue/runtype-pain/scl/l038.png	n/a	n/a	n/a	n/a	n/a	n/a	n/a	n/a
181.81	n/a	pain	expectrating	6	low_cue	n/a	n/a	n/a	10.3	Moderate	0.43	2.57	task-social/cue/runtype-pain/scl/l038.png	n/a	n/a	n/a	n/a	n/a	n/a	n/a	n/a
188.04	12.820000000000022	pain	stimulus	6	low_cue	high_stim	n/a	n/a	n/a	n/a	n/a	n/a	n/a	188.04	192.05	197.05	200.86	success	n/a	n/a	n/a
200.1	n/a	pain	outcomerating	6	low_cue	high_stim	n/a	n/a	75.85	Very-Strong	0.43	2.57	task-social/outcomerating/task-pain_scale.png	n/a	n/a	n/a	n/a	success	n/a	n/a	n/a
205.4	1.0	pain	cue	7	low_cue	n/a	n/a	n/a	n/a	n/a	n/a	n/a	task-social/cue/runtype-pain/scl/l042.png	n/a	n/a	n/a	n/a	n/a	n/a	n/a	n/a
208.4	n/a	pain	expectrating	7	low_cue	n/a	n/a	n/a	17.49	Moderate	0.37	1.7	task-social/cue/runtype-pain/scl/l042.png	n/a	n/a	n/a	n/a	n/a	n/a	n/a	n/a
217.73	11.909999999999997	pain	stimulus	7	low_cue	low_stim	n/a	n/a	n/a	n/a	n/a	n/a	n/a	217.73	221.23	226.23	229.63	success	n/a	n/a	n/a
232.59	n/a	pain	outcomerating	7	low_cue	low_stim	n/a	n/a	20.72	Moderate	0.37	1.7	task-social/outcomerating/task-pain_scale.png	n/a	n/a	n/a	n/a	success	n/a	n/a	n/a
237.49	1.0	pain	cue	8	high_cue	n/a	n/a	n/a	n/a	n/a	n/a	n/a	task-social/cue/runtype-pain/sch/h017.png	n/a	n/a	n/a	n/a	n/a	n/a	n/a	n/a
239.19	n/a	pain	expectrating	8	high_cue	n/a	n/a	n/a	113.96	Strongest-sensation-of-any-kind	0.43	1.95	task-social/cue/runtype-pain/sch/h017.png	n/a	n/a	n/a	n/a	n/a	n/a	n/a	n/a
244.01	12.819999999999993	pain	stimulus	8	high_cue	high_stim	n/a	n/a	n/a	n/a	n/a	n/a	n/a	244.01	248.02	253.02	256.83	success	n/a	n/a	n/a
257.9	n/a	pain	outcomerating	8	high_cue	high_stim	n/a	n/a	98.29	Strongest-sensation-of-any-kind	0.43	1.95	task-social/outcomerating/task-pain_scale.png	n/a	n/a	n/a	n/a	success	n/a	n/a	n/a
265.79	1.0	pain	cue	9	high_cue	n/a	n/a	n/a	n/a	n/a	n/a	n/a	task-social/cue/runtype-pain/sch/h023.png	n/a	n/a	n/a	n/a	n/a	n/a	n/a	n/a
268.81	n/a	pain	expectrating	9	high_cue	n/a	n/a	n/a	91.41	Very-Strong	0.38	2.38	task-social/cue/runtype-pain/sch/h023.png	n/a	n/a	n/a	n/a	n/a	n/a	n/a	n/a
275.01	12.819999999999993	pain	stimulus	9	high_cue	high_stim	n/a	n/a	n/a	n/a	n/a	n/a	n/a	275.01	279.02	284.02	287.83	success	n/a	n/a	n/a
288.0	n/a	pain	outcomerating	9	high_cue	high_stim	n/a	n/a	81.64	Very-Strong	0.38	2.38	task-social/outcomerating/task-pain_scale.png	n/a	n/a	n/a	n/a	success	n/a	n/a	n/a
296.7	1.0	pain	cue	10	high_cue	n/a	n/a	n/a	n/a	n/a	n/a	n/a	task-social/cue/runtype-pain/sch/h035.png	n/a	n/a	n/a	n/a	n/a	n/a	n/a	n/a
299.5	n/a	pain	expectrating	10	high_cue	n/a	n/a	n/a	102.26	Strongest-sensation-of-any-kind	0.35	1.5	task-social/cue/runtype-pain/sch/h035.png	n/a	n/a	n/a	n/a	n/a	n/a	n/a	n/a
314.11	11.909999999999968	pain	stimulus	10	high_cue	low_stim	n/a	n/a	n/a	n/a	n/a	n/a	n/a	314.11	317.61	322.61	326.01	success	n/a	n/a	n/a
326.99	n/a	pain	outcomerating	10	high_cue	low_stim	n/a	n/a	25.23	Moderate	0.35	1.5	task-social/outcomerating/task-pain_scale.png	n/a	n/a	n/a	n/a	success	n/a	n/a	n/a
332.7	1.0	pain	cue	11	high_cue	n/a	n/a	n/a	n/a	n/a	n/a	n/a	task-social/cue/runtype-pain/sch/h039.png	n/a	n/a	n/a	n/a	n/a	n/a	n/a	n/a
335.6	n/a	pain	expectrating	11	high_cue	n/a	n/a	n/a	83.33	Very-Strong	0.37	1.52	task-social/cue/runtype-pain/sch/h039.png	n/a	n/a	n/a	n/a	n/a	n/a	n/a	n/a
344.52	11.910000000000025	pain	stimulus	11	high_cue	low_stim	n/a	n/a	n/a	n/a	n/a	n/a	n/a	344.52	348.02	353.02	356.42	success	n/a	n/a	n/a
358.51	n/a	pain	outcomerating	11	high_cue	low_stim	n/a	n/a	26.87	Moderate	0.37	1.52	task-social/outcomerating/task-pain_scale.png	n/a	n/a	n/a	n/a	success	n/a	n/a	n/a
365.29	1.0	pain	cue	12	low_cue	n/a	n/a	n/a	n/a	n/a	n/a	n/a	task-social/cue/runtype-pain/scl/l041.png	n/a	n/a	n/a	n/a	n/a	n/a	n/a	n/a
367.19	n/a	pain	expectrating	12	low_cue	n/a	n/a	n/a	18.73	Moderate	0.45	1.47	task-social/cue/runtype-pain/scl/l041.png	n/a	n/a	n/a	n/a	n/a	n/a	n/a	n/a
378.82	12.370000000000005	pain	stimulus	12	low_cue	med_stim	n/a	n/a	n/a	n/a	n/a	n/a	n/a	378.82	382.58	387.58	391.19	success	n/a	n/a	n/a
394.5	n/a	pain	outcomerating	12	low_cue	med_stim	n/a	n/a	36.36	Strong	0.45	1.47	task-social/outcomerating/task-pain_scale.png	n/a	n/a	n/a	n/a	success	n/a	n/a	n/a
