onset	duration	run_type	trial_type	trial_index	cue	stimulusintensity	rating_value	rating_glmslabel	rating_value_fillna	rating_glmslabel_fillna	rating_mouseonset	rating_mousedur	stim_file	pain_onset_ttl1	pain_onset_ttl2	pain_onset_ttl3	pain_onset_ttl4	pain_stimulus_delivery_success	cognitive_correct_response	cognitive_participant_response	cognitive_response_accuracy
3.4	1.0	pain	cue	1	low_cue	n/a	n/a	n/a	n/a	n/a	n/a	n/a	task-social/cue/runtype-pain/scl/l027.png	n/a	n/a	n/a	n/a	n/a	n/a	n/a	n/a
6.14	2.92	pain	expectrating	1	low_cue	n/a	27.22	Moderate	27.22	Moderate	0.6	2.32	task-social/cue/runtype-pain/scl/l027.png	n/a	n/a	n/a	n/a	n/a	n/a	n/a	n/a
16.57	12.82	pain	stimulus	1	low_cue	high_stim	n/a	n/a	n/a	n/a	n/a	n/a	n/a	16.57	20.58	25.58	29.39	success	n/a	n/a	n/a
32.61	2.11	pain	outcomerating	1	low_cue	high_stim	40.25	Strong	40.25	Strong	0.6	2.32	task-social/outcomerating/task-pain_scale.png	n/a	n/a	n/a	n/a	success	n/a	n/a	n/a
41.6	1.0	pain	cue	2	high_cue	n/a	n/a	n/a	n/a	n/a	n/a	n/a	task-social/cue/runtype-pain/sch/h036.png	n/a	n/a	n/a	n/a	n/a	n/a	n/a	n/a
44.7	2.19	pain	expectrating	2	high_cue	n/a	82.07	Very-Strong	82.07	Very-Strong	0.37	1.82	task-social/cue/runtype-pain/sch/h036.png	n/a	n/a	n/a	n/a	n/a	n/a	n/a	n/a
53.24	12.359999999999992	pain	stimulus	2	high_cue	med_stim	n/a	n/a	n/a	n/a	n/a	n/a	n/a	53.24	57.0	62.0	65.61	success	n/a	n/a	n/a
69.31	2.92	pain	outcomerating	2	high_cue	med_stim	60.2	Strong	60.2	Strong	0.37	1.82	task-social/outcomerating/task-pain_scale.png	n/a	n/a	n/a	n/a	success	n/a	n/a	n/a
78.4	1.0	pain	cue	3	low_cue	n/a	n/a	n/a	n/a	n/a	n/a	n/a	task-social/cue/runtype-pain/scl/l032.png	n/a	n/a	n/a	n/a	n/a	n/a	n/a	n/a
81.51	2.44	pain	expectrating	3	low_cue	n/a	18.88	Moderate	18.88	Moderate	0.37	2.07	task-social/cue/runtype-pain/scl/l032.png	n/a	n/a	n/a	n/a	n/a	n/a	n/a	n/a
86.04	11.909999999999997	pain	stimulus	3	low_cue	low_stim	n/a	n/a	n/a	n/a	n/a	n/a	n/a	86.04	89.54	94.54	97.94	success	n/a	n/a	n/a
97.8	2.37	pain	outcomerating	3	low_cue	low_stim	16.77	Moderate	16.77	Moderate	0.37	2.07	task-social/outcomerating/task-pain_scale.png	n/a	n/a	n/a	n/a	success	n/a	n/a	n/a
105.91	1.0	pain	cue	4	low_cue	n/a	n/a	n/a	n/a	n/a	n/a	n/a	task-social/cue/runtype-pain/scl/l023.png	n/a	n/a	n/a	n/a	n/a	n/a	n/a	n/a
107.41	2.1	pain	expectrating	4	low_cue	n/a	15.04	Moderate	15.04	Moderate	0.42	1.68	task-social/cue/runtype-pain/scl/l023.png	n/a	n/a	n/a	n/a	n/a	n/a	n/a	n/a
112.23	11.899999999999991	pain	stimulus	4	low_cue	low_stim	n/a	n/a	n/a	n/a	n/a	n/a	n/a	112.23	115.73	120.73	124.13	success	n/a	n/a	n/a
128.01	2.11	pain	outcomerating	4	low_cue	low_stim	11.36	Moderate	11.36	Moderate	0.42	1.68	task-social/outcomerating/task-pain_scale.png	n/a	n/a	n/a	n/a	success	n/a	n/a	n/a
137.1	1.0	pain	cue	5	high_cue	n/a	n/a	n/a	n/a	n/a	n/a	n/a	task-social/cue/runtype-pain/sch/h027.png	n/a	n/a	n/a	n/a	n/a	n/a	n/a	n/a
140.22	2.25	pain	expectrating	5	high_cue	n/a	90.0	Very-Strong	90.0	Very-Strong	0.33	1.92	task-social/cue/runtype-pain/sch/h027.png	n/a	n/a	n/a	n/a	n/a	n/a	n/a	n/a
147.96	11.909999999999997	pain	stimulus	5	high_cue	low_stim	n/a	n/a	n/a	n/a	n/a	n/a	n/a	147.96	151.46	156.46	159.86	success	n/a	n/a	n/a
159.91	1.83	pain	outcomerating	5	high_cue	low_stim	67.13	Very-Strong	67.13	Very-Strong	0.33	1.92	task-social/outcomerating/task-pain_scale.png	n/a	n/a	n/a	n/a	success	n/a	n/a	n/a
169.0	1.0	pain	cue	6	high_cue	n/a	n/a	n/a	n/a	n/a	n/a	n/a	task-social/cue/runtype-pain/sch/h042.png	n/a	n/a	n/a	n/a	n/a	n/a	n/a	n/a
171.01	2.14	pain	expectrating	6	high_cue	n/a	91.69	Very-Strong	91.69	Very-Strong	0.32	1.82	task-social/cue/runtype-pain/sch/h042.png	n/a	n/a	n/a	n/a	n/a	n/a	n/a	n/a
175.54	12.360000000000014	pain	stimulus	6	high_cue	med_stim	n/a	n/a	n/a	n/a	n/a	n/a	n/a	175.54	179.3	184.3	187.91	success	n/a	n/a	n/a
187.3	2.47	pain	outcomerating	6	high_cue	med_stim	90.47	Very-Strong	90.47	Very-Strong	0.32	1.82	task-social/outcomerating/task-pain_scale.png	n/a	n/a	n/a	n/a	success	n/a	n/a	n/a
194.41	1.0	pain	cue	7	high_cue	n/a	n/a	n/a	n/a	n/a	n/a	n/a	task-social/cue/runtype-pain/sch/h011.png	n/a	n/a	n/a	n/a	n/a	n/a	n/a	n/a
196.41	1.42	pain	expectrating	7	high_cue	n/a	75.29	Very-Strong	75.29	Very-Strong	0.2	1.22	task-social/cue/runtype-pain/sch/h011.png	n/a	n/a	n/a	n/a	n/a	n/a	n/a	n/a
207.43	11.900000000000006	pain	stimulus	7	high_cue	low_stim	n/a	n/a	n/a	n/a	n/a	n/a	n/a	207.43	210.93	215.93	219.33	success	n/a	n/a	n/a
222.3	1.92	pain	outcomerating	7	high_cue	low_stim	74.74	Very-Strong	74.74	Very-Strong	0.2	1.22	task-social/outcomerating/task-pain_scale.png	n/a	n/a	n/a	n/a	success	n/a	n/a	n/a
234.8	1.0	pain	cue	8	low_cue	n/a	n/a	n/a	n/a	n/a	n/a	n/a	task-social/cue/runtype-pain/scl/l039.png	n/a	n/a	n/a	n/a	n/a	n/a	n/a	n/a
237.31	3.53	pain	expectrating	8	low_cue	n/a	31.29	Strong	31.29	Strong	0.58	2.95	task-social/cue/runtype-pain/scl/l039.png	n/a	n/a	n/a	n/a	n/a	n/a	n/a	n/a
249.32	12.829999999999984	pain	stimulus	8	low_cue	high_stim	n/a	n/a	n/a	n/a	n/a	n/a	n/a	249.32	253.33	258.33	262.14	success	n/a	n/a	n/a
262.7	1.97	pain	outcomerating	8	low_cue	high_stim	87.24	Very-Strong	87.24	Very-Strong	0.58	2.95	task-social/outcomerating/task-pain_scale.png	n/a	n/a	n/a	n/a	success	n/a	n/a	n/a
271.8	1.0	pain	cue	9	low_cue	n/a	n/a	n/a	n/a	n/a	n/a	n/a	task-social/cue/runtype-pain/scl/l053.png	n/a	n/a	n/a	n/a	n/a	n/a	n/a	n/a
274.9	1.45	pain	expectrating	9	low_cue	n/a	50.97	Strong	50.97	Strong	0.22	1.24	task-social/cue/runtype-pain/scl/l053.png	n/a	n/a	n/a	n/a	n/a	n/a	n/a	n/a
284.64	12.370000000000005	pain	stimulus	9	low_cue	med_stim	n/a	n/a	n/a	n/a	n/a	n/a	n/a	284.64	288.4	293.4	297.01	success	n/a	n/a	n/a
294.41	2.43	pain	outcomerating	9	low_cue	med_stim	85.31	Very-Strong	85.31	Very-Strong	0.22	1.24	task-social/outcomerating/task-pain_scale.png	n/a	n/a	n/a	n/a	success	n/a	n/a	n/a
299.9	1.0	pain	cue	10	low_cue	n/a	n/a	n/a	n/a	n/a	n/a	n/a	task-social/cue/runtype-pain/scl/l004.png	n/a	n/a	n/a	n/a	n/a	n/a	n/a	n/a
301.81	1.55	pain	expectrating	10	low_cue	n/a	16.86	Moderate	16.86	Moderate	0.05	1.5	task-social/cue/runtype-pain/scl/l004.png	n/a	n/a	n/a	n/a	n/a	n/a	n/a	n/a
313.52	12.360000000000014	pain	stimulus	10	low_cue	med_stim	n/a	n/a	n/a	n/a	n/a	n/a	n/a	313.52	317.28	322.28	325.89	success	n/a	n/a	n/a
326.1	2.82	pain	outcomerating	10	low_cue	med_stim	26.57	Moderate	26.57	Moderate	0.05	1.5	task-social/outcomerating/task-pain_scale.png	n/a	n/a	n/a	n/a	success	n/a	n/a	n/a
337.91	1.0	pain	cue	11	high_cue	n/a	n/a	n/a	n/a	n/a	n/a	n/a	task-social/cue/runtype-pain/sch/h026.png	n/a	n/a	n/a	n/a	n/a	n/a	n/a	n/a
340.61	1.65	pain	expectrating	11	high_cue	n/a	80.65	Very-Strong	80.65	Very-Strong	0.37	1.28	task-social/cue/runtype-pain/sch/h026.png	n/a	n/a	n/a	n/a	n/a	n/a	n/a	n/a
346.02	12.819999999999993	pain	stimulus	11	high_cue	high_stim	n/a	n/a	n/a	n/a	n/a	n/a	n/a	346.02	350.03	355.03	358.84	success	n/a	n/a	n/a
355.5	2.42	pain	outcomerating	11	high_cue	high_stim	95.59	Very-Strong	95.59	Very-Strong	0.37	1.28	task-social/outcomerating/task-pain_scale.png	n/a	n/a	n/a	n/a	success	n/a	n/a	n/a
362.6	1.0	pain	cue	12	high_cue	n/a	n/a	n/a	n/a	n/a	n/a	n/a	task-social/cue/runtype-pain/sch/h028.png	n/a	n/a	n/a	n/a	n/a	n/a	n/a	n/a
364.8	2.52	pain	expectrating	12	high_cue	n/a	111.72	Strongest-sensation-of-any-kind	111.72	Strongest-sensation-of-any-kind	0.05	2.47	task-social/cue/runtype-pain/sch/h028.png	n/a	n/a	n/a	n/a	n/a	n/a	n/a	n/a
376.53	12.82000000000005	pain	stimulus	12	high_cue	high_stim	n/a	n/a	n/a	n/a	n/a	n/a	n/a	376.53	380.54	385.54	389.35	success	n/a	n/a	n/a
394.61	2.59	pain	outcomerating	12	high_cue	high_stim	86.72	Very-Strong	86.72	Very-Strong	0.05	2.47	task-social/outcomerating/task-pain_scale.png	n/a	n/a	n/a	n/a	success	n/a	n/a	n/a
