onset	duration	run_type	trial_type	trial_index	cue	stimulusintensity	rating_value	rating_glmslabel	rating_value_fillna	rating_glmslabel_fillna	rating_mouseonset	rating_mousedur	stim_file	pain_onset_ttl1	pain_onset_ttl2	pain_onset_ttl3	pain_onset_ttl4	pain_stimulus_delivery_success	cognitive_correct_response	cognitive_participant_response	cognitive_response_accuracy
11.0	1.0	pain	cue	1	low_cue	n/a	n/a	n/a	n/a	n/a	n/a	n/a	task-social/cue/runtype-pain/scl/l032.png	n/a	n/a	n/a	n/a	n/a	n/a	n/a	n/a
14.33	3.33	pain	expectrating	1	low_cue	n/a	14.48	Moderate	14.48	Moderate	0.37	2.97	task-social/cue/runtype-pain/scl/l032.png	n/a	n/a	n/a	n/a	n/a	n/a	n/a	n/a
30.59	12.370000000000001	pain	stimulus	1	low_cue	med_stim	n/a	n/a	n/a	n/a	n/a	n/a	n/a	30.59	34.35	39.35	42.96	success	n/a	n/a	n/a
45.3	3.04	pain	outcomerating	1	low_cue	med_stim	47.43	Strong	47.43	Strong	0.37	2.97	task-social/outcomerating/task-pain_scale.png	n/a	n/a	n/a	n/a	success	n/a	n/a	n/a
51.5	1.0	pain	cue	2	low_cue	n/a	n/a	n/a	n/a	n/a	n/a	n/a	task-social/cue/runtype-pain/scl/l044.png	n/a	n/a	n/a	n/a	n/a	n/a	n/a	n/a
53.7	3.19	pain	expectrating	2	low_cue	n/a	28.63	Moderate	28.63	Moderate	1.22	1.97	task-social/cue/runtype-pain/scl/l044.png	n/a	n/a	n/a	n/a	n/a	n/a	n/a	n/a
60.42	12.819999999999993	pain	stimulus	2	low_cue	high_stim	n/a	n/a	n/a	n/a	n/a	n/a	n/a	60.42	64.43	69.43	73.24	success	n/a	n/a	n/a
75.21	2.88	pain	outcomerating	2	low_cue	high_stim	50.69	Strong	50.69	Strong	1.22	1.97	task-social/outcomerating/task-pain_scale.png	n/a	n/a	n/a	n/a	success	n/a	n/a	n/a
82.99	1.0	pain	cue	3	high_cue	n/a	n/a	n/a	n/a	n/a	n/a	n/a	task-social/cue/runtype-pain/sch/h001.png	n/a	n/a	n/a	n/a	n/a	n/a	n/a	n/a
85.81	2.4	pain	expectrating	3	high_cue	n/a	60.45	Strong	60.45	Strong	0.47	1.93	task-social/cue/runtype-pain/sch/h001.png	n/a	n/a	n/a	n/a	n/a	n/a	n/a	n/a
90.54	11.909999999999997	pain	stimulus	3	high_cue	low_stim	n/a	n/a	n/a	n/a	n/a	n/a	n/a	90.54	94.04	99.04	102.44	success	n/a	n/a	n/a
100.4	3.5	pain	outcomerating	3	high_cue	low_stim	42.72	Strong	42.72	Strong	0.47	1.93	task-social/outcomerating/task-pain_scale.png	n/a	n/a	n/a	n/a	success	n/a	n/a	n/a
117.19	1.0	pain	cue	4	high_cue	n/a	n/a	n/a	n/a	n/a	n/a	n/a	task-social/cue/runtype-pain/sch/h036.png	n/a	n/a	n/a	n/a	n/a	n/a	n/a	n/a
119.31	2.55	pain	expectrating	4	high_cue	n/a	61.48	Strong	61.48	Strong	0.05	2.5	task-social/cue/runtype-pain/sch/h036.png	n/a	n/a	n/a	n/a	n/a	n/a	n/a	n/a
130.83	12.369999999999976	pain	stimulus	4	high_cue	med_stim	n/a	n/a	n/a	n/a	n/a	n/a	n/a	130.83	134.59	139.59	143.2	success	n/a	n/a	n/a
145.6	2.99	pain	outcomerating	4	high_cue	med_stim	55.29	Strong	55.29	Strong	0.05	2.5	task-social/outcomerating/task-pain_scale.png	n/a	n/a	n/a	n/a	success	n/a	n/a	n/a
150.5	1.0	pain	cue	5	high_cue	n/a	n/a	n/a	n/a	n/a	n/a	n/a	task-social/cue/runtype-pain/sch/h031.png	n/a	n/a	n/a	n/a	n/a	n/a	n/a	n/a
152.7	3.82	pain	expectrating	5	high_cue	n/a	63.43	Strong	63.43	Strong	1.35	2.47	task-social/cue/runtype-pain/sch/h031.png	n/a	n/a	n/a	n/a	n/a	n/a	n/a	n/a
168.93	12.819999999999993	pain	stimulus	5	high_cue	high_stim	n/a	n/a	n/a	n/a	n/a	n/a	n/a	168.93	172.94	177.94	181.75	success	n/a	n/a	n/a
179.6	2.61	pain	outcomerating	5	high_cue	high_stim	66.11	Very Strong	66.11	Very Strong	1.35	2.47	task-social/outcomerating/task-pain_scale.png	n/a	n/a	n/a	n/a	success	n/a	n/a	n/a
185.1	1.0	pain	cue	6	low_cue	n/a	n/a	n/a	n/a	n/a	n/a	n/a	task-social/cue/runtype-pain/scl/l053.png	n/a	n/a	n/a	n/a	n/a	n/a	n/a	n/a
187.1	3.15	pain	expectrating	6	low_cue	n/a	30.32	Strong	30.32	Strong	0.75	2.4	task-social/cue/runtype-pain/scl/l053.png	n/a	n/a	n/a	n/a	n/a	n/a	n/a	n/a
193.62	12.829999999999984	pain	stimulus	6	low_cue	high_stim	n/a	n/a	n/a	n/a	n/a	n/a	n/a	193.62	197.63	202.63	206.44	success	n/a	n/a	n/a
204.3	2.43	pain	outcomerating	6	low_cue	high_stim	58.92	Strong	58.92	Strong	0.75	2.4	task-social/outcomerating/task-pain_scale.png	n/a	n/a	n/a	n/a	success	n/a	n/a	n/a
213.19	1.0	pain	cue	7	low_cue	n/a	n/a	n/a	n/a	n/a	n/a	n/a	task-social/cue/runtype-pain/scl/l026.png	n/a	n/a	n/a	n/a	n/a	n/a	n/a	n/a
216.49	2.57	pain	expectrating	7	low_cue	n/a	38.34	Strong	38.34	Strong	0.57	2.0	task-social/cue/runtype-pain/scl/l026.png	n/a	n/a	n/a	n/a	n/a	n/a	n/a	n/a
223.02	11.899999999999977	pain	stimulus	7	low_cue	low_stim	n/a	n/a	n/a	n/a	n/a	n/a	n/a	223.02	226.52	231.52	234.92	success	n/a	n/a	n/a
238.1	2.48	pain	outcomerating	7	low_cue	low_stim	20.69	Moderate	20.69	Moderate	0.57	2.0	task-social/outcomerating/task-pain_scale.png	n/a	n/a	n/a	n/a	success	n/a	n/a	n/a
244.29	1.0	pain	cue	8	high_cue	n/a	n/a	n/a	n/a	n/a	n/a	n/a	task-social/cue/runtype-pain/sch/h003.png	n/a	n/a	n/a	n/a	n/a	n/a	n/a	n/a
247.3	3.37	pain	expectrating	8	high_cue	n/a	55.8	Strong	55.8	Strong	0.58	2.78	task-social/cue/runtype-pain/sch/h003.png	n/a	n/a	n/a	n/a	n/a	n/a	n/a	n/a
252.03	12.820000000000022	pain	stimulus	8	high_cue	high_stim	n/a	n/a	n/a	n/a	n/a	n/a	n/a	252.03	256.04	261.04	264.85	success	n/a	n/a	n/a
262.99	3.53	pain	outcomerating	8	high_cue	high_stim	69.96	Very Strong	69.96	Very Strong	0.58	2.78	task-social/outcomerating/task-pain_scale.png	n/a	n/a	n/a	n/a	success	n/a	n/a	n/a
270.4	1.0	pain	cue	9	high_cue	n/a	n/a	n/a	n/a	n/a	n/a	n/a	task-social/cue/runtype-pain/sch/h016.png	n/a	n/a	n/a	n/a	n/a	n/a	n/a	n/a
272.4	3.77	pain	expectrating	9	high_cue	n/a	59.12	Strong	59.12	Strong	0.9	2.87	task-social/cue/runtype-pain/sch/h016.png	n/a	n/a	n/a	n/a	n/a	n/a	n/a	n/a
279.73	11.909999999999968	pain	stimulus	9	high_cue	low_stim	n/a	n/a	n/a	n/a	n/a	n/a	n/a	279.73	283.23	288.23	291.63	success	n/a	n/a	n/a
298.61	2.53	pain	outcomerating	9	high_cue	low_stim	13.48	Moderate	13.48	Moderate	0.9	2.87	task-social/outcomerating/task-pain_scale.png	n/a	n/a	n/a	n/a	success	n/a	n/a	n/a
304.09	1.0	pain	cue	10	low_cue	n/a	n/a	n/a	n/a	n/a	n/a	n/a	task-social/cue/runtype-pain/scl/l005.png	n/a	n/a	n/a	n/a	n/a	n/a	n/a	n/a
306.29	1.84	pain	expectrating	10	low_cue	n/a	14.6	Moderate	14.6	Moderate	0.5	1.34	task-social/cue/runtype-pain/scl/l005.png	n/a	n/a	n/a	n/a	n/a	n/a	n/a	n/a
311.62	12.370000000000005	pain	stimulus	10	low_cue	med_stim	n/a	n/a	n/a	n/a	n/a	n/a	n/a	311.62	315.38	320.38	323.99	success	n/a	n/a	n/a
329.8	2.34	pain	outcomerating	10	low_cue	med_stim	22.14	Moderate	22.14	Moderate	0.5	1.34	task-social/outcomerating/task-pain_scale.png	n/a	n/a	n/a	n/a	success	n/a	n/a	n/a
338.09	1.0	pain	cue	11	low_cue	n/a	n/a	n/a	n/a	n/a	n/a	n/a	task-social/cue/runtype-pain/scl/l030.png	n/a	n/a	n/a	n/a	n/a	n/a	n/a	n/a
340.31	2.4	pain	expectrating	11	low_cue	n/a	8.78	Weak	8.78	Weak	0.25	2.15	task-social/cue/runtype-pain/scl/l030.png	n/a	n/a	n/a	n/a	n/a	n/a	n/a	n/a
350.22	11.899999999999977	pain	stimulus	11	low_cue	low_stim	n/a	n/a	n/a	n/a	n/a	n/a	n/a	350.22	353.72	358.72	362.12	success	n/a	n/a	n/a
363.9	2.9	pain	outcomerating	11	low_cue	low_stim	5.3	Weak	5.3	Weak	0.25	2.15	task-social/outcomerating/task-pain_scale.png	n/a	n/a	n/a	n/a	success	n/a	n/a	n/a
376.1	0.98	pain	cue	12	high_cue	n/a	n/a	n/a	n/a	n/a	n/a	n/a	task-social/cue/runtype-pain/sch/h024.png	n/a	n/a	n/a	n/a	n/a	n/a	n/a	n/a
378.9	2.02	pain	expectrating	12	high_cue	n/a	86.23	Very Strong	86.23	Very Strong	0.08	1.93	task-social/cue/runtype-pain/sch/h024.png	n/a	n/a	n/a	n/a	n/a	n/a	n/a	n/a
385.42	12.370000000000005	pain	stimulus	12	high_cue	med_stim	n/a	n/a	n/a	n/a	n/a	n/a	n/a	385.42	389.18	394.18	397.79	success	n/a	n/a	n/a
394.99	2.09	pain	outcomerating	12	high_cue	med_stim	66.62	Very Strong	66.62	Very Strong	0.08	1.93	task-social/outcomerating/task-pain_scale.png	n/a	n/a	n/a	n/a	success	n/a	n/a	n/a
