onset	duration	run_type	trial_type	trial_index	cue	stimulusintensity	rating_value	rating_glmslabel	rating_value_fillna	rating_glmslabel_fillna	rating_mouseonset	rating_mousedur	stim_file	pain_onset_ttl1	pain_onset_ttl2	pain_onset_ttl3	pain_onset_ttl4	pain_stimulus_delivery_success	cognitive_correct_response	cognitive_participant_response	cognitive_response_accuracy
5.71	0.98	cognitive	cue	1	low_cue	n/a	n/a	n/a	n/a	n/a	n/a	n/a	task-social/cue/runtype-cognitive/scl/l015.png	n/a	n/a	n/a	n/a	n/a	n/a	n/a	n/a
7.73	1.57	cognitive	expectrating	1	low_cue	n/a	15.21	Moderate	15.21	Moderate	0.78	0.79	task-social/cue/runtype-cognitive/scl/l015.png	n/a	n/a	n/a	n/a	n/a	n/a	n/a	n/a
15.71	5.0	cognitive	stimulus	1	low_cue	med_stim	n/a	n/a	n/a	n/a	n/a	n/a	task-social/stim/runtype-cognitive/35_100_R.jpg	n/a	n/a	n/a	n/a	n/a	diff	diff	True
27.9	1.23	cognitive	outcomerating	1	low_cue	med_stim	10.35	Moderate	10.35	Moderate	0.78	0.79	task-social/outcomerating/task-cognitive_scale.png	n/a	n/a	n/a	n/a	n/a	n/a	n/a	n/a
33.4	0.99	cognitive	cue	2	low_cue	n/a	n/a	n/a	n/a	n/a	n/a	n/a	task-social/cue/runtype-cognitive/scl/l017.png	n/a	n/a	n/a	n/a	n/a	n/a	n/a	n/a
35.7	2.36	cognitive	expectrating	2	low_cue	n/a	6.24	Weak	6.24	Weak	0.83	1.53	task-social/cue/runtype-cognitive/scl/l017.png	n/a	n/a	n/a	n/a	n/a	n/a	n/a	n/a
46.51	5.0	cognitive	stimulus	2	low_cue	low_stim	n/a	n/a	n/a	n/a	n/a	n/a	task-social/stim/runtype-cognitive/27_50.jpg	n/a	n/a	n/a	n/a	n/a	same	same	True
55.41	1.3	cognitive	outcomerating	2	low_cue	low_stim	3.23	Weak	3.23	Weak	0.83	1.53	task-social/outcomerating/task-cognitive_scale.png	n/a	n/a	n/a	n/a	n/a	n/a	n/a	n/a
71.1	0.99	cognitive	cue	3	low_cue	n/a	n/a	n/a	n/a	n/a	n/a	n/a	task-social/cue/runtype-cognitive/scl/l041.png	n/a	n/a	n/a	n/a	n/a	n/a	n/a	n/a
73.4	1.8	cognitive	expectrating	3	low_cue	n/a	17.05	Moderate	17.05	Moderate	0.55	1.25	task-social/cue/runtype-cognitive/scl/l041.png	n/a	n/a	n/a	n/a	n/a	n/a	n/a	n/a
84.2	5.0	cognitive	stimulus	3	low_cue	high_stim	n/a	n/a	n/a	n/a	n/a	n/a	task-social/stim/runtype-cognitive/27_150.jpg	n/a	n/a	n/a	n/a	n/a	same	same	True
93.31	2.44	cognitive	outcomerating	3	low_cue	high_stim	11.58	Moderate	11.58	Moderate	0.55	1.25	task-social/outcomerating/task-cognitive_scale.png	n/a	n/a	n/a	n/a	n/a	n/a	n/a	n/a
100.69	1.0	cognitive	cue	4	high_cue	n/a	n/a	n/a	n/a	n/a	n/a	n/a	task-social/cue/runtype-cognitive/sch/h051.png	n/a	n/a	n/a	n/a	n/a	n/a	n/a	n/a
103.51	2.2	cognitive	expectrating	4	high_cue	n/a	42.68	Strong	42.68	Strong	0.53	1.67	task-social/cue/runtype-cognitive/sch/h051.png	n/a	n/a	n/a	n/a	n/a	n/a	n/a	n/a
114.8	5.0	cognitive	stimulus	4	high_cue	low_stim	n/a	n/a	n/a	n/a	n/a	n/a	task-social/stim/runtype-cognitive/18_50_R.jpg	n/a	n/a	n/a	n/a	n/a	diff	diff	True
124.7	1.29	cognitive	outcomerating	4	high_cue	low_stim	3.69	Weak	3.69	Weak	0.53	1.67	task-social/outcomerating/task-cognitive_scale.png	n/a	n/a	n/a	n/a	n/a	n/a	n/a	n/a
135.81	0.98	cognitive	cue	5	high_cue	n/a	n/a	n/a	n/a	n/a	n/a	n/a	task-social/cue/runtype-cognitive/sch/h027.png	n/a	n/a	n/a	n/a	n/a	n/a	n/a	n/a
137.51	1.99	cognitive	expectrating	5	high_cue	n/a	50.19	Strong	50.19	Strong	0.52	1.47	task-social/cue/runtype-cognitive/sch/h027.png	n/a	n/a	n/a	n/a	n/a	n/a	n/a	n/a
149.81	5.0	cognitive	stimulus	5	high_cue	med_stim	n/a	n/a	n/a	n/a	n/a	n/a	task-social/stim/runtype-cognitive/43_100_R.jpg	n/a	n/a	n/a	n/a	n/a	diff	n/a	False
159.72	2.95	cognitive	outcomerating	5	high_cue	med_stim	47.76	Strong	47.76	Strong	0.52	1.47	task-social/outcomerating/task-cognitive_scale.png	n/a	n/a	n/a	n/a	n/a	n/a	n/a	n/a
170.6	0.99	cognitive	cue	6	high_cue	n/a	n/a	n/a	n/a	n/a	n/a	n/a	task-social/cue/runtype-cognitive/sch/h052.png	n/a	n/a	n/a	n/a	n/a	n/a	n/a	n/a
172.4	1.11	cognitive	expectrating	6	high_cue	n/a	47.93	Strong	47.93	Strong	0.52	0.59	task-social/cue/runtype-cognitive/sch/h052.png	n/a	n/a	n/a	n/a	n/a	n/a	n/a	n/a
181.01	5.0	cognitive	stimulus	6	high_cue	high_stim	n/a	n/a	n/a	n/a	n/a	n/a	task-social/stim/runtype-cognitive/44_150.jpg	n/a	n/a	n/a	n/a	n/a	same	same	True
190.91	1.9	cognitive	outcomerating	6	high_cue	high_stim	15.15	Moderate	15.15	Moderate	0.52	0.59	task-social/outcomerating/task-cognitive_scale.png	n/a	n/a	n/a	n/a	n/a	n/a	n/a	n/a
196.9	0.99	cognitive	cue	7	high_cue	n/a	n/a	n/a	n/a	n/a	n/a	n/a	task-social/cue/runtype-cognitive/sch/h030.png	n/a	n/a	n/a	n/a	n/a	n/a	n/a	n/a
199.9	1.77	cognitive	expectrating	7	high_cue	n/a	50.22	Strong	50.22	Strong	0.42	1.35	task-social/cue/runtype-cognitive/sch/h030.png	n/a	n/a	n/a	n/a	n/a	n/a	n/a	n/a
212.2	5.0	cognitive	stimulus	7	high_cue	low_stim	n/a	n/a	n/a	n/a	n/a	n/a	task-social/stim/runtype-cognitive/10_50_R.jpg	n/a	n/a	n/a	n/a	n/a	diff	diff	True
231.01	1.82	cognitive	outcomerating	7	high_cue	low_stim	9.24	Weak	9.24	Weak	0.42	1.35	task-social/outcomerating/task-cognitive_scale.png	n/a	n/a	n/a	n/a	n/a	n/a	n/a	n/a
236.99	0.99	cognitive	cue	8	low_cue	n/a	n/a	n/a	n/a	n/a	n/a	n/a	task-social/cue/runtype-cognitive/scl/l026.png	n/a	n/a	n/a	n/a	n/a	n/a	n/a	n/a
239.71	1.4	cognitive	expectrating	8	low_cue	n/a	14.93	Moderate	14.93	Moderate	0.05	1.35	task-social/cue/runtype-cognitive/scl/l026.png	n/a	n/a	n/a	n/a	n/a	n/a	n/a	n/a
251.3	5.0	cognitive	stimulus	8	low_cue	high_stim	n/a	n/a	n/a	n/a	n/a	n/a	task-social/stim/runtype-cognitive/38_150_R.jpg	n/a	n/a	n/a	n/a	n/a	diff	diff	True
259.3	1.59	cognitive	outcomerating	8	low_cue	high_stim	4.88	Weak	4.88	Weak	0.05	1.35	task-social/outcomerating/task-cognitive_scale.png	n/a	n/a	n/a	n/a	n/a	n/a	n/a	n/a
268.31	0.98	cognitive	cue	9	high_cue	n/a	n/a	n/a	n/a	n/a	n/a	n/a	task-social/cue/runtype-cognitive/sch/h029.png	n/a	n/a	n/a	n/a	n/a	n/a	n/a	n/a
271.31	1.74	cognitive	expectrating	9	high_cue	n/a	28.52	Moderate	28.52	Moderate	0.53	1.2	task-social/cue/runtype-cognitive/sch/h029.png	n/a	n/a	n/a	n/a	n/a	n/a	n/a	n/a
279.21	5.0	cognitive	stimulus	9	high_cue	high_stim	n/a	n/a	n/a	n/a	n/a	n/a	task-social/stim/runtype-cognitive/42_150.jpg	n/a	n/a	n/a	n/a	n/a	same	same	True
295.7	1.85	cognitive	outcomerating	9	high_cue	high_stim	53.31	Strong	53.31	Strong	0.53	1.2	task-social/outcomerating/task-cognitive_scale.png	n/a	n/a	n/a	n/a	n/a	n/a	n/a	n/a
301.9	0.99	cognitive	cue	10	low_cue	n/a	n/a	n/a	n/a	n/a	n/a	n/a	task-social/cue/runtype-cognitive/scl/l024.png	n/a	n/a	n/a	n/a	n/a	n/a	n/a	n/a
304.2	1.99	cognitive	expectrating	10	low_cue	n/a	2.3	Barely-detectable	2.3	Barely-detectable	0.45	1.54	task-social/cue/runtype-cognitive/scl/l024.png	n/a	n/a	n/a	n/a	n/a	n/a	n/a	n/a
316.51	5.0	cognitive	stimulus	10	low_cue	med_stim	n/a	n/a	n/a	n/a	n/a	n/a	task-social/stim/runtype-cognitive/47_100.jpg	n/a	n/a	n/a	n/a	n/a	same	same	True
327.71	2.08	cognitive	outcomerating	10	low_cue	med_stim	52.02	Strong	52.02	Strong	0.45	1.54	task-social/outcomerating/task-cognitive_scale.png	n/a	n/a	n/a	n/a	n/a	n/a	n/a	n/a
333.9	0.99	cognitive	cue	11	high_cue	n/a	n/a	n/a	n/a	n/a	n/a	n/a	task-social/cue/runtype-cognitive/sch/h036.png	n/a	n/a	n/a	n/a	n/a	n/a	n/a	n/a
336.9	1.63	cognitive	expectrating	11	high_cue	n/a	50.22	Strong	50.22	Strong	0.47	1.17	task-social/cue/runtype-cognitive/sch/h036.png	n/a	n/a	n/a	n/a	n/a	n/a	n/a	n/a
349.2	5.0	cognitive	stimulus	11	high_cue	med_stim	n/a	n/a	n/a	n/a	n/a	n/a	task-social/stim/runtype-cognitive/18_100_R.jpg	n/a	n/a	n/a	n/a	n/a	diff	diff	True
361.61	2.74	cognitive	outcomerating	11	high_cue	med_stim	5.26	Weak	5.26	Weak	0.47	1.17	task-social/outcomerating/task-cognitive_scale.png	n/a	n/a	n/a	n/a	n/a	n/a	n/a	n/a
372.5	0.99	cognitive	cue	12	low_cue	n/a	n/a	n/a	n/a	n/a	n/a	n/a	task-social/cue/runtype-cognitive/scl/l010.png	n/a	n/a	n/a	n/a	n/a	n/a	n/a	n/a
375.51	2.1	cognitive	expectrating	12	low_cue	n/a	15.72	Moderate	15.72	Moderate	1.42	0.68	task-social/cue/runtype-cognitive/scl/l010.png	n/a	n/a	n/a	n/a	n/a	n/a	n/a	n/a
383.4	5.0	cognitive	stimulus	12	low_cue	low_stim	n/a	n/a	n/a	n/a	n/a	n/a	task-social/stim/runtype-cognitive/35_50_R.jpg	n/a	n/a	n/a	n/a	n/a	diff	diff	True
394.7	3.18	cognitive	outcomerating	12	low_cue	low_stim	33.18	Strong	33.18	Strong	1.42	0.68	task-social/outcomerating/task-cognitive_scale.png	n/a	n/a	n/a	n/a	n/a	n/a	n/a	n/a
