onset	duration	trial_type	response_value	stim_file
2.767	106.326	video	n/a	task-alignvideo/ses-01_run-03_order-01_content-huggingpets.mp4
113.644	n/a	rating_relevance	n/a	task-alignvideo/ses-01_run-03_order-01_content-huggingpets.mp4
118.679	n/a	rating_happy	n/a	task-alignvideo/ses-01_run-03_order-01_content-huggingpets.mp4
123.698	n/a	rating_sad	n/a	task-alignvideo/ses-01_run-03_order-01_content-huggingpets.mp4
128.716	n/a	rating_afraid	n/a	task-alignvideo/ses-01_run-03_order-01_content-huggingpets.mp4
133.752	n/a	rating_disgusted	n/a	task-alignvideo/ses-01_run-03_order-01_content-huggingpets.mp4
138.787	n/a	rating_warm	n/a	task-alignvideo/ses-01_run-03_order-01_content-huggingpets.mp4
143.822	n/a	rating_engaged	n/a	task-alignvideo/ses-01_run-03_order-01_content-huggingpets.mp4
144.356	59.189	video	n/a	task-alignvideo/ses-01_run-03_order-02_content-bestfriendsweating.mp4
208.096	n/a	rating_relevance	n/a	task-alignvideo/ses-01_run-03_order-02_content-bestfriendsweating.mp4
213.131	n/a	rating_happy	n/a	task-alignvideo/ses-01_run-03_order-02_content-bestfriendsweating.mp4
218.15	n/a	rating_sad	n/a	task-alignvideo/ses-01_run-03_order-02_content-bestfriendsweating.mp4
223.185	n/a	rating_afraid	n/a	task-alignvideo/ses-01_run-03_order-02_content-bestfriendsweating.mp4
228.204	n/a	rating_disgusted	n/a	task-alignvideo/ses-01_run-03_order-02_content-bestfriendsweating.mp4
233.239	n/a	rating_warm	n/a	task-alignvideo/ses-01_run-03_order-02_content-bestfriendsweating.mp4
238.274	n/a	rating_engaged	n/a	task-alignvideo/ses-01_run-03_order-02_content-bestfriendsweating.mp4
238.806	20.943	video	n/a	task-alignvideo/ses-01_run-03_order-03_content-cupstacking.mp4
264.284	n/a	rating_relevance	n/a	task-alignvideo/ses-01_run-03_order-03_content-cupstacking.mp4
269.319	n/a	rating_happy	n/a	task-alignvideo/ses-01_run-03_order-03_content-cupstacking.mp4
274.354	n/a	rating_sad	n/a	task-alignvideo/ses-01_run-03_order-03_content-cupstacking.mp4
279.389	n/a	rating_afraid	n/a	task-alignvideo/ses-01_run-03_order-03_content-cupstacking.mp4
284.424	n/a	rating_disgusted	n/a	task-alignvideo/ses-01_run-03_order-03_content-cupstacking.mp4
289.46	n/a	rating_warm	n/a	task-alignvideo/ses-01_run-03_order-03_content-cupstacking.mp4
294.478	n/a	rating_engaged	n/a	task-alignvideo/ses-01_run-03_order-03_content-cupstacking.mp4
295.009	136.72	video	n/a	task-alignvideo/ses-01_run-03_order-04_content-dancewithdeath.mp4
436.281	n/a	rating_relevance	n/a	task-alignvideo/ses-01_run-03_order-04_content-dancewithdeath.mp4
441.316	n/a	rating_happy	n/a	task-alignvideo/ses-01_run-03_order-04_content-dancewithdeath.mp4
446.352	n/a	rating_sad	n/a	task-alignvideo/ses-01_run-03_order-04_content-dancewithdeath.mp4
451.37	n/a	rating_afraid	n/a	task-alignvideo/ses-01_run-03_order-04_content-dancewithdeath.mp4
456.405	n/a	rating_disgusted	n/a	task-alignvideo/ses-01_run-03_order-04_content-dancewithdeath.mp4
461.44	n/a	rating_warm	n/a	task-alignvideo/ses-01_run-03_order-04_content-dancewithdeath.mp4
466.476	n/a	rating_engaged	n/a	task-alignvideo/ses-01_run-03_order-04_content-dancewithdeath.mp4
