onset	duration	run_type	trial_type	trial_index	cue	stimulusintensity	rating_value	rating_glmslabel	rating_value_fillna	rating_glmslabel_fillna	rating_mouseonset	rating_mousedur	stim_file	pain_onset_ttl1	pain_onset_ttl2	pain_onset_ttl3	pain_onset_ttl4	pain_stimulus_delivery_success	cognitive_correct_response	cognitive_participant_response	cognitive_response_accuracy
3.4	1.0	pain	cue	1	low_cue	n/a	n/a	n/a	n/a	n/a	n/a	n/a	task-social/cue/runtype-pain/scl/l022.png	n/a	n/a	n/a	n/a	n/a	n/a	n/a	n/a
6.14	1.79	pain	expectrating	1	low_cue	n/a	42.85	Strong	42.85	Strong	0.5	1.29	task-social/cue/runtype-pain/scl/l022.png	n/a	n/a	n/a	n/a	n/a	n/a	n/a	n/a
16.6	12.82	pain	stimulus	1	low_cue	high_stim	n/a	n/a	n/a	n/a	n/a	n/a	n/a	16.6	20.61	25.61	29.42	success	n/a	n/a	n/a
32.61	n/a	pain	outcomerating	1	low_cue	high_stim	n/a	n/a	134.67	Strongest sensation of any kind	0.78	2.72	task-social/outcomerating/task-pain_scale.png	n/a	n/a	n/a	n/a	success	n/a	n/a	n/a
46.0	1.0	pain	cue	2	high_cue	n/a	n/a	n/a	n/a	n/a	n/a	n/a	task-social/cue/runtype-pain/sch/h047.png	n/a	n/a	n/a	n/a	n/a	n/a	n/a	n/a
49.1	1.79	pain	expectrating	2	high_cue	n/a	120.57	Strongest sensation of any kind	120.57	Strongest sensation of any kind	0.48	1.31	task-social/cue/runtype-pain/sch/h047.png	n/a	n/a	n/a	n/a	n/a	n/a	n/a	n/a
57.64	12.370000000000005	pain	stimulus	2	high_cue	med_stim	n/a	n/a	n/a	n/a	n/a	n/a	n/a	57.64	61.4	66.4	70.01	success	n/a	n/a	n/a
76.01	3.37	pain	outcomerating	2	high_cue	med_stim	112.83	Strongest sensation of any kind	112.83	Strongest sensation of any kind	0.82	2.55	task-social/outcomerating/task-pain_scale.png	n/a	n/a	n/a	n/a	success	n/a	n/a	n/a
80.7	1.0	pain	cue	3	low_cue	n/a	n/a	n/a	n/a	n/a	n/a	n/a	task-social/cue/runtype-pain/scl/l014.png	n/a	n/a	n/a	n/a	n/a	n/a	n/a	n/a
83.81	3.27	pain	expectrating	3	low_cue	n/a	85.0	Very Strong	85.0	Very Strong	0.25	3.02	task-social/cue/runtype-pain/scl/l014.png	n/a	n/a	n/a	n/a	n/a	n/a	n/a	n/a
88.34	11.899999999999991	pain	stimulus	3	low_cue	low_stim	n/a	n/a	n/a	n/a	n/a	n/a	n/a	88.34	91.84	96.84	100.24	success	n/a	n/a	n/a
97.8	3.11	pain	outcomerating	3	low_cue	low_stim	71.96	Very Strong	71.96	Very Strong	0.58	2.52	task-social/outcomerating/task-pain_scale.png	n/a	n/a	n/a	n/a	success	n/a	n/a	n/a
110.31	1.0	pain	cue	4	low_cue	n/a	n/a	n/a	n/a	n/a	n/a	n/a	task-social/cue/runtype-pain/scl/l042.png	n/a	n/a	n/a	n/a	n/a	n/a	n/a	n/a
111.81	3.47	pain	expectrating	4	low_cue	n/a	36.32	Strong	36.32	Strong	1.83	1.64	task-social/cue/runtype-pain/scl/l042.png	n/a	n/a	n/a	n/a	n/a	n/a	n/a	n/a
116.63	11.909999999999997	pain	stimulus	4	low_cue	low_stim	n/a	n/a	n/a	n/a	n/a	n/a	n/a	116.63	120.13	125.13	128.53	success	n/a	n/a	n/a
134.72	2.24	pain	outcomerating	4	low_cue	low_stim	38.7	Strong	38.7	Strong	0.5	1.74	task-social/outcomerating/task-pain_scale.png	n/a	n/a	n/a	n/a	success	n/a	n/a	n/a
143.8	1.0	pain	cue	5	high_cue	n/a	n/a	n/a	n/a	n/a	n/a	n/a	task-social/cue/runtype-pain/sch/h031.png	n/a	n/a	n/a	n/a	n/a	n/a	n/a	n/a
146.91	3.62	pain	expectrating	5	high_cue	n/a	129.13	Strongest sensation of any kind	129.13	Strongest sensation of any kind	0.52	3.1	task-social/cue/runtype-pain/sch/h031.png	n/a	n/a	n/a	n/a	n/a	n/a	n/a	n/a
154.65	11.900000000000006	pain	stimulus	5	high_cue	low_stim	n/a	n/a	n/a	n/a	n/a	n/a	n/a	154.65	158.15	163.15	166.55	success	n/a	n/a	n/a
166.61	n/a	pain	outcomerating	5	high_cue	low_stim	n/a	n/a	n/a	n/a	n/a	n/a	task-social/outcomerating/task-pain_scale.png	n/a	n/a	n/a	n/a	success	n/a	n/a	n/a
171.3	1.0	pain	cue	6	high_cue	n/a	n/a	n/a	n/a	n/a	n/a	n/a	task-social/cue/runtype-pain/sch/h003.png	n/a	n/a	n/a	n/a	n/a	n/a	n/a	n/a
173.3	3.6	pain	expectrating	6	high_cue	n/a	100.86	Strongest sensation of any kind	100.86	Strongest sensation of any kind	0.88	2.72	task-social/cue/runtype-pain/sch/h003.png	n/a	n/a	n/a	n/a	n/a	n/a	n/a	n/a
177.89	12.360000000000014	pain	stimulus	6	high_cue	med_stim	n/a	n/a	n/a	n/a	n/a	n/a	n/a	177.89	181.65	186.65	190.26	success	n/a	n/a	n/a
189.6	n/a	pain	outcomerating	6	high_cue	med_stim	n/a	n/a	67.64	Very Strong	2.0	1.75	task-social/outcomerating/task-pain_scale.png	n/a	n/a	n/a	n/a	success	n/a	n/a	n/a
201.11	0.98	pain	cue	7	high_cue	n/a	n/a	n/a	n/a	n/a	n/a	n/a	task-social/cue/runtype-pain/sch/h030.png	n/a	n/a	n/a	n/a	n/a	n/a	n/a	n/a
203.11	3.72	pain	expectrating	7	high_cue	n/a	58.52	Strong	58.52	Strong	0.38	3.33	task-social/cue/runtype-pain/sch/h030.png	n/a	n/a	n/a	n/a	n/a	n/a	n/a	n/a
214.11	11.909999999999997	pain	stimulus	7	high_cue	low_stim	n/a	n/a	n/a	n/a	n/a	n/a	n/a	214.11	217.61	222.61	226.01	success	n/a	n/a	n/a
226.7	2.34	pain	outcomerating	7	high_cue	low_stim	54.02	Strong	54.02	Strong	0.3	2.04	task-social/outcomerating/task-pain_scale.png	n/a	n/a	n/a	n/a	success	n/a	n/a	n/a
234.8	1.0	pain	cue	8	low_cue	n/a	n/a	n/a	n/a	n/a	n/a	n/a	task-social/cue/runtype-pain/scl/l047.png	n/a	n/a	n/a	n/a	n/a	n/a	n/a	n/a
237.31	2.8	pain	expectrating	8	low_cue	n/a	19.56	Moderate	19.56	Moderate	0.55	2.25	task-social/cue/runtype-pain/scl/l047.png	n/a	n/a	n/a	n/a	n/a	n/a	n/a	n/a
249.36	12.819999999999993	pain	stimulus	8	low_cue	high_stim	n/a	n/a	n/a	n/a	n/a	n/a	n/a	249.36	253.37	258.37	262.18	success	n/a	n/a	n/a
260.4	3.37	pain	outcomerating	8	low_cue	high_stim	50.13	Strong	50.13	Strong	1.3	2.07	task-social/outcomerating/task-pain_scale.png	n/a	n/a	n/a	n/a	success	n/a	n/a	n/a
265.1	1.0	pain	cue	9	low_cue	n/a	n/a	n/a	n/a	n/a	n/a	n/a	task-social/cue/runtype-pain/scl/l051.png	n/a	n/a	n/a	n/a	n/a	n/a	n/a	n/a
268.2	3.73	pain	expectrating	9	low_cue	n/a	24.27	Moderate	24.27	Moderate	1.33	2.39	task-social/cue/runtype-pain/scl/l051.png	n/a	n/a	n/a	n/a	n/a	n/a	n/a	n/a
277.96	12.360000000000014	pain	stimulus	9	low_cue	med_stim	n/a	n/a	n/a	n/a	n/a	n/a	n/a	277.96	281.72	286.72	290.33	success	n/a	n/a	n/a
290.01	1.92	pain	outcomerating	9	low_cue	med_stim	25.42	Moderate	25.42	Moderate	0.7	1.22	task-social/outcomerating/task-pain_scale.png	n/a	n/a	n/a	n/a	success	n/a	n/a	n/a
295.49	1.0	pain	cue	10	low_cue	n/a	n/a	n/a	n/a	n/a	n/a	n/a	task-social/cue/runtype-pain/scl/l033.png	n/a	n/a	n/a	n/a	n/a	n/a	n/a	n/a
297.41	2.97	pain	expectrating	10	low_cue	n/a	13.92	Moderate	13.92	Moderate	1.2	1.77	task-social/cue/runtype-pain/scl/l033.png	n/a	n/a	n/a	n/a	n/a	n/a	n/a	n/a
309.13	12.360000000000014	pain	stimulus	10	low_cue	med_stim	n/a	n/a	n/a	n/a	n/a	n/a	n/a	309.13	312.89	317.89	321.5	success	n/a	n/a	n/a
321.7	n/a	pain	outcomerating	10	low_cue	med_stim	n/a	n/a	35.22	Strong	1.12	2.5	task-social/outcomerating/task-pain_scale.png	n/a	n/a	n/a	n/a	success	n/a	n/a	n/a
337.89	1.0	pain	cue	11	high_cue	n/a	n/a	n/a	n/a	n/a	n/a	n/a	task-social/cue/runtype-pain/sch/h037.png	n/a	n/a	n/a	n/a	n/a	n/a	n/a	n/a
340.61	3.48	pain	expectrating	11	high_cue	n/a	125.92	Strongest sensation of any kind	125.92	Strongest sensation of any kind	0.17	3.32	task-social/cue/runtype-pain/sch/h037.png	n/a	n/a	n/a	n/a	n/a	n/a	n/a	n/a
346.04	12.819999999999993	pain	stimulus	11	high_cue	high_stim	n/a	n/a	n/a	n/a	n/a	n/a	n/a	346.04	350.05	355.05	358.86	success	n/a	n/a	n/a
355.5	n/a	pain	outcomerating	11	high_cue	high_stim	n/a	n/a	n/a	n/a	n/a	n/a	task-social/outcomerating/task-pain_scale.png	n/a	n/a	n/a	n/a	success	n/a	n/a	n/a
362.6	1.0	pain	cue	12	high_cue	n/a	n/a	n/a	n/a	n/a	n/a	n/a	task-social/cue/runtype-pain/sch/h001.png	n/a	n/a	n/a	n/a	n/a	n/a	n/a	n/a
364.8	n/a	pain	expectrating	12	high_cue	n/a	n/a	n/a	80.15	Very Strong	0.75	3.98	task-social/cue/runtype-pain/sch/h001.png	n/a	n/a	n/a	n/a	n/a	n/a	n/a	n/a
376.54	12.819999999999993	pain	stimulus	12	high_cue	high_stim	n/a	n/a	n/a	n/a	n/a	n/a	n/a	376.54	380.55	385.55	389.36	success	n/a	n/a	n/a
394.6	n/a	pain	outcomerating	12	high_cue	high_stim	n/a	n/a	79.06	Very Strong	1.93	1.85	task-social/outcomerating/task-pain_scale.png	n/a	n/a	n/a	n/a	success	n/a	n/a	n/a
