onset	duration	run_type	trial_type	trial_index	cue	stimulusintensity	rating_value	rating_glmslabel	rating_value_fillna	rating_glmslabel_fillna	rating_mouseonset	rating_mousedur	stim_file_TODO	pain_onset_ttl1	pain_onset_ttl2	pain_onset_ttl3	pain_onset_ttl4	pain_stimulus_delivery_success	cognitive_correct_response	cognitive_participant_response	cognitive_response_accuracy
10.6	1.0	pain	cue	1	low_cue	n/a	n/a	n/a	n/a	n/a	n/a	n/a	task-social/cue/runtype-pain/scl/l013.png	n/a	n/a	n/a	n/a	n/a	n/a	n/a	n/a
12.3	3.42	pain	expectrating	1	low_cue	n/a	36.18	Strong	36.18	Strong	0.93	2.48	task-social/cue/runtype-pain/scl/l013.png	n/a	n/a	n/a	n/a	n/a	n/a	n/a	n/a
21.16	11.900000000000002	pain	stimulus	1	low_cue	low_stim	n/a	n/a	n/a	n/a	n/a	n/a	n/a	21.16	24.66	29.66	33.06	success	n/a	n/a	n/a
31.09	3.19	pain	outcomerating	1	low_cue	low_stim	42.23	Strong	42.23	Strong	0.93	2.48	task-social/outcomerating/task-pain_scale.png	n/a	n/a	n/a	n/a	success	n/a	n/a	n/a
35.7	1.0	pain	cue	2	low_cue	n/a	n/a	n/a	n/a	n/a	n/a	n/a	task-social/cue/runtype-pain/scl/l004.png	n/a	n/a	n/a	n/a	n/a	n/a	n/a	n/a
38.0	2.4	pain	expectrating	2	low_cue	n/a	25.32	Moderate	25.32	Moderate	0.32	2.09	task-social/cue/runtype-pain/scl/l004.png	n/a	n/a	n/a	n/a	n/a	n/a	n/a	n/a
43.85	12.36	pain	stimulus	2	low_cue	med_stim	n/a	n/a	n/a	n/a	n/a	n/a	n/a	43.85	47.61	52.61	56.22	success	n/a	n/a	n/a
56.3	2.9	pain	outcomerating	2	low_cue	med_stim	32.65	Strong	32.65	Strong	0.32	2.09	task-social/outcomerating/task-pain_scale.png	n/a	n/a	n/a	n/a	success	n/a	n/a	n/a
61.31	0.98	pain	cue	3	low_cue	n/a	n/a	n/a	n/a	n/a	n/a	n/a	task-social/cue/runtype-pain/scl/l046.png	n/a	n/a	n/a	n/a	n/a	n/a	n/a	n/a
64.21	3.35	pain	expectrating	3	low_cue	n/a	31.2	Strong	31.2	Strong	0.35	3.0	task-social/cue/runtype-pain/scl/l046.png	n/a	n/a	n/a	n/a	n/a	n/a	n/a	n/a
72.22	11.909999999999997	pain	stimulus	3	low_cue	low_stim	n/a	n/a	n/a	n/a	n/a	n/a	n/a	72.22	75.72	80.72	84.12	success	n/a	n/a	n/a
86.3	1.97	pain	outcomerating	3	low_cue	low_stim	12.26	Moderate	12.26	Moderate	0.35	3.0	task-social/outcomerating/task-pain_scale.png	n/a	n/a	n/a	n/a	success	n/a	n/a	n/a
91.3	1.0	pain	cue	4	low_cue	n/a	n/a	n/a	n/a	n/a	n/a	n/a	task-social/cue/runtype-pain/scl/l036.png	n/a	n/a	n/a	n/a	n/a	n/a	n/a	n/a
93.7	3.28	pain	expectrating	4	low_cue	n/a	32.54	Strong	32.54	Strong	0.45	2.83	task-social/cue/runtype-pain/scl/l036.png	n/a	n/a	n/a	n/a	n/a	n/a	n/a	n/a
99.84	12.819999999999993	pain	stimulus	4	low_cue	high_stim	n/a	n/a	n/a	n/a	n/a	n/a	n/a	99.84	103.85	108.85	112.66	success	n/a	n/a	n/a
112.31	2.67	pain	outcomerating	4	low_cue	high_stim	78.87	Very Strong	78.87	Very Strong	0.45	2.83	task-social/outcomerating/task-pain_scale.png	n/a	n/a	n/a	n/a	success	n/a	n/a	n/a
119.99	1.0	pain	cue	5	high_cue	n/a	n/a	n/a	n/a	n/a	n/a	n/a	task-social/cue/runtype-pain/sch/h021.png	n/a	n/a	n/a	n/a	n/a	n/a	n/a	n/a
122.91	2.22	pain	expectrating	5	high_cue	n/a	65.01	Very Strong	65.01	Very Strong	0.28	1.94	task-social/cue/runtype-pain/sch/h021.png	n/a	n/a	n/a	n/a	n/a	n/a	n/a	n/a
131.84	12.370000000000005	pain	stimulus	5	high_cue	med_stim	n/a	n/a	n/a	n/a	n/a	n/a	n/a	131.84	135.6	140.6	144.21	success	n/a	n/a	n/a
142.8	2.58	pain	outcomerating	5	high_cue	med_stim	57.46	Strong	57.46	Strong	0.28	1.94	task-social/outcomerating/task-pain_scale.png	n/a	n/a	n/a	n/a	success	n/a	n/a	n/a
153.89	1.0	pain	cue	6	high_cue	n/a	n/a	n/a	n/a	n/a	n/a	n/a	task-social/cue/runtype-pain/sch/h031.png	n/a	n/a	n/a	n/a	n/a	n/a	n/a	n/a
155.81	1.7	pain	expectrating	6	high_cue	n/a	61.17	Strong	61.17	Strong	0.3	1.4	task-social/cue/runtype-pain/sch/h031.png	n/a	n/a	n/a	n/a	n/a	n/a	n/a	n/a
167.85	12.819999999999993	pain	stimulus	6	high_cue	high_stim	n/a	n/a	n/a	n/a	n/a	n/a	n/a	167.85	171.86	176.86	180.67	success	n/a	n/a	n/a
184.2	3.07	pain	outcomerating	6	high_cue	high_stim	66.74	Very Strong	66.74	Very Strong	0.3	1.4	task-social/outcomerating/task-pain_scale.png	n/a	n/a	n/a	n/a	success	n/a	n/a	n/a
194.2	0.98	pain	cue	7	high_cue	n/a	n/a	n/a	n/a	n/a	n/a	n/a	task-social/cue/runtype-pain/sch/h028.png	n/a	n/a	n/a	n/a	n/a	n/a	n/a	n/a
197.01	2.43	pain	expectrating	7	high_cue	n/a	84.89	Very Strong	84.89	Very Strong	0.18	2.25	task-social/cue/runtype-pain/sch/h028.png	n/a	n/a	n/a	n/a	n/a	n/a	n/a	n/a
204.23	12.360000000000014	pain	stimulus	7	high_cue	med_stim	n/a	n/a	n/a	n/a	n/a	n/a	n/a	204.23	207.99	212.99	216.6	success	n/a	n/a	n/a
214.2	3.99	pain	outcomerating	7	high_cue	med_stim	44.67	Strong	44.67	Strong	0.18	2.25	task-social/outcomerating/task-pain_scale.png	n/a	n/a	n/a	n/a	success	n/a	n/a	n/a
219.2	1.0	pain	cue	8	high_cue	n/a	n/a	n/a	n/a	n/a	n/a	n/a	task-social/cue/runtype-pain/sch/h001.png	n/a	n/a	n/a	n/a	n/a	n/a	n/a	n/a
222.1	3.04	pain	expectrating	8	high_cue	n/a	65.34	Very Strong	65.34	Very Strong	0.33	2.7	task-social/cue/runtype-pain/sch/h001.png	n/a	n/a	n/a	n/a	n/a	n/a	n/a	n/a
232.54	11.900000000000006	pain	stimulus	8	high_cue	low_stim	n/a	n/a	n/a	n/a	n/a	n/a	n/a	232.54	236.04	241.04	244.44	success	n/a	n/a	n/a
242.71	1.93	pain	outcomerating	8	high_cue	low_stim	41.87	Strong	41.87	Strong	0.33	2.7	task-social/outcomerating/task-pain_scale.png	n/a	n/a	n/a	n/a	success	n/a	n/a	n/a
251.39	1.0	pain	cue	9	high_cue	n/a	n/a	n/a	n/a	n/a	n/a	n/a	task-social/cue/runtype-pain/sch/h043.png	n/a	n/a	n/a	n/a	n/a	n/a	n/a	n/a
253.79	3.02	pain	expectrating	9	high_cue	n/a	55.29	Strong	55.29	Strong	0.37	2.66	task-social/cue/runtype-pain/sch/h043.png	n/a	n/a	n/a	n/a	n/a	n/a	n/a	n/a
264.72	11.899999999999977	pain	stimulus	9	high_cue	low_stim	n/a	n/a	n/a	n/a	n/a	n/a	n/a	264.72	268.22	273.22	276.62	success	n/a	n/a	n/a
280.8	3.25	pain	outcomerating	9	high_cue	low_stim	30.57	Strong	30.57	Strong	0.37	2.66	task-social/outcomerating/task-pain_scale.png	n/a	n/a	n/a	n/a	success	n/a	n/a	n/a
285.79	1.0	pain	cue	10	high_cue	n/a	n/a	n/a	n/a	n/a	n/a	n/a	task-social/cue/runtype-pain/sch/h007.png	n/a	n/a	n/a	n/a	n/a	n/a	n/a	n/a
289.01	3.99	pain	expectrating	10	high_cue	n/a	43.51	Strong	43.51	Strong	0.17	3.82	task-social/cue/runtype-pain/sch/h007.png	n/a	n/a	n/a	n/a	n/a	n/a	n/a	n/a
296.05	12.829999999999984	pain	stimulus	10	high_cue	high_stim	n/a	n/a	n/a	n/a	n/a	n/a	n/a	296.05	300.06	305.06	308.87	success	n/a	n/a	n/a
311.3	3.05	pain	outcomerating	10	high_cue	high_stim	96.44	Very Strong	96.44	Very Strong	0.17	3.82	task-social/outcomerating/task-pain_scale.png	n/a	n/a	n/a	n/a	success	n/a	n/a	n/a
326.2	1.0	pain	cue	11	low_cue	n/a	n/a	n/a	n/a	n/a	n/a	n/a	task-social/cue/runtype-pain/scl/l027.png	n/a	n/a	n/a	n/a	n/a	n/a	n/a	n/a
328.1	2.38	pain	expectrating	11	low_cue	n/a	42.24	Strong	42.24	Strong	0.6	1.78	task-social/cue/runtype-pain/scl/l027.png	n/a	n/a	n/a	n/a	n/a	n/a	n/a	n/a
340.42	12.359999999999957	pain	stimulus	11	low_cue	med_stim	n/a	n/a	n/a	n/a	n/a	n/a	n/a	340.42	344.18	349.18	352.79	success	n/a	n/a	n/a
353.3	2.45	pain	outcomerating	11	low_cue	med_stim	35.22	Strong	35.22	Strong	0.6	1.78	task-social/outcomerating/task-pain_scale.png	n/a	n/a	n/a	n/a	success	n/a	n/a	n/a
366.4	1.0	pain	cue	12	low_cue	n/a	n/a	n/a	n/a	n/a	n/a	n/a	task-social/cue/runtype-pain/scl/l029.png	n/a	n/a	n/a	n/a	n/a	n/a	n/a	n/a
369.2	2.9	pain	expectrating	12	low_cue	n/a	20.26	Moderate	20.26	Moderate	0.13	2.77	task-social/cue/runtype-pain/scl/l029.png	n/a	n/a	n/a	n/a	n/a	n/a	n/a	n/a
373.82	12.829999999999984	pain	stimulus	12	low_cue	high_stim	n/a	n/a	n/a	n/a	n/a	n/a	n/a	373.82	377.83	382.83	386.64	success	n/a	n/a	n/a
394.8	3.51	pain	outcomerating	12	low_cue	high_stim	21.63	Moderate	21.63	Moderate	0.13	2.77	task-social/outcomerating/task-pain_scale.png	n/a	n/a	n/a	n/a	success	n/a	n/a	n/a
