onset	duration	run_type	trial_type	trial_index	cue	stimulusintensity	rating_value	rating_glmslabel	rating_value_fillna	rating_glmslabel_fillna	rating_mouseonset	rating_mousedur	stim_file	pain_onset_ttl1	pain_onset_ttl2	pain_onset_ttl3	pain_onset_ttl4	pain_stimulus_delivery_success	cognitive_correct_response	cognitive_participant_response	cognitive_response_accuracy
5.7	0.98	cognitive	cue	1	low_cue	n/a	n/a	n/a	n/a	n/a	n/a	n/a	task-social/cue/runtype-cognitive/scl/l044.png	n/a	n/a	n/a	n/a	n/a	n/a	n/a	n/a
9.04	3.77	cognitive	expectrating	1	low_cue	n/a	23.05	Moderate	23.05	Moderate	1.45	2.32	task-social/cue/runtype-cognitive/scl/l044.png	n/a	n/a	n/a	n/a	n/a	n/a	n/a	n/a
19.41	5.0	cognitive	stimulus	1	low_cue	med_stim	n/a	n/a	n/a	n/a	n/a	n/a	task-social/stim/runtype-cognitive/22_100.jpg	n/a	n/a	n/a	n/a	n/a	same	diff	False
28.09	3.22	cognitive	outcomerating	1	low_cue	med_stim	12.63	Moderate	12.63	Moderate	1.45	2.32	task-social/outcomerating/task-cognitive_scale.png	n/a	n/a	n/a	n/a	n/a	n/a	n/a	n/a
34.99	0.98	cognitive	cue	2	high_cue	n/a	n/a	n/a	n/a	n/a	n/a	n/a	task-social/cue/runtype-cognitive/sch/h034.png	n/a	n/a	n/a	n/a	n/a	n/a	n/a	n/a
37.7	3.6	cognitive	expectrating	2	high_cue	n/a	42.68	Strong	42.68	Strong	0.7	2.9	task-social/cue/runtype-cognitive/sch/h034.png	n/a	n/a	n/a	n/a	n/a	n/a	n/a	n/a
44.7	5.0	cognitive	stimulus	2	high_cue	low_stim	n/a	n/a	n/a	n/a	n/a	n/a	task-social/stim/runtype-cognitive/24_50.jpg	n/a	n/a	n/a	n/a	n/a	same	same	True
58.2	3.34	cognitive	outcomerating	2	high_cue	low_stim	17.03	Moderate	17.03	Moderate	0.7	2.9	task-social/outcomerating/task-cognitive_scale.png	n/a	n/a	n/a	n/a	n/a	n/a	n/a	n/a
62.69	0.99	cognitive	cue	3	low_cue	n/a	n/a	n/a	n/a	n/a	n/a	n/a	task-social/cue/runtype-cognitive/scl/l050.png	n/a	n/a	n/a	n/a	n/a	n/a	n/a	n/a
65.91	1.84	cognitive	expectrating	3	low_cue	n/a	0.72	No sensation	0.72	No sensation	0.43	1.4	task-social/cue/runtype-cognitive/scl/l050.png	n/a	n/a	n/a	n/a	n/a	n/a	n/a	n/a
78.39	5.0	cognitive	stimulus	3	low_cue	high_stim	n/a	n/a	n/a	n/a	n/a	n/a	task-social/stim/runtype-cognitive/24_150_R.jpg	n/a	n/a	n/a	n/a	n/a	diff	n/a	False
91.6	3.37	cognitive	outcomerating	3	low_cue	high_stim	17.71	Moderate	17.71	Moderate	0.43	1.4	task-social/outcomerating/task-cognitive_scale.png	n/a	n/a	n/a	n/a	n/a	n/a	n/a	n/a
96.08	0.99	cognitive	cue	4	high_cue	n/a	n/a	n/a	n/a	n/a	n/a	n/a	task-social/cue/runtype-cognitive/sch/h003.png	n/a	n/a	n/a	n/a	n/a	n/a	n/a	n/a
98.4	2.84	cognitive	expectrating	4	high_cue	n/a	78.37	Very Strong	78.37	Very Strong	0.05	2.79	task-social/cue/runtype-cognitive/sch/h003.png	n/a	n/a	n/a	n/a	n/a	n/a	n/a	n/a
106.59	5.0	cognitive	stimulus	4	high_cue	med_stim	n/a	n/a	n/a	n/a	n/a	n/a	task-social/stim/runtype-cognitive/9_100_R.jpg	n/a	n/a	n/a	n/a	n/a	diff	diff	True
114.79	3.23	cognitive	outcomerating	4	high_cue	med_stim	59.71	Strong	59.71	Strong	0.05	2.79	task-social/outcomerating/task-cognitive_scale.png	n/a	n/a	n/a	n/a	n/a	n/a	n/a	n/a
131.6	0.98	cognitive	cue	5	low_cue	n/a	n/a	n/a	n/a	n/a	n/a	n/a	task-social/cue/runtype-cognitive/scl/l055.png	n/a	n/a	n/a	n/a	n/a	n/a	n/a	n/a
134.3	2.62	cognitive	expectrating	5	low_cue	n/a	0.75	No sensation	0.75	No sensation	0.6	2.02	task-social/cue/runtype-cognitive/scl/l055.png	n/a	n/a	n/a	n/a	n/a	n/a	n/a	n/a
143.0	5.0	cognitive	stimulus	5	low_cue	med_stim	n/a	n/a	n/a	n/a	n/a	n/a	task-social/stim/runtype-cognitive/23_100_R.jpg	n/a	n/a	n/a	n/a	n/a	diff	same	False
156.21	2.62	cognitive	outcomerating	5	low_cue	med_stim	16.77	Moderate	16.77	Moderate	0.6	2.02	task-social/outcomerating/task-cognitive_scale.png	n/a	n/a	n/a	n/a	n/a	n/a	n/a	n/a
163.39	0.99	cognitive	cue	6	low_cue	n/a	n/a	n/a	n/a	n/a	n/a	n/a	task-social/cue/runtype-cognitive/scl/l013.png	n/a	n/a	n/a	n/a	n/a	n/a	n/a	n/a
165.69	2.75	cognitive	expectrating	6	low_cue	n/a	6.29	Weak	6.29	Weak	1.77	0.98	task-social/cue/runtype-cognitive/scl/l013.png	n/a	n/a	n/a	n/a	n/a	n/a	n/a	n/a
180.8	5.0	cognitive	stimulus	6	low_cue	high_stim	n/a	n/a	n/a	n/a	n/a	n/a	task-social/stim/runtype-cognitive/43_150_R.jpg	n/a	n/a	n/a	n/a	n/a	diff	diff	True
188.6	2.32	cognitive	outcomerating	6	low_cue	high_stim	16.61	Moderate	16.61	Moderate	1.77	0.98	task-social/outcomerating/task-cognitive_scale.png	n/a	n/a	n/a	n/a	n/a	n/a	n/a	n/a
193.39	0.99	cognitive	cue	7	high_cue	n/a	n/a	n/a	n/a	n/a	n/a	n/a	task-social/cue/runtype-cognitive/sch/h022.png	n/a	n/a	n/a	n/a	n/a	n/a	n/a	n/a
194.99	3.59	cognitive	expectrating	7	high_cue	n/a	63.85	Strong	63.85	Strong	0.77	2.82	task-social/cue/runtype-cognitive/sch/h022.png	n/a	n/a	n/a	n/a	n/a	n/a	n/a	n/a
203.19	5.0	cognitive	stimulus	7	high_cue	high_stim	n/a	n/a	n/a	n/a	n/a	n/a	task-social/stim/runtype-cognitive/10_150.jpg	n/a	n/a	n/a	n/a	n/a	same	same	True
227.9	2.81	cognitive	outcomerating	7	high_cue	high_stim	36.87	Strong	36.87	Strong	0.77	2.82	task-social/outcomerating/task-cognitive_scale.png	n/a	n/a	n/a	n/a	n/a	n/a	n/a	n/a
234.39	0.99	cognitive	cue	8	low_cue	n/a	n/a	n/a	n/a	n/a	n/a	n/a	task-social/cue/runtype-cognitive/scl/l030.png	n/a	n/a	n/a	n/a	n/a	n/a	n/a	n/a
235.99	3.16	cognitive	expectrating	8	low_cue	n/a	8.33	Weak	8.33	Weak	0.62	2.54	task-social/cue/runtype-cognitive/scl/l030.png	n/a	n/a	n/a	n/a	n/a	n/a	n/a	n/a
243.89	5.0	cognitive	stimulus	8	low_cue	low_stim	n/a	n/a	n/a	n/a	n/a	n/a	task-social/stim/runtype-cognitive/17_50.jpg	n/a	n/a	n/a	n/a	n/a	same	same	True
252.89	3.1	cognitive	outcomerating	8	low_cue	low_stim	22.53	Moderate	22.53	Moderate	0.62	2.54	task-social/outcomerating/task-cognitive_scale.png	n/a	n/a	n/a	n/a	n/a	n/a	n/a	n/a
259.09	0.98	cognitive	cue	9	low_cue	n/a	n/a	n/a	n/a	n/a	n/a	n/a	task-social/cue/runtype-cognitive/scl/l046.png	n/a	n/a	n/a	n/a	n/a	n/a	n/a	n/a
261.0	2.28	cognitive	expectrating	9	low_cue	n/a	18.05	Moderate	18.05	Moderate	0.72	1.57	task-social/cue/runtype-cognitive/scl/l046.png	n/a	n/a	n/a	n/a	n/a	n/a	n/a	n/a
276.1	5.0	cognitive	stimulus	9	low_cue	low_stim	n/a	n/a	n/a	n/a	n/a	n/a	task-social/stim/runtype-cognitive/34_50.jpg	n/a	n/a	n/a	n/a	n/a	same	same	True
291.01	3.4	cognitive	outcomerating	9	low_cue	low_stim	15.44	Moderate	15.44	Moderate	0.72	1.57	task-social/outcomerating/task-cognitive_scale.png	n/a	n/a	n/a	n/a	n/a	n/a	n/a	n/a
307.8	0.98	cognitive	cue	10	high_cue	n/a	n/a	n/a	n/a	n/a	n/a	n/a	task-social/cue/runtype-cognitive/sch/h040.png	n/a	n/a	n/a	n/a	n/a	n/a	n/a	n/a
311.0	3.8	cognitive	expectrating	10	high_cue	n/a	29.1	Strong	29.1	Strong	0.82	2.98	task-social/cue/runtype-cognitive/sch/h040.png	n/a	n/a	n/a	n/a	n/a	n/a	n/a	n/a
318.9	5.0	cognitive	stimulus	10	high_cue	low_stim	n/a	n/a	n/a	n/a	n/a	n/a	task-social/stim/runtype-cognitive/23_50.jpg	n/a	n/a	n/a	n/a	n/a	same	n/a	False
327.59	2.3	cognitive	outcomerating	10	high_cue	low_stim	29.03	Strong	29.03	Strong	0.82	2.98	task-social/outcomerating/task-cognitive_scale.png	n/a	n/a	n/a	n/a	n/a	n/a	n/a	n/a
340.69	0.99	cognitive	cue	11	high_cue	n/a	n/a	n/a	n/a	n/a	n/a	n/a	task-social/cue/runtype-cognitive/sch/h046.png	n/a	n/a	n/a	n/a	n/a	n/a	n/a	n/a
342.59	3.47	cognitive	expectrating	11	high_cue	n/a	41.97	Strong	41.97	Strong	0.05	3.42	task-social/cue/runtype-cognitive/sch/h046.png	n/a	n/a	n/a	n/a	n/a	n/a	n/a	n/a
355.3	5.0	cognitive	stimulus	11	high_cue	med_stim	n/a	n/a	n/a	n/a	n/a	n/a	task-social/stim/runtype-cognitive/17_100_R.jpg	n/a	n/a	n/a	n/a	n/a	diff	diff	True
363.8	3.1	cognitive	outcomerating	11	high_cue	med_stim	34.33	Strong	34.33	Strong	0.05	3.42	task-social/outcomerating/task-cognitive_scale.png	n/a	n/a	n/a	n/a	n/a	n/a	n/a	n/a
371.49	0.99	cognitive	cue	12	high_cue	n/a	n/a	n/a	n/a	n/a	n/a	n/a	task-social/cue/runtype-cognitive/sch/h008.png	n/a	n/a	n/a	n/a	n/a	n/a	n/a	n/a
374.8	3.45	cognitive	expectrating	12	high_cue	n/a	56.65	Strong	56.65	Strong	0.78	2.67	task-social/cue/runtype-cognitive/sch/h008.png	n/a	n/a	n/a	n/a	n/a	n/a	n/a	n/a
387.29	5.0	cognitive	stimulus	12	high_cue	high_stim	n/a	n/a	n/a	n/a	n/a	n/a	task-social/stim/runtype-cognitive/34_150_R.jpg	n/a	n/a	n/a	n/a	n/a	diff	diff	True
395.1	2.22	cognitive	outcomerating	12	high_cue	high_stim	39.06	Strong	39.06	Strong	0.78	2.67	task-social/outcomerating/task-cognitive_scale.png	n/a	n/a	n/a	n/a	n/a	n/a	n/a	n/a
