onset	duration	run_type	trial_type	trial_index	cue	stimulusintensity	rating_value	rating_glmslabel	rating_value_fillna	rating_glmslabel_fillna	rating_mouseonset	rating_mousedur	stim_file	pain_onset_ttl1	pain_onset_ttl2	pain_onset_ttl3	pain_onset_ttl4	pain_stimulus_delivery_success	cognitive_correct_response	cognitive_participant_response	cognitive_response_accuracy
5.69	1.0	pain	cue	1	low_cue	n/a	n/a	n/a	n/a	n/a	n/a	n/a	task-social/cue/runtype-pain/scl/l021.png	n/a	n/a	n/a	n/a	n/a	n/a	n/a	n/a
7.71	2.27	pain	expectrating	1	low_cue	n/a	6.93	Weak	6.93	Weak	0.42	1.86	task-social/cue/runtype-pain/scl/l021.png	n/a	n/a	n/a	n/a	n/a	n/a	n/a	n/a
13.74	12.37	pain	stimulus	1	low_cue	med_stim	n/a	n/a	n/a	n/a	n/a	n/a	n/a	13.74	17.5	22.5	26.11	success	n/a	n/a	n/a
27.9	3.23	pain	outcomerating	1	low_cue	med_stim	12.75	Moderate	12.75	Moderate	0.72	2.52	task-social/outcomerating/task-pain_scale.png	n/a	n/a	n/a	n/a	success	n/a	n/a	n/a
33.4	1.0	pain	cue	2	low_cue	n/a	n/a	n/a	n/a	n/a	n/a	n/a	task-social/cue/runtype-pain/scl/l014.png	n/a	n/a	n/a	n/a	n/a	n/a	n/a	n/a
35.7	2.35	pain	expectrating	2	low_cue	n/a	14.6	Moderate	14.6	Moderate	0.7	1.65	task-social/cue/runtype-pain/scl/l014.png	n/a	n/a	n/a	n/a	n/a	n/a	n/a	n/a
44.52	11.909999999999997	pain	stimulus	2	low_cue	low_stim	n/a	n/a	n/a	n/a	n/a	n/a	n/a	44.52	48.02	53.02	56.42	success	n/a	n/a	n/a
55.39	1.89	pain	outcomerating	2	low_cue	low_stim	12.63	Moderate	12.63	Moderate	0.58	1.3	task-social/outcomerating/task-pain_scale.png	n/a	n/a	n/a	n/a	success	n/a	n/a	n/a
71.1	1.0	pain	cue	3	low_cue	n/a	n/a	n/a	n/a	n/a	n/a	n/a	task-social/cue/runtype-pain/scl/l023.png	n/a	n/a	n/a	n/a	n/a	n/a	n/a	n/a
73.4	2.78	pain	expectrating	3	low_cue	n/a	10.18	Moderate	10.18	Moderate	0.83	1.95	task-social/cue/runtype-pain/scl/l023.png	n/a	n/a	n/a	n/a	n/a	n/a	n/a	n/a
82.22	12.820000000000007	pain	stimulus	3	low_cue	high_stim	n/a	n/a	n/a	n/a	n/a	n/a	n/a	82.22	86.23	91.23	95.04	success	n/a	n/a	n/a
93.3	3.72	pain	outcomerating	3	low_cue	high_stim	37.51	Strong	37.51	Strong	1.18	2.54	task-social/outcomerating/task-pain_scale.png	n/a	n/a	n/a	n/a	success	n/a	n/a	n/a
100.69	1.0	pain	cue	4	high_cue	n/a	n/a	n/a	n/a	n/a	n/a	n/a	task-social/cue/runtype-pain/sch/h043.png	n/a	n/a	n/a	n/a	n/a	n/a	n/a	n/a
103.49	2.47	pain	expectrating	4	high_cue	n/a	25.74	Moderate	25.74	Moderate	0.58	1.89	task-social/cue/runtype-pain/sch/h043.png	n/a	n/a	n/a	n/a	n/a	n/a	n/a	n/a
112.82	11.91000000000001	pain	stimulus	4	high_cue	low_stim	n/a	n/a	n/a	n/a	n/a	n/a	n/a	112.82	116.32	121.32	124.72	success	n/a	n/a	n/a
124.7	1.87	pain	outcomerating	4	high_cue	low_stim	28.83	Moderate	28.83	Moderate	0.35	1.52	task-social/outcomerating/task-pain_scale.png	n/a	n/a	n/a	n/a	success	n/a	n/a	n/a
135.8	0.98	pain	cue	5	high_cue	n/a	n/a	n/a	n/a	n/a	n/a	n/a	task-social/cue/runtype-pain/sch/h018.png	n/a	n/a	n/a	n/a	n/a	n/a	n/a	n/a
137.5	3.99	pain	expectrating	5	high_cue	n/a	23.87	Moderate	23.87	Moderate	0.93	3.06	task-social/cue/runtype-pain/sch/h018.png	n/a	n/a	n/a	n/a	n/a	n/a	n/a	n/a
147.83	12.359999999999985	pain	stimulus	5	high_cue	med_stim	n/a	n/a	n/a	n/a	n/a	n/a	n/a	147.83	151.59	156.59	160.2	success	n/a	n/a	n/a
159.7	3.2	pain	outcomerating	5	high_cue	med_stim	36.04	Strong	36.04	Strong	0.45	2.75	task-social/outcomerating/task-pain_scale.png	n/a	n/a	n/a	n/a	success	n/a	n/a	n/a
170.6	0.98	pain	cue	6	high_cue	n/a	n/a	n/a	n/a	n/a	n/a	n/a	task-social/cue/runtype-pain/sch/h014.png	n/a	n/a	n/a	n/a	n/a	n/a	n/a	n/a
172.4	2.78	pain	expectrating	6	high_cue	n/a	26.36	Moderate	26.36	Moderate	0.68	2.1	task-social/cue/runtype-pain/sch/h014.png	n/a	n/a	n/a	n/a	n/a	n/a	n/a	n/a
179.02	12.829999999999984	pain	stimulus	6	high_cue	high_stim	n/a	n/a	n/a	n/a	n/a	n/a	n/a	179.02	183.03	188.03	191.84	success	n/a	n/a	n/a
190.89	2.17	pain	outcomerating	6	high_cue	high_stim	47.11	Strong	47.11	Strong	0.78	1.39	task-social/outcomerating/task-pain_scale.png	n/a	n/a	n/a	n/a	success	n/a	n/a	n/a
196.89	1.0	pain	cue	7	high_cue	n/a	n/a	n/a	n/a	n/a	n/a	n/a	task-social/cue/runtype-pain/sch/h001.png	n/a	n/a	n/a	n/a	n/a	n/a	n/a	n/a
199.89	3.55	pain	expectrating	7	high_cue	n/a	46.95	Strong	46.95	Strong	1.35	2.2	task-social/cue/runtype-pain/sch/h001.png	n/a	n/a	n/a	n/a	n/a	n/a	n/a	n/a
210.21	11.909999999999997	pain	stimulus	7	high_cue	low_stim	n/a	n/a	n/a	n/a	n/a	n/a	n/a	210.21	213.71	218.71	222.11	success	n/a	n/a	n/a
230.99	2.96	pain	outcomerating	7	high_cue	low_stim	20.85	Moderate	20.85	Moderate	0.55	2.41	task-social/outcomerating/task-pain_scale.png	n/a	n/a	n/a	n/a	success	n/a	n/a	n/a
236.99	1.0	pain	cue	8	low_cue	n/a	n/a	n/a	n/a	n/a	n/a	n/a	task-social/cue/runtype-pain/scl/l012.png	n/a	n/a	n/a	n/a	n/a	n/a	n/a	n/a
239.69	n/a	pain	expectrating	8	low_cue	n/a	n/a	n/a	4.59	Weak	0.65	3.85	task-social/cue/runtype-pain/scl/l012.png	n/a	n/a	n/a	n/a	n/a	n/a	n/a	n/a
249.34	12.820000000000022	pain	stimulus	8	low_cue	high_stim	n/a	n/a	n/a	n/a	n/a	n/a	n/a	249.34	253.35	258.35	262.16	success	n/a	n/a	n/a
259.3	3.15	pain	outcomerating	8	low_cue	high_stim	41.92	Strong	41.92	Strong	1.1	2.05	task-social/outcomerating/task-pain_scale.png	n/a	n/a	n/a	n/a	success	n/a	n/a	n/a
268.29	1.0	pain	cue	9	high_cue	n/a	n/a	n/a	n/a	n/a	n/a	n/a	task-social/cue/runtype-pain/sch/h050.png	n/a	n/a	n/a	n/a	n/a	n/a	n/a	n/a
271.3	2.37	pain	expectrating	9	high_cue	n/a	21.84	Moderate	21.84	Moderate	0.47	1.91	task-social/cue/runtype-pain/sch/h050.png	n/a	n/a	n/a	n/a	n/a	n/a	n/a	n/a
277.23	12.819999999999993	pain	stimulus	9	high_cue	high_stim	n/a	n/a	n/a	n/a	n/a	n/a	n/a	277.23	281.24	286.24	290.05	success	n/a	n/a	n/a
295.7	3.28	pain	outcomerating	9	high_cue	high_stim	50.08	Strong	50.08	Strong	0.33	2.95	task-social/outcomerating/task-pain_scale.png	n/a	n/a	n/a	n/a	success	n/a	n/a	n/a
301.9	1.0	pain	cue	10	low_cue	n/a	n/a	n/a	n/a	n/a	n/a	n/a	task-social/cue/runtype-pain/scl/l017.png	n/a	n/a	n/a	n/a	n/a	n/a	n/a	n/a
304.2	2.43	pain	expectrating	10	low_cue	n/a	8.75	Weak	8.75	Weak	0.4	2.03	task-social/cue/runtype-pain/scl/l017.png	n/a	n/a	n/a	n/a	n/a	n/a	n/a	n/a
314.54	12.359999999999957	pain	stimulus	10	low_cue	med_stim	n/a	n/a	n/a	n/a	n/a	n/a	n/a	314.54	318.3	323.3	326.91	success	n/a	n/a	n/a
327.69	2.55	pain	outcomerating	10	low_cue	med_stim	30.37	Strong	30.37	Strong	0.4	2.15	task-social/outcomerating/task-pain_scale.png	n/a	n/a	n/a	n/a	success	n/a	n/a	n/a
333.89	1.0	pain	cue	11	high_cue	n/a	n/a	n/a	n/a	n/a	n/a	n/a	task-social/cue/runtype-pain/sch/h003.png	n/a	n/a	n/a	n/a	n/a	n/a	n/a	n/a
336.89	2.15	pain	expectrating	11	high_cue	n/a	35.86	Strong	35.86	Strong	0.53	1.62	task-social/cue/runtype-pain/sch/h003.png	n/a	n/a	n/a	n/a	n/a	n/a	n/a	n/a
347.22	12.369999999999948	pain	stimulus	11	high_cue	med_stim	n/a	n/a	n/a	n/a	n/a	n/a	n/a	347.22	350.98	355.98	359.59	success	n/a	n/a	n/a
361.6	n/a	pain	outcomerating	11	high_cue	med_stim	n/a	n/a	36.68	Strong	0.45	3.47	task-social/outcomerating/task-pain_scale.png	n/a	n/a	n/a	n/a	success	n/a	n/a	n/a
372.49	1.0	pain	cue	12	low_cue	n/a	n/a	n/a	n/a	n/a	n/a	n/a	task-social/cue/runtype-pain/scl/l039.png	n/a	n/a	n/a	n/a	n/a	n/a	n/a	n/a
375.49	2.22	pain	expectrating	12	low_cue	n/a	29.03	Strong	29.03	Strong	0.73	1.48	task-social/cue/runtype-pain/scl/l039.png	n/a	n/a	n/a	n/a	n/a	n/a	n/a	n/a
381.43	11.899999999999977	pain	stimulus	12	low_cue	low_stim	n/a	n/a	n/a	n/a	n/a	n/a	n/a	381.43	384.93	389.93	393.33	success	n/a	n/a	n/a
394.7	2.57	pain	outcomerating	12	low_cue	low_stim	9.69	Weak	9.69	Weak	0.48	2.08	task-social/outcomerating/task-pain_scale.png	n/a	n/a	n/a	n/a	success	n/a	n/a	n/a
