onset	duration	subtask_type	event_type	value	response_accuracy	stim_file_TODO	participant_response	reaction_time
7.92	1.034	memory	dummy	study_dummy	n/a	task-memory/obj038broom.png	n/a	n/a
9.971	1.034	memory	dummy	study_dummy	n/a	task-memory/obj104fish.png	n/a	n/a
12.022	1.034	memory	dummy	study_dummy	n/a	task-memory/obj205pan.png	n/a	n/a
14.072	1.034	memory	study	study	n/a	task-memory/obj159knot.png	n/a	n/a
16.123	1.034	memory	study	study	n/a	task-memory/obj231pumpkin.png	n/a	n/a
18.174	1.017	memory	study	study	n/a	task-memory/obj072crab.png	n/a	n/a
20.225	1.017	memory	study	study	n/a	task-memory/obj203paintbrush.png	n/a	n/a
22.275	1.017	memory	study	study	n/a	task-memory/obj255sailor.png	n/a	n/a
24.326	1.017	memory	study	study	n/a	task-memory/obj157knife.png	n/a	n/a
26.36	1.017	memory	study	study	n/a	task-memory/obj130hammock.png	n/a	n/a
28.394	1.017	memory	study	study	n/a	task-memory/obj086door.png	n/a	n/a
30.428	1.017	memory	study	study	n/a	task-memory/obj238rain.png	n/a	n/a
32.463	1.017	memory	study	study	n/a	task-memory/obj077deer.png	n/a	n/a
34.497	1.017	memory	study	study	n/a	task-memory/obj207pants.png	n/a	n/a
36.531	1.017	memory	study	study	n/a	task-memory/obj202package.png	n/a	n/a
38.565	1.017	memory	study	study	n/a	task-memory/obj061church.png	n/a	n/a
40.599	1.017	memory	study	study	n/a	task-memory/obj110football.png	n/a	n/a
42.633	1.017	memory	study	study	n/a	task-memory/obj161lamp.png	n/a	n/a
44.667	1.017	memory	study	study	n/a	task-memory/obj346yoyo.png	n/a	n/a
46.701	1.017	memory	study	study	n/a	task-memory/obj119girl.png	n/a	n/a
48.735	1.017	memory	study	study	n/a	task-memory/obj181microphone.png	n/a	n/a
50.769	1.017	memory	study	study	n/a	task-memory/obj001accordion.png	n/a	n/a
52.803	1.017	memory	study	study	n/a	task-memory/obj051car.png	n/a	n/a
54.838	1.017	memory	dummy	study_dummy	n/a	task-memory/obj211peanut.png	n/a	n/a
56.872	1.017	memory	dummy	study_dummy	n/a	task-memory/obj251rose.png	n/a	n/a
58.906	1.034	memory	dummy	study_dummy	n/a	task-memory/obj252ruler.png	n/a	n/a
71.044	25.0	memory	distraction_math	math	n/a	n/a	n/a	n/a
99.104	25.0	memory	distraction_math	math	n/a	n/a	n/a	n/a
127.165	25.0	memory	distraction_math	math	n/a	n/a	n/a	n/a
155.225	25.0	memory	distraction_math	math	n/a	n/a	n/a	n/a
188.704	1.541	memory	test	test_new	correct	task-memory/obj042cactus.png	new	n/a
191.655	0.926	memory	test	test_new	correct	task-memory/obj141hoof.png	new	n/a
194.523	1.111	memory	test	test_new	correct	task-memory/obj034bowl.png	new	n/a
197.124	1.563	memory	test	test_new	correct	task-memory/obj293table.png	new	n/a
199.842	1.045	memory	test	test_new	correct	task-memory/obj300thermos.png	new	n/a
202.409	0.843	memory	test	test_old	correct	task-memory/obj086door.png	old	n/a
205.21	0.865	memory	test	test_old	correct	task-memory/obj161lamp.png	old	n/a
208.228	0.777	memory	test	test_old	correct	task-memory/obj061church.png	old	n/a
210.796	1.184	memory	test	test_new	correct	task-memory/obj215pencilsharpener.png	new	n/a
213.547	1.21	memory	test	test_new	correct	task-memory/obj052carrot.png	new	n/a
216.431	0.915	memory	test	test_new	correct	task-memory/obj145house.png	new	n/a
219.032	0.737	memory	test	test_old	correct	task-memory/obj255sailor.png	old	n/a
221.633	1.157	memory	test	test_new	correct	task-memory/obj011backpack.png	new	n/a
224.234	1.279	memory	test	test_new	incorrect	task-memory/obj048candle.png	old	n/a
227.252	0.973	memory	test	test_old	correct	task-memory/obj119girl.png	old	n/a
230.086	1.045	memory	test	test_new	correct	task-memory/obj064clock.png	new	n/a
232.687	1.024	memory	test	test_new	correct	task-memory/obj323vacuum.png	new	n/a
235.438	0.943	memory	test	test_new	correct	task-memory/obj146igloo.png	new	n/a
238.439	0.871	memory	test	test_old	correct	task-memory/obj130hammock.png	old	n/a
241.09	0.942	memory	test	test_old	correct	task-memory/obj157knife.png	old	n/a
243.791	0.968	memory	test	test_new	correct	task-memory/obj102finger.png	new	n/a
246.476	1.091	memory	test	test_old	correct	task-memory/obj238rain.png	old	n/a
249.41	0.885	memory	test	test_old	correct	task-memory/obj207pants.png	old	n/a
252.161	1.016	memory	test	test_new	correct	task-memory/obj171lizard.png	new	n/a
254.862	0.976	memory	test	test_old	correct	task-memory/obj072crab.png	old	n/a
257.78	1.397	memory	test	test_old	correct	task-memory/obj051car.png	old	n/a
260.614	1.278	memory	test	test_old	correct	task-memory/obj346yoyo.png	old	n/a
263.465	1.007	memory	test	test_old	correct	task-memory/obj159knot.png	old	n/a
266.033	1.069	memory	test	test_new	correct	task-memory/obj340windmill.png	new	n/a
268.851	1.305	memory	test	test_new	correct	task-memory/obj036bread.png	new	n/a
271.435	1.501	memory	test	test_old	incorrect	task-memory/obj077deer.png	new	n/a
274.036	1.231	memory	test	test_new	incorrect	task-memory/obj111fork.png	old	n/a
276.954	1.726	memory	test	test_new	correct	task-memory/obj305toaster.png	new	n/a
279.838	1.097	memory	test	test_old	correct	task-memory/obj181microphone.png	old	n/a
282.506	0.911	memory	test	test_new	correct	task-memory/obj081dinosaur.png	new	n/a
285.107	1.285	memory	test	test_old	correct	task-memory/obj203paintbrush.png	old	n/a
287.791	0.879	memory	test	test_old	correct	task-memory/obj231pumpkin.png	old	n/a
290.442	0.816	memory	test	test_old	correct	task-memory/obj110football.png	old	n/a
293.326	1.054	memory	test	test_old	incorrect	task-memory/obj001accordion.png	new	n/a
295.994	0.926	memory	test	test_old	correct	task-memory/obj202package.png	old	n/a
308.199	1.017	memory	dummy	study_dummy	n/a	task-memory/obj003alligator.png	n/a	n/a
310.233	1.017	memory	dummy	study_dummy	n/a	task-memory/obj014banana.png	n/a	n/a
312.267	1.017	memory	dummy	study_dummy	n/a	task-memory/obj058chest.png	n/a	n/a
314.301	1.017	memory	study	study	n/a	task-memory/obj348zipper.png	n/a	n/a
316.335	1.017	memory	study	study	n/a	task-memory/obj200orange.png	n/a	n/a
318.369	1.017	memory	study	study	n/a	task-memory/obj190mousetrap.png	n/a	n/a
320.403	1.017	memory	study	study	n/a	task-memory/obj234queen.png	n/a	n/a
322.437	1.017	memory	study	study	n/a	task-memory/obj283spider.png	n/a	n/a
324.471	1.017	memory	study	study	n/a	task-memory/obj066dime.png	n/a	n/a
326.506	1.034	memory	study	study	n/a	task-memory/obj108flute.png	n/a	n/a
328.556	1.034	memory	study	study	n/a	task-memory/obj292sword.png	n/a	n/a
330.607	1.017	memory	study	study	n/a	task-memory/obj026bird.png	n/a	n/a
332.658	1.017	memory	study	study	n/a	task-memory/obj175mailbox.png	n/a	n/a
334.709	1.017	memory	study	study	n/a	task-memory/obj328waiter.png	n/a	n/a
336.759	1.017	memory	study	study	n/a	task-memory/obj256sandwich.png	n/a	n/a
338.793	1.017	memory	study	study	n/a	task-memory/obj158knight.png	n/a	n/a
340.828	1.017	memory	study	study	n/a	task-memory/obj269skateboard.png	n/a	n/a
342.862	1.017	memory	study	study	n/a	task-memory/obj085donkey.png	n/a	n/a
344.896	1.017	memory	study	study	n/a	task-memory/obj067comb.png	n/a	n/a
346.93	1.017	memory	study	study	n/a	task-memory/obj118giraffe.png	n/a	n/a
348.964	1.017	memory	study	study	n/a	task-memory/obj041button.png	n/a	n/a
350.998	1.017	memory	study	study	n/a	task-memory/obj010baby.png	n/a	n/a
353.032	1.017	memory	study	study	n/a	task-memory/obj259scarf.png	n/a	n/a
355.066	1.017	memory	dummy	study_dummy	n/a	task-memory/obj280sofa.png	n/a	n/a
357.1	1.017	memory	dummy	study_dummy	n/a	task-memory/obj290sun.png	n/a	n/a
359.134	1.017	memory	dummy	study_dummy	n/a	task-memory/obj343witch.png	n/a	n/a
371.289	25.0	memory	distraction_math	math	n/a	n/a	n/a	n/a
399.366	25.0	memory	distraction_math	math	n/a	n/a	n/a	n/a
427.427	25.0	memory	distraction_math	math	n/a	n/a	n/a	n/a
455.487	25.0	memory	distraction_math	math	n/a	n/a	n/a	n/a
489.133	1.58	memory	test	test_old	correct	task-memory/obj158knight.png	old	n/a
492.134	0.693	memory	test	test_old	correct	task-memory/obj269skateboard.png	old	n/a
495.168	0.935	memory	test	test_old	correct	task-memory/obj200orange.png	old	n/a
497.919	0.783	memory	test	test_old	correct	task-memory/obj292sword.png	old	n/a
500.52	0.85	memory	test	test_new	incorrect	task-memory/obj143horse.png	old	n/a
503.355	0.762	memory	test	test_old	correct	task-memory/obj190mousetrap.png	old	n/a
506.089	0.89	memory	test	test_new	correct	task-memory/obj096eskimo.png	new	n/a
509.007	0.925	memory	test	test_new	correct	task-memory/obj198octopus.png	new	n/a
511.625	0.951	memory	test	test_old	correct	task-memory/obj010baby.png	old	n/a
514.392	0.879	memory	test	test_old	correct	task-memory/obj026bird.png	old	n/a
517.127	1.122	memory	test	test_old	correct	task-memory/obj085donkey.png	old	n/a
519.861	1.099	memory	test	test_old	correct	task-memory/obj067comb.png	old	n/a
522.479	1.294	memory	test	test_old	correct	task-memory/obj283spider.png	old	n/a
525.23	1.051	memory	test	test_new	correct	task-memory/obj285squirrel.png	new	n/a
528.031	0.971	memory	test	test_old	correct	task-memory/obj328waiter.png	old	n/a
530.765	1.833	memory	test	test_new	incorrect	task-memory/obj055chair.png	old	n/a
534.1	2.0	memory	test	test_new	correct	task-memory/obj330watch.png	n/a	n/a
537.117	1.074	memory	test	test_new	incorrect	task-memory/obj239rake.png	old	n/a
540.102	1.103	memory	test	test_new	correct	task-memory/obj289submarine.png	new	n/a
542.853	1.067	memory	test	test_old	correct	task-memory/obj256sandwich.png	old	n/a
545.571	0.9	memory	test	test_new	correct	task-memory/obj057cherry.png	new	n/a
548.488	1.338	memory	test	test_old	correct	task-memory/obj066dime.png	old	n/a
551.423	1.379	memory	test	test_new	correct	task-memory/obj345wrench.png	new	n/a
554.29	1.054	memory	test	test_old	correct	task-memory/obj234queen.png	old	n/a
557.225	0.876	memory	test	test_new	correct	task-memory/obj100feather.png	new	n/a
559.809	1.293	memory	test	test_old	correct	task-memory/obj348zipper.png	old	n/a
562.477	1.074	memory	test	test_old	incorrect	task-memory/obj118giraffe.png	new	n/a
565.161	1.101	memory	test	test_new	correct	task-memory/obj043cage.png	new	n/a
567.896	0.831	memory	test	test_new	correct	task-memory/obj303tiger.png	new	n/a
570.713	0.92	memory	test	test_new	correct	task-memory/obj347zebra.png	new	n/a
573.431	1.186	memory	test	test_new	correct	task-memory/obj277snake.png	new	n/a
576.015	1.487	memory	test	test_old	incorrect	task-memory/obj108flute.png	new	n/a
579.0	0.765	memory	test	test_new	correct	task-memory/obj220pineapple.png	new	n/a
581.951	1.083	memory	test	test_old	correct	task-memory/obj259scarf.png	old	n/a
584.652	1.014	memory	test	test_new	correct	task-memory/obj015bandaid.png	new	n/a
587.486	0.968	memory	test	test_new	correct	task-memory/obj307tomato.png	new	n/a
590.504	1.288	memory	test	test_new	incorrect	task-memory/obj013balloon.png	old	n/a
593.038	1.052	memory	test	test_old	correct	task-memory/obj041button.png	old	n/a
595.956	1.045	memory	test	test_old	correct	task-memory/obj175mailbox.png	old	n/a
598.89	1.789	memory	test	test_new	incorrect	task-memory/obj007arrow.png	old	n/a
