onset	duration	run_type	trial_type	trial_index	cue	stimulusintensity	rating_value	rating_glmslabel	rating_value_fillna	rating_glmslabel_fillna	rating_mouseonset	rating_mousedur	stim_file	pain_onset_ttl1	pain_onset_ttl2	pain_onset_ttl3	pain_onset_ttl4	pain_stimulus_delivery_success	cognitive_correct_response	cognitive_participant_response	cognitive_response_accuracy
9.81	0.98	cognitive	cue	1	high_cue	n/a	n/a	n/a	n/a	n/a	n/a	n/a	task-social/cue/runtype-cognitive/sch/h052.png	n/a	n/a	n/a	n/a	n/a	n/a	n/a	n/a
12.51	3.53	cognitive	expectrating	1	high_cue	n/a	52.37	Strong	52.37	Strong	0.85	2.68	task-social/cue/runtype-cognitive/sch/h052.png	n/a	n/a	n/a	n/a	n/a	n/a	n/a	n/a
20.61	5.0	cognitive	stimulus	1	high_cue	med_stim	n/a	n/a	n/a	n/a	n/a	n/a	task-social/stim/runtype-cognitive/39_100_R.jpg	n/a	n/a	n/a	n/a	n/a	diff	diff	True
29.4	1.61	cognitive	outcomerating	1	high_cue	med_stim	29.74	Strong	29.74	Strong	0.85	2.68	task-social/outcomerating/task-cognitive_scale.png	n/a	n/a	n/a	n/a	n/a	n/a	n/a	n/a
34.8	0.99	cognitive	cue	2	high_cue	n/a	n/a	n/a	n/a	n/a	n/a	n/a	task-social/cue/runtype-cognitive/sch/h010.png	n/a	n/a	n/a	n/a	n/a	n/a	n/a	n/a
36.3	3.42	cognitive	expectrating	2	high_cue	n/a	49.4	Strong	49.4	Strong	1.67	1.75	task-social/cue/runtype-cognitive/sch/h010.png	n/a	n/a	n/a	n/a	n/a	n/a	n/a	n/a
44.4	5.0	cognitive	stimulus	2	high_cue	high_stim	n/a	n/a	n/a	n/a	n/a	n/a	task-social/stim/runtype-cognitive/12_150_R.jpg	n/a	n/a	n/a	n/a	n/a	diff	diff	True
52.81	2.67	cognitive	outcomerating	2	high_cue	high_stim	49.93	Strong	49.93	Strong	1.67	1.75	task-social/outcomerating/task-cognitive_scale.png	n/a	n/a	n/a	n/a	n/a	n/a	n/a	n/a
60.69	0.99	cognitive	cue	3	low_cue	n/a	n/a	n/a	n/a	n/a	n/a	n/a	task-social/cue/runtype-cognitive/scl/l055.png	n/a	n/a	n/a	n/a	n/a	n/a	n/a	n/a
62.79	2.63	cognitive	expectrating	3	low_cue	n/a	52.49	Strong	52.49	Strong	0.12	2.51	task-social/cue/runtype-cognitive/scl/l055.png	n/a	n/a	n/a	n/a	n/a	n/a	n/a	n/a
71.0	5.0	cognitive	stimulus	3	low_cue	high_stim	n/a	n/a	n/a	n/a	n/a	n/a	task-social/stim/runtype-cognitive/43_150.jpg	n/a	n/a	n/a	n/a	n/a	same	same	True
80.8	2.7	cognitive	outcomerating	3	low_cue	high_stim	49.72	Strong	49.72	Strong	0.12	2.51	task-social/outcomerating/task-cognitive_scale.png	n/a	n/a	n/a	n/a	n/a	n/a	n/a	n/a
90.1	0.98	cognitive	cue	4	high_cue	n/a	n/a	n/a	n/a	n/a	n/a	n/a	task-social/cue/runtype-cognitive/sch/h003.png	n/a	n/a	n/a	n/a	n/a	n/a	n/a	n/a
94.01	2.52	cognitive	expectrating	4	high_cue	n/a	55.35	Strong	55.35	Strong	0.05	2.47	task-social/cue/runtype-cognitive/sch/h003.png	n/a	n/a	n/a	n/a	n/a	n/a	n/a	n/a
104.19	5.0	cognitive	stimulus	4	high_cue	low_stim	n/a	n/a	n/a	n/a	n/a	n/a	task-social/stim/runtype-cognitive/8_50_R.jpg	n/a	n/a	n/a	n/a	n/a	diff	diff	True
112.61	3.33	cognitive	outcomerating	4	high_cue	low_stim	11.77	Moderate	11.77	Moderate	0.05	2.47	task-social/outcomerating/task-cognitive_scale.png	n/a	n/a	n/a	n/a	n/a	n/a	n/a	n/a
118.6	0.99	cognitive	cue	5	high_cue	n/a	n/a	n/a	n/a	n/a	n/a	n/a	task-social/cue/runtype-cognitive/sch/h035.png	n/a	n/a	n/a	n/a	n/a	n/a	n/a	n/a
122.5	2.77	cognitive	expectrating	5	high_cue	n/a	25.0	Moderate	25.0	Moderate	0.47	2.3	task-social/cue/runtype-cognitive/sch/h035.png	n/a	n/a	n/a	n/a	n/a	n/a	n/a	n/a
133.6	5.0	cognitive	stimulus	5	high_cue	med_stim	n/a	n/a	n/a	n/a	n/a	n/a	task-social/stim/runtype-cognitive/41_100_R.jpg	n/a	n/a	n/a	n/a	n/a	diff	diff	True
143.41	2.2	cognitive	outcomerating	5	high_cue	med_stim	39.09	Strong	39.09	Strong	0.47	2.3	task-social/outcomerating/task-cognitive_scale.png	n/a	n/a	n/a	n/a	n/a	n/a	n/a	n/a
157.6	0.99	cognitive	cue	6	low_cue	n/a	n/a	n/a	n/a	n/a	n/a	n/a	task-social/cue/runtype-cognitive/scl/l054.png	n/a	n/a	n/a	n/a	n/a	n/a	n/a	n/a
161.5	3.29	cognitive	expectrating	6	low_cue	n/a	26.88	Moderate	26.88	Moderate	0.05	3.24	task-social/cue/runtype-cognitive/scl/l054.png	n/a	n/a	n/a	n/a	n/a	n/a	n/a	n/a
168.4	5.0	cognitive	stimulus	6	low_cue	low_stim	n/a	n/a	n/a	n/a	n/a	n/a	task-social/stim/runtype-cognitive/4_50.jpg	n/a	n/a	n/a	n/a	n/a	same	same	True
178.3	2.8	cognitive	outcomerating	6	low_cue	low_stim	3.0	Barely detectable	3.0	Barely detectable	0.05	3.24	task-social/outcomerating/task-cognitive_scale.png	n/a	n/a	n/a	n/a	n/a	n/a	n/a	n/a
184.91	0.98	cognitive	cue	7	low_cue	n/a	n/a	n/a	n/a	n/a	n/a	n/a	task-social/cue/runtype-cognitive/scl/l020.png	n/a	n/a	n/a	n/a	n/a	n/a	n/a	n/a
186.41	1.57	cognitive	expectrating	7	low_cue	n/a	13.53	Moderate	13.53	Moderate	0.12	1.45	task-social/cue/runtype-cognitive/scl/l020.png	n/a	n/a	n/a	n/a	n/a	n/a	n/a	n/a
200.3	5.0	cognitive	stimulus	7	low_cue	med_stim	n/a	n/a	n/a	n/a	n/a	n/a	task-social/stim/runtype-cognitive/4_100.jpg	n/a	n/a	n/a	n/a	n/a	same	same	True
219.1	2.28	cognitive	outcomerating	7	low_cue	med_stim	6.37	Weak	6.37	Weak	0.12	1.45	task-social/outcomerating/task-cognitive_scale.png	n/a	n/a	n/a	n/a	n/a	n/a	n/a	n/a
225.1	0.98	cognitive	cue	8	low_cue	n/a	n/a	n/a	n/a	n/a	n/a	n/a	task-social/cue/runtype-cognitive/scl/l044.png	n/a	n/a	n/a	n/a	n/a	n/a	n/a	n/a
227.21	2.0	cognitive	expectrating	8	low_cue	n/a	22.74	Moderate	22.74	Moderate	0.18	1.82	task-social/cue/runtype-cognitive/scl/l044.png	n/a	n/a	n/a	n/a	n/a	n/a	n/a	n/a
240.09	5.0	cognitive	stimulus	8	low_cue	med_stim	n/a	n/a	n/a	n/a	n/a	n/a	task-social/stim/runtype-cognitive/43_100.jpg	n/a	n/a	n/a	n/a	n/a	same	same	True
250.0	3.22	cognitive	outcomerating	8	low_cue	med_stim	8.29	Weak	8.29	Weak	0.18	1.82	task-social/outcomerating/task-cognitive_scale.png	n/a	n/a	n/a	n/a	n/a	n/a	n/a	n/a
256.0	0.99	cognitive	cue	9	high_cue	n/a	n/a	n/a	n/a	n/a	n/a	n/a	task-social/cue/runtype-cognitive/sch/h018.png	n/a	n/a	n/a	n/a	n/a	n/a	n/a	n/a
258.7	3.22	cognitive	expectrating	9	high_cue	n/a	40.6	Strong	40.6	Strong	0.1	3.12	task-social/cue/runtype-cognitive/sch/h018.png	n/a	n/a	n/a	n/a	n/a	n/a	n/a	n/a
271.61	5.0	cognitive	stimulus	9	high_cue	high_stim	n/a	n/a	n/a	n/a	n/a	n/a	task-social/stim/runtype-cognitive/31_150.jpg	n/a	n/a	n/a	n/a	n/a	same	same	True
283.21	3.27	cognitive	outcomerating	9	high_cue	high_stim	13.87	Moderate	13.87	Moderate	0.1	3.12	task-social/outcomerating/task-cognitive_scale.png	n/a	n/a	n/a	n/a	n/a	n/a	n/a	n/a
291.6	0.99	cognitive	cue	10	low_cue	n/a	n/a	n/a	n/a	n/a	n/a	n/a	task-social/cue/runtype-cognitive/scl/l023.png	n/a	n/a	n/a	n/a	n/a	n/a	n/a	n/a
293.8	1.71	cognitive	expectrating	10	low_cue	n/a	15.82	Moderate	15.82	Moderate	0.17	1.54	task-social/cue/runtype-cognitive/scl/l023.png	n/a	n/a	n/a	n/a	n/a	n/a	n/a	n/a
304.9	5.0	cognitive	stimulus	10	low_cue	low_stim	n/a	n/a	n/a	n/a	n/a	n/a	task-social/stim/runtype-cognitive/31_50_R.jpg	n/a	n/a	n/a	n/a	n/a	diff	diff	True
319.91	3.72	cognitive	outcomerating	10	low_cue	low_stim	38.66	Strong	38.66	Strong	0.17	1.54	task-social/outcomerating/task-cognitive_scale.png	n/a	n/a	n/a	n/a	n/a	n/a	n/a	n/a
336.6	0.99	cognitive	cue	11	high_cue	n/a	n/a	n/a	n/a	n/a	n/a	n/a	task-social/cue/runtype-cognitive/sch/h050.png	n/a	n/a	n/a	n/a	n/a	n/a	n/a	n/a
338.3	2.96	cognitive	expectrating	11	high_cue	n/a	14.15	Moderate	14.15	Moderate	0.38	2.57	task-social/cue/runtype-cognitive/sch/h050.png	n/a	n/a	n/a	n/a	n/a	n/a	n/a	n/a
350.4	5.0	cognitive	stimulus	11	high_cue	low_stim	n/a	n/a	n/a	n/a	n/a	n/a	task-social/stim/runtype-cognitive/41_50_R.jpg	n/a	n/a	n/a	n/a	n/a	diff	diff	True
363.51	2.95	cognitive	outcomerating	11	high_cue	low_stim	14.43	Moderate	14.43	Moderate	0.38	2.57	task-social/outcomerating/task-cognitive_scale.png	n/a	n/a	n/a	n/a	n/a	n/a	n/a	n/a
367.99	1.0	cognitive	cue	12	low_cue	n/a	n/a	n/a	n/a	n/a	n/a	n/a	task-social/cue/runtype-cognitive/scl/l013.png	n/a	n/a	n/a	n/a	n/a	n/a	n/a	n/a
369.81	2.23	cognitive	expectrating	12	low_cue	n/a	6.08	Weak	6.08	Weak	0.22	2.02	task-social/cue/runtype-cognitive/scl/l013.png	n/a	n/a	n/a	n/a	n/a	n/a	n/a	n/a
380.3	5.0	cognitive	stimulus	12	low_cue	high_stim	n/a	n/a	n/a	n/a	n/a	n/a	task-social/stim/runtype-cognitive/4_150.jpg	n/a	n/a	n/a	n/a	n/a	same	diff	False
394.8	3.32	cognitive	outcomerating	12	low_cue	high_stim	35.16	Strong	35.16	Strong	0.22	2.02	task-social/outcomerating/task-cognitive_scale.png	n/a	n/a	n/a	n/a	n/a	n/a	n/a	n/a
