onset	duration	trial_type	response_x	response_y	situation	context	modality	stim_file
7.894	12.688	narrative_presentation	n/a	n/a	Enmity of kin	prison	Audio	task-narratives/Narrative5Situation1.mp3
20.581	3.733	rating_feeling	1090	636	Enmity of kin	prison	Audio	task-narratives/Narrative5Situation1.mp3
22.698	1.617	feeling_mouse_trajectory	1090	636	Enmity of kin	prison	Audio	task-narratives/Narrative5Situation1.mp3
24.648	1.95	rating_expectation	1074	594	Enmity of kin	prison	Audio	task-narratives/Narrative5Situation1.mp3
24.848	1.75	expectation_mouse_trajectory	1074	594	Enmity of kin	prison	Audio	task-narratives/Narrative5Situation1.mp3
31.749	28.13	narrative_presentation	n/a	n/a	The enigma	town	Audio	task-narratives/Narrative5Situation2.mp3
59.879	2.067	rating_feeling	1090	636	The enigma	town	Audio	task-narratives/Narrative5Situation2.mp3
60.329	1.617	feeling_mouse_trajectory	1090	636	The enigma	town	Audio	task-narratives/Narrative5Situation2.mp3
63.906	2.033	rating_expectation	1074	594	The enigma	town	Audio	task-narratives/Narrative5Situation2.mp3
64.339	1.6	expectation_mouse_trajectory	1074	594	The enigma	town	Audio	task-narratives/Narrative5Situation2.mp3
70.977	13.313	narrative_presentation	n/a	n/a	Discovery of dishonour of loved one	prison	Audio	task-narratives/Narrative5Situation3.mp3
84.29	1.9	rating_feeling	1090	636	Discovery of dishonour of loved one	prison	Audio	task-narratives/Narrative5Situation3.mp3
84.607	1.583	feeling_mouse_trajectory	1090	636	Discovery of dishonour of loved one	prison	Audio	task-narratives/Narrative5Situation3.mp3
88.315	1.6	rating_expectation	1074	594	Discovery of dishonour of loved one	prison	Audio	task-narratives/Narrative5Situation3.mp3
88.748	1.167	expectation_mouse_trajectory	1074	594	Discovery of dishonour of loved one	prison	Audio	task-narratives/Narrative5Situation3.mp3
93.386	20.164	narrative_presentation	n/a	n/a	Loss of loved one	swamp	Audio	task-narratives/Narrative5Situation4.mp3
113.551	1.65	rating_feeling	1090	636	Loss of loved one	swamp	Audio	task-narratives/Narrative5Situation4.mp3
114.117	1.083	feeling_mouse_trajectory	1090	636	Loss of loved one	swamp	Audio	task-narratives/Narrative5Situation4.mp3
117.58	1.867	rating_expectation	1074	594	Loss of loved one	swamp	Audio	task-narratives/Narrative5Situation4.mp3
117.997	1.45	expectation_mouse_trajectory	1074	594	Loss of loved one	swamp	Audio	task-narratives/Narrative5Situation4.mp3
126.649	14.141	narrative_presentation	n/a	n/a	Necessity of sacrificing loved ones	park	Audio	task-narratives/Narrative5Situation5.mp3
140.789	1.267	rating_feeling	1090	636	Necessity of sacrificing loved ones	park	Audio	task-narratives/Narrative5Situation5.mp3
141.839	0.217	feeling_mouse_trajectory	1090	636	Necessity of sacrificing loved ones	park	Audio	task-narratives/Narrative5Situation5.mp3
144.819	1.733	rating_expectation	1074	594	Necessity of sacrificing loved ones	park	Audio	task-narratives/Narrative5Situation5.mp3
145.252	1.3	expectation_mouse_trajectory	1074	594	Necessity of sacrificing loved ones	park	Audio	task-narratives/Narrative5Situation5.mp3
151.891	5.484	narrative_presentation	n/a	n/a	Daring Enterprise	swamp	Audio	task-narratives/Narrative5Situation6.mp3
157.375	3.05	rating_feeling	1090	636	Daring Enterprise	swamp	Audio	task-narratives/Narrative5Situation6.mp3
158.025	2.4	feeling_mouse_trajectory	1090	636	Daring Enterprise	swamp	Audio	task-narratives/Narrative5Situation6.mp3
161.414	1.8	rating_expectation	1074	594	Daring Enterprise	swamp	Audio	task-narratives/Narrative5Situation6.mp3
161.714	1.5	expectation_mouse_trajectory	1074	594	Daring Enterprise	swamp	Audio	task-narratives/Narrative5Situation6.mp3
169.483	20.83	narrative_presentation	n/a	n/a	Revolt	beach	Audio	task-narratives/Narrative5Situation7.mp3
190.313	1.817	rating_feeling	1090	636	Revolt	beach	Audio	task-narratives/Narrative5Situation7.mp3
191.063	1.067	feeling_mouse_trajectory	1090	636	Revolt	beach	Audio	task-narratives/Narrative5Situation7.mp3
194.338	1.267	rating_expectation	1074	594	Revolt	beach	Audio	task-narratives/Narrative5Situation7.mp3
194.704	0.9	expectation_mouse_trajectory	1074	594	Revolt	beach	Audio	task-narratives/Narrative5Situation7.mp3
201.41	7.279	narrative_presentation	n/a	n/a	Falling prey to misfortune	city	Audio	task-narratives/Narrative5Situation8.mp3
208.689	2.267	rating_feeling	1090	636	Falling prey to misfortune	city	Audio	task-narratives/Narrative5Situation8.mp3
209.206	1.75	feeling_mouse_trajectory	1090	636	Falling prey to misfortune	city	Audio	task-narratives/Narrative5Situation8.mp3
212.713	1.317	rating_expectation	1074	594	Falling prey to misfortune	city	Audio	task-narratives/Narrative5Situation8.mp3
213.063	0.967	expectation_mouse_trajectory	1074	594	Falling prey to misfortune	city	Audio	task-narratives/Narrative5Situation8.mp3
219.766	37.958	narrative_presentation	n/a	n/a	Mistaken jealousy	beach	Audio	task-narratives/Narrative5Situation9.mp3
257.724	1.703	rating_feeling	1090	636	Mistaken jealousy	beach	Audio	task-narratives/Narrative5Situation9.mp3
258.124	1.303	feeling_mouse_trajectory	1090	636	Mistaken jealousy	beach	Audio	task-narratives/Narrative5Situation9.mp3
261.747	1.588	rating_expectation	1074	594	Mistaken jealousy	beach	Audio	task-narratives/Narrative5Situation9.mp3
262.064	1.271	expectation_mouse_trajectory	1074	594	Mistaken jealousy	beach	Audio	task-narratives/Narrative5Situation9.mp3
267.801	25.986	narrative_presentation	n/a	n/a	Enmity of kin	prison	Audio	task-narratives/Narrative6Situation1.mp3
293.787	2.206	rating_feeling	1090	636	Enmity of kin	prison	Audio	task-narratives/Narrative6Situation1.mp3
294.254	1.739	feeling_mouse_trajectory	1090	636	Enmity of kin	prison	Audio	task-narratives/Narrative6Situation1.mp3
297.814	2.621	rating_expectation	1074	594	Enmity of kin	prison	Audio	task-narratives/Narrative6Situation1.mp3
298.23	2.204	expectation_mouse_trajectory	1074	594	Enmity of kin	prison	Audio	task-narratives/Narrative6Situation1.mp3
304.866	27.983	narrative_presentation	n/a	n/a	The enigma	town	Audio	task-narratives/Narrative6Situation2.mp3
332.849	2.391	rating_feeling	1090	636	The enigma	town	Audio	task-narratives/Narrative6Situation2.mp3
333.532	1.708	feeling_mouse_trajectory	1090	636	The enigma	town	Audio	task-narratives/Narrative6Situation2.mp3
336.88	1.307	rating_expectation	1074	594	The enigma	town	Audio	task-narratives/Narrative6Situation2.mp3
337.263	0.923	expectation_mouse_trajectory	1074	594	The enigma	town	Audio	task-narratives/Narrative6Situation2.mp3
345.963	11.977	narrative_presentation	n/a	n/a	Discovery of dishonour of loved one	prison	Audio	task-narratives/Narrative6Situation3.mp3
357.94	2.334	rating_feeling	1090	636	Discovery of dishonour of loved one	prison	Audio	task-narratives/Narrative6Situation3.mp3
358.273	2.001	feeling_mouse_trajectory	1090	636	Discovery of dishonour of loved one	prison	Audio	task-narratives/Narrative6Situation3.mp3
361.967	1.084	rating_expectation	1074	594	Discovery of dishonour of loved one	prison	Audio	task-narratives/Narrative6Situation3.mp3
362.283	0.767	expectation_mouse_trajectory	1074	594	Discovery of dishonour of loved one	prison	Audio	task-narratives/Narrative6Situation3.mp3
368.039	11.986	narrative_presentation	n/a	n/a	Loss of loved one	swamp	Audio	task-narratives/Narrative6Situation4.mp3
380.024	1.134	rating_feeling	1090	636	Loss of loved one	swamp	Audio	task-narratives/Narrative6Situation4.mp3
380.291	0.867	feeling_mouse_trajectory	1090	636	Loss of loved one	swamp	Audio	task-narratives/Narrative6Situation4.mp3
384.063	1.255	rating_expectation	1074	594	Loss of loved one	swamp	Audio	task-narratives/Narrative6Situation4.mp3
384.413	0.905	expectation_mouse_trajectory	1074	594	Loss of loved one	swamp	Audio	task-narratives/Narrative6Situation4.mp3
390.129	7.309	narrative_presentation	n/a	n/a	Necessity of sacrificing loved ones	park	Audio	task-narratives/Narrative6Situation5.mp3
397.438	1.334	rating_feeling	1090	636	Necessity of sacrificing loved ones	park	Audio	task-narratives/Narrative6Situation5.mp3
397.955	0.817	feeling_mouse_trajectory	1090	636	Necessity of sacrificing loved ones	park	Audio	task-narratives/Narrative6Situation5.mp3
401.465	1.251	rating_expectation	1074	594	Necessity of sacrificing loved ones	park	Audio	task-narratives/Narrative6Situation5.mp3
401.531	1.184	expectation_mouse_trajectory	1074	594	Necessity of sacrificing loved ones	park	Audio	task-narratives/Narrative6Situation5.mp3
407.519	10.833	narrative_presentation	n/a	n/a	Daring Enterprise	swamp	Audio	task-narratives/Narrative6Situation6.mp3
418.352	2.226	rating_feeling	1090	636	Daring Enterprise	swamp	Audio	task-narratives/Narrative6Situation6.mp3
418.835	1.742	feeling_mouse_trajectory	1090	636	Daring Enterprise	swamp	Audio	task-narratives/Narrative6Situation6.mp3
422.373	1.541	rating_expectation	1074	594	Daring Enterprise	swamp	Audio	task-narratives/Narrative6Situation6.mp3
422.673	1.241	expectation_mouse_trajectory	1074	594	Daring Enterprise	swamp	Audio	task-narratives/Narrative6Situation6.mp3
431.428	23.283	narrative_presentation	n/a	n/a	Revolt	beach	Audio	task-narratives/Narrative6Situation7.mp3
454.711	3.535	rating_feeling	1090	636	Revolt	beach	Audio	task-narratives/Narrative6Situation7.mp3
455.494	2.752	feeling_mouse_trajectory	1090	636	Revolt	beach	Audio	task-narratives/Narrative6Situation7.mp3
458.736	1.651	rating_expectation	1074	594	Revolt	beach	Audio	task-narratives/Narrative6Situation7.mp3
459.77	0.617	expectation_mouse_trajectory	1074	594	Revolt	beach	Audio	task-narratives/Narrative6Situation7.mp3
467.792	5.282	narrative_presentation	n/a	n/a	Falling prey to misfortune	city	Audio	task-narratives/Narrative6Situation8.mp3
473.074	2.989	rating_feeling	1090	636	Falling prey to misfortune	city	Audio	task-narratives/Narrative6Situation8.mp3
474.774	1.289	feeling_mouse_trajectory	1090	636	Falling prey to misfortune	city	Audio	task-narratives/Narrative6Situation8.mp3
477.097	1.904	rating_expectation	1074	594	Falling prey to misfortune	city	Audio	task-narratives/Narrative6Situation8.mp3
477.43	1.571	expectation_mouse_trajectory	1074	594	Falling prey to misfortune	city	Audio	task-narratives/Narrative6Situation8.mp3
485.165	9.312	narrative_presentation	n/a	n/a	Mistaken jealousy	beach	Audio	task-narratives/Narrative6Situation9.mp3
494.478	2.401	rating_feeling	1090	636	Mistaken jealousy	beach	Audio	task-narratives/Narrative6Situation9.mp3
494.895	1.984	feeling_mouse_trajectory	1090	636	Mistaken jealousy	beach	Audio	task-narratives/Narrative6Situation9.mp3
498.501	2.201	rating_expectation	1074	594	Mistaken jealousy	beach	Audio	task-narratives/Narrative6Situation9.mp3
498.534	2.168	expectation_mouse_trajectory	1074	594	Mistaken jealousy	beach	Audio	task-narratives/Narrative6Situation9.mp3
