onset	duration	trial_type	response_x	response_y	situation	context	modality	stim_file
8.897	32.183	narrative_presentation	n/a	n/a	Slaying-of-kin-unrecognized	town	Text	task-narratives/Narrative3Situation1.txt
41.08	2.084	rating_feeling	817	591	Slaying-of-kin-unrecognized	town	Text	n/a
41.83	1.334	feeling_mouse_trajectory	817	591	Slaying-of-kin-unrecognized	town	Text	n/a
45.147	1.751	rating_expectation	726	513	Slaying-of-kin-unrecognized	town	Text	n/a
45.464	1.434	expectation_mouse_trajectory	726	513	Slaying-of-kin-unrecognized	town	Text	n/a
53.247	17.111	narrative_presentation	n/a	n/a	Erroneous-judgement	town	Text	task-narratives/Narrative3Situation2.txt
70.358	2.373	rating_feeling	1105	613	Erroneous-judgement	town	Text	n/a
71.258	1.473	feeling_mouse_trajectory	1105	613	Erroneous-judgement	town	Text	n/a
74.396	1.355	rating_expectation	730	489	Erroneous-judgement	town	Text	n/a
74.912	0.838	expectation_mouse_trajectory	730	489	Erroneous-judgement	town	Text	n/a
80.49	10.392	narrative_presentation	n/a	n/a	Revolt	town	Text	task-narratives/Narrative3Situation3.txt
90.882	1.451	rating_feeling	798	610	Revolt	town	Text	n/a
91.515	0.817	feeling_mouse_trajectory	798	610	Revolt	town	Text	n/a
94.898	2.284	rating_expectation	735	486	Revolt	town	Text	n/a
95.214	1.968	expectation_mouse_trajectory	735	486	Revolt	town	Text	n/a
99.964	28.149	narrative_presentation	n/a	n/a	The-enigma	city	Text	task-narratives/Narrative3Situation4.txt
128.114	2.718	rating_feeling	725	533	The-enigma	city	Text	n/a
128.73	2.101	feeling_mouse_trajectory	725	533	The-enigma	city	Text	n/a
132.129	1.584	rating_expectation	740	494	The-enigma	city	Text	n/a
132.429	1.284	expectation_mouse_trajectory	740	494	The-enigma	city	Text	n/a
139.196	15.099	narrative_presentation	n/a	n/a	Deliverance	city	Text	task-narratives/Narrative3Situation5.txt
154.295	3.108	rating_feeling	773	578	Deliverance	city	Text	n/a
154.928	2.475	feeling_mouse_trajectory	773	578	Deliverance	city	Text	n/a
158.321	2.057	rating_expectation	1138	591	Deliverance	city	Text	n/a
158.755	1.624	expectation_mouse_trajectory	1138	591	Deliverance	city	Text	n/a
165.405	15.075	narrative_presentation	n/a	n/a	Remorse	city	Text	task-narratives/Narrative3Situation6.txt
180.481	1.668	rating_feeling	1099	598	Remorse	city	Text	n/a
181.047	1.101	feeling_mouse_trajectory	1099	598	Remorse	city	Text	n/a
184.498	2.968	rating_expectation	1116	582	Remorse	city	Text	n/a
185.565	1.901	expectation_mouse_trajectory	1116	582	Remorse	city	Text	n/a
192.566	36.85	narrative_presentation	n/a	n/a	Loss-of-loved-one	forest	Text	task-narratives/Narrative3Situation7.txt
229.415	2.585	rating_feeling	727	514	Loss-of-loved-one	forest	Text	n/a
229.965	2.035	feeling_mouse_trajectory	727	514	Loss-of-loved-one	forest	Text	n/a
233.433	1.601	rating_expectation	722	506	Loss-of-loved-one	forest	Text	n/a
233.833	1.201	expectation_mouse_trajectory	722	506	Loss-of-loved-one	forest	Text	n/a
239.5	9.713	narrative_presentation	n/a	n/a	All-sacrificed-for-passion	forest	Text	task-narratives/Narrative3Situation8.txt
249.213	2.006	rating_feeling	813	583	All-sacrificed-for-passion	forest	Text	n/a
249.963	1.256	feeling_mouse_trajectory	813	583	All-sacrificed-for-passion	forest	Text	n/a
253.244	1.171	rating_expectation	716	512	All-sacrificed-for-passion	forest	Text	n/a
253.644	0.771	expectation_mouse_trajectory	716	512	All-sacrificed-for-passion	forest	Text	n/a
258.307	27.481	narrative_presentation	n/a	n/a	Discovery-of-dishonour-of-loved-one	forest	Text	task-narratives/Narrative3Situation9.txt
285.788	2.659	rating_feeling	782	571	Discovery-of-dishonour-of-loved-one	forest	Text	n/a
286.438	2.009	feeling_mouse_trajectory	782	571	Discovery-of-dishonour-of-loved-one	forest	Text	n/a
289.804	1.741	rating_expectation	1149	592	Discovery-of-dishonour-of-loved-one	forest	Text	n/a
290.371	1.174	expectation_mouse_trajectory	1149	592	Discovery-of-dishonour-of-loved-one	forest	Text	n/a
295.887	22.446	narrative_presentation	n/a	n/a	Conflict-with-a-god	swamp	Text	task-narratives/Narrative4Situation1.txt
318.333	1.467	rating_feeling	791	571	Conflict-with-a-god	swamp	Text	n/a
318.9	0.901	feeling_mouse_trajectory	791	571	Conflict-with-a-god	swamp	Text	n/a
322.349	1.167	rating_expectation	761	482	Conflict-with-a-god	swamp	Text	n/a
322.383	1.134	expectation_mouse_trajectory	761	482	Conflict-with-a-god	swamp	Text	n/a
331.417	24.796	narrative_presentation	n/a	n/a	Adultery	swamp	Text	task-narratives/Narrative4Situation2.txt
356.214	2.251	rating_feeling	699	519	Adultery	swamp	Text	n/a
356.814	1.651	feeling_mouse_trajectory	699	519	Adultery	swamp	Text	n/a
360.23	1.951	rating_expectation	710	486	Adultery	swamp	Text	n/a
360.53	1.651	expectation_mouse_trajectory	710	486	Adultery	swamp	Text	n/a
366.297	21.112	narrative_presentation	n/a	n/a	Slaying-of-kin-unrecognized	swamp	Text	task-narratives/Narrative4Situation3.txt
387.409	2.388	rating_feeling	815	561	Slaying-of-kin-unrecognized	swamp	Text	n/a
387.975	1.821	feeling_mouse_trajectory	815	561	Slaying-of-kin-unrecognized	swamp	Text	n/a
391.428	1.32	rating_expectation	764	455	Slaying-of-kin-unrecognized	swamp	Text	n/a
391.878	0.87	expectation_mouse_trajectory	764	455	Slaying-of-kin-unrecognized	swamp	Text	n/a
396.492	21.111	narrative_presentation	n/a	n/a	Fatal-imprudence	hospital	Text	task-narratives/Narrative4Situation4.txt
417.603	2.643	rating_feeling	723	524	Fatal-imprudence	hospital	Text	n/a
418.169	2.077	feeling_mouse_trajectory	723	524	Fatal-imprudence	hospital	Text	n/a
421.62	1.525	rating_expectation	725	510	Fatal-imprudence	hospital	Text	n/a
421.92	1.225	expectation_mouse_trajectory	725	510	Fatal-imprudence	hospital	Text	n/a
426.686	25.796	narrative_presentation	n/a	n/a	Erroneous-judgement	hospital	Text	task-narratives/Narrative4Situation5.txt
452.482	1.717	rating_feeling	705	539	Erroneous-judgement	hospital	Text	n/a
453.082	1.117	feeling_mouse_trajectory	705	539	Erroneous-judgement	hospital	Text	n/a
456.499	2.885	rating_expectation	759	519	Erroneous-judgement	hospital	Text	n/a
457.182	2.201	expectation_mouse_trajectory	759	519	Erroneous-judgement	hospital	Text	n/a
461.566	23.447	narrative_presentation	n/a	n/a	Necessity-of-sacrificing-loved-ones	hospital	Text	task-narratives/Narrative4Situation6.txt
485.013	2.652	rating_feeling	747	529	Necessity-of-sacrificing-loved-ones	hospital	Text	n/a
485.58	2.085	feeling_mouse_trajectory	747	529	Necessity-of-sacrificing-loved-ones	hospital	Text	n/a
489.029	1.534	rating_expectation	743	505	Necessity-of-sacrificing-loved-ones	hospital	Text	n/a
489.379	1.184	expectation_mouse_trajectory	743	505	Necessity-of-sacrificing-loved-ones	hospital	Text	n/a
494.095	19.094	narrative_presentation	n/a	n/a	Recovery-of-a-lost-one	prison	Text	task-narratives/Narrative4Situation7.txt
513.189	3.867	rating_feeling	1059	577	Recovery-of-a-lost-one	prison	Text	n/a
514.105	2.95	feeling_mouse_trajectory	1059	577	Recovery-of-a-lost-one	prison	Text	n/a
517.211	1.384	rating_expectation	808	613	Recovery-of-a-lost-one	prison	Text	n/a
517.861	0.734	expectation_mouse_trajectory	808	613	Recovery-of-a-lost-one	prison	Text	n/a
522.305	38.535	narrative_presentation	n/a	n/a	Crimes-of-love	prison	Text	task-narratives/Narrative4Situation8.txt
560.84	1.907	rating_feeling	720	553	Crimes-of-love	prison	Text	n/a
561.506	1.24	feeling_mouse_trajectory	720	553	Crimes-of-love	prison	Text	n/a
564.861	1.955	rating_expectation	736	510	Crimes-of-love	prison	Text	n/a
564.945	1.872	expectation_mouse_trajectory	736	510	Crimes-of-love	prison	Text	n/a
573.941	12.391	narrative_presentation	n/a	n/a	Abduction	prison	Text	task-narratives/Narrative4Situation9.txt
586.332	1.267	rating_feeling	790	601	Abduction	prison	Text	n/a
586.915	0.684	feeling_mouse_trajectory	790	601	Abduction	prison	Text	n/a
590.349	1.317	rating_expectation	729	506	Abduction	prison	Text	n/a
590.799	0.867	expectation_mouse_trajectory	729	506	Abduction	prison	Text	n/a
