onset	duration	run_type	trial_type	trial_index	cue	stimulusintensity	rating_value	rating_glmslabel	rating_value_fillna	rating_glmslabel_fillna	rating_mouseonset	rating_mousedur	stim_file	pain_onset_ttl1	pain_onset_ttl2	pain_onset_ttl3	pain_onset_ttl4	pain_stimulus_delivery_success	cognitive_correct_response	cognitive_participant_response	cognitive_response_accuracy
11.29	0.99	cognitive	cue	1	high_cue	n/a	n/a	n/a	n/a	n/a	n/a	n/a	n/a	n/a	n/a	n/a	n/a	n/a	n/a	n/a	n/a
14.21	n/a	cognitive	expectrating	1	high_cue	n/a	n/a	n/a	30.69	Strong	1.15	3.9	task-social/cue/runtype-cognitive/sch/h035.png	n/a	n/a	n/a	n/a	n/a	n/a	n/a	n/a
21.29	5.0	cognitive	stimulus	1	high_cue	high_stim	n/a	n/a	n/a	n/a	n/a	n/a	task-social/stim/runtype-cognitive/14_150.jpg	n/a	n/a	n/a	n/a	n/a	same	same	True
32.7	2.97	cognitive	outcomerating	1	high_cue	high_stim	25.11	Moderate	25.11	Moderate	0.67	2.3	task-social/outcomerating/task-cognitive_scale.png	n/a	n/a	n/a	n/a	n/a	n/a	n/a	n/a
44.29	1.0	cognitive	cue	2	low_cue	n/a	n/a	n/a	n/a	n/a	n/a	n/a	n/a	n/a	n/a	n/a	n/a	n/a	n/a	n/a	n/a
47.2	1.88	cognitive	expectrating	2	low_cue	n/a	23.56	Moderate	23.56	Moderate	0.42	1.47	task-social/cue/runtype-cognitive/scl/l047.png	n/a	n/a	n/a	n/a	n/a	n/a	n/a	n/a
61.39	5.0	cognitive	stimulus	2	low_cue	high_stim	n/a	n/a	n/a	n/a	n/a	n/a	task-social/stim/runtype-cognitive/14_150_R.jpg	n/a	n/a	n/a	n/a	n/a	diff	diff	True
70.7	2.43	cognitive	outcomerating	2	low_cue	high_stim	27.8	Moderate	27.8	Moderate	1.22	1.22	task-social/outcomerating/task-cognitive_scale.png	n/a	n/a	n/a	n/a	n/a	n/a	n/a	n/a
80.7	0.98	cognitive	cue	3	high_cue	n/a	n/a	n/a	n/a	n/a	n/a	n/a	n/a	n/a	n/a	n/a	n/a	n/a	n/a	n/a	n/a
83.7	2.82	cognitive	expectrating	3	high_cue	n/a	29.66	Strong	29.66	Strong	0.07	2.75	task-social/cue/runtype-cognitive/sch/h010.png	n/a	n/a	n/a	n/a	n/a	n/a	n/a	n/a
92.0	5.0	cognitive	stimulus	3	high_cue	high_stim	n/a	n/a	n/a	n/a	n/a	n/a	task-social/stim/runtype-cognitive/35_150_R.jpg	n/a	n/a	n/a	n/a	n/a	diff	diff	True
100.59	2.02	cognitive	outcomerating	3	high_cue	high_stim	30.06	Strong	30.06	Strong	0.5	1.52	task-social/outcomerating/task-cognitive_scale.png	n/a	n/a	n/a	n/a	n/a	n/a	n/a	n/a
105.59	0.99	cognitive	cue	4	low_cue	n/a	n/a	n/a	n/a	n/a	n/a	n/a	n/a	n/a	n/a	n/a	n/a	n/a	n/a	n/a	n/a
107.39	2.68	cognitive	expectrating	4	low_cue	n/a	25.64	Moderate	25.64	Moderate	0.93	1.75	task-social/cue/runtype-cognitive/scl/l022.png	n/a	n/a	n/a	n/a	n/a	n/a	n/a	n/a
114.5	5.0	cognitive	stimulus	4	low_cue	med_stim	n/a	n/a	n/a	n/a	n/a	n/a	task-social/stim/runtype-cognitive/26_100_R.jpg	n/a	n/a	n/a	n/a	n/a	diff	diff	True
126.1	2.87	cognitive	outcomerating	4	low_cue	med_stim	25.43	Moderate	25.43	Moderate	1.07	1.8	task-social/outcomerating/task-cognitive_scale.png	n/a	n/a	n/a	n/a	n/a	n/a	n/a	n/a
133.79	1.0	cognitive	cue	5	high_cue	n/a	n/a	n/a	n/a	n/a	n/a	n/a	n/a	n/a	n/a	n/a	n/a	n/a	n/a	n/a	n/a
135.6	2.7	cognitive	expectrating	5	high_cue	n/a	29.03	Strong	29.03	Strong	0.88	1.82	task-social/cue/runtype-cognitive/sch/h049.png	n/a	n/a	n/a	n/a	n/a	n/a	n/a	n/a
147.89	5.0	cognitive	stimulus	5	high_cue	low_stim	n/a	n/a	n/a	n/a	n/a	n/a	task-social/stim/runtype-cognitive/28_50.jpg	n/a	n/a	n/a	n/a	n/a	same	same	True
159.5	2.65	cognitive	outcomerating	5	high_cue	low_stim	25.23	Moderate	25.23	Moderate	0.75	1.9	task-social/outcomerating/task-cognitive_scale.png	n/a	n/a	n/a	n/a	n/a	n/a	n/a	n/a
169.5	0.98	cognitive	cue	6	high_cue	n/a	n/a	n/a	n/a	n/a	n/a	n/a	n/a	n/a	n/a	n/a	n/a	n/a	n/a	n/a	n/a
172.4	2.47	cognitive	expectrating	6	high_cue	n/a	22.36	Moderate	22.36	Moderate	0.55	1.92	task-social/cue/runtype-cognitive/sch/h034.png	n/a	n/a	n/a	n/a	n/a	n/a	n/a	n/a
186.89	5.0	cognitive	stimulus	6	high_cue	med_stim	n/a	n/a	n/a	n/a	n/a	n/a	task-social/stim/runtype-cognitive/22_100.jpg	n/a	n/a	n/a	n/a	n/a	same	same	True
196.69	3.89	cognitive	outcomerating	6	high_cue	med_stim	24.92	Moderate	24.92	Moderate	0.9	2.99	task-social/outcomerating/task-cognitive_scale.png	n/a	n/a	n/a	n/a	n/a	n/a	n/a	n/a
204.4	0.99	cognitive	cue	7	low_cue	n/a	n/a	n/a	n/a	n/a	n/a	n/a	n/a	n/a	n/a	n/a	n/a	n/a	n/a	n/a	n/a
207.3	1.67	cognitive	expectrating	7	low_cue	n/a	19.16	Moderate	19.16	Moderate	0.03	1.63	task-social/cue/runtype-cognitive/scl/l030.png	n/a	n/a	n/a	n/a	n/a	n/a	n/a	n/a
218.4	5.0	cognitive	stimulus	7	low_cue	high_stim	n/a	n/a	n/a	n/a	n/a	n/a	task-social/stim/runtype-cognitive/7_150.jpg	n/a	n/a	n/a	n/a	n/a	same	same	True
228.39	2.52	cognitive	outcomerating	7	low_cue	high_stim	19.89	Moderate	19.89	Moderate	0.3	2.22	task-social/outcomerating/task-cognitive_scale.png	n/a	n/a	n/a	n/a	n/a	n/a	n/a	n/a
234.29	0.99	cognitive	cue	8	high_cue	n/a	n/a	n/a	n/a	n/a	n/a	n/a	n/a	n/a	n/a	n/a	n/a	n/a	n/a	n/a	n/a
236.19	3.57	cognitive	expectrating	8	high_cue	n/a	26.26	Moderate	26.26	Moderate	0.78	2.79	task-social/cue/runtype-cognitive/sch/h045.png	n/a	n/a	n/a	n/a	n/a	n/a	n/a	n/a
244.89	5.0	cognitive	stimulus	8	high_cue	low_stim	n/a	n/a	n/a	n/a	n/a	n/a	task-social/stim/runtype-cognitive/22_50.jpg	n/a	n/a	n/a	n/a	n/a	same	same	True
255.7	3.15	cognitive	outcomerating	8	high_cue	low_stim	11.81	Moderate	11.81	Moderate	0.8	2.35	task-social/outcomerating/task-cognitive_scale.png	n/a	n/a	n/a	n/a	n/a	n/a	n/a	n/a
266.69	1.0	cognitive	cue	9	low_cue	n/a	n/a	n/a	n/a	n/a	n/a	n/a	n/a	n/a	n/a	n/a	n/a	n/a	n/a	n/a	n/a
268.5	2.72	cognitive	expectrating	9	low_cue	n/a	18.94	Moderate	18.94	Moderate	0.75	1.97	task-social/cue/runtype-cognitive/scl/l002.png	n/a	n/a	n/a	n/a	n/a	n/a	n/a	n/a
280.79	5.0	cognitive	stimulus	9	low_cue	low_stim	n/a	n/a	n/a	n/a	n/a	n/a	task-social/stim/runtype-cognitive/44_50.jpg	n/a	n/a	n/a	n/a	n/a	same	same	True
288.99	2.78	cognitive	outcomerating	9	low_cue	low_stim	9.01	Weak	9.01	Weak	0.38	2.4	task-social/outcomerating/task-cognitive_scale.png	n/a	n/a	n/a	n/a	n/a	n/a	n/a	n/a
294.8	0.99	cognitive	cue	10	high_cue	n/a	n/a	n/a	n/a	n/a	n/a	n/a	n/a	n/a	n/a	n/a	n/a	n/a	n/a	n/a	n/a
297.3	3.9	cognitive	expectrating	10	high_cue	n/a	18.73	Moderate	18.73	Moderate	0.57	3.34	task-social/cue/runtype-cognitive/sch/h008.png	n/a	n/a	n/a	n/a	n/a	n/a	n/a	n/a
307.9	5.0	cognitive	stimulus	10	high_cue	med_stim	n/a	n/a	n/a	n/a	n/a	n/a	task-social/stim/runtype-cognitive/7_100_R.jpg	n/a	n/a	n/a	n/a	n/a	diff	diff	True
317.19	2.13	cognitive	outcomerating	10	high_cue	med_stim	11.58	Moderate	11.58	Moderate	1.37	0.77	task-social/outcomerating/task-cognitive_scale.png	n/a	n/a	n/a	n/a	n/a	n/a	n/a	n/a
327.09	0.99	cognitive	cue	11	low_cue	n/a	n/a	n/a	n/a	n/a	n/a	n/a	n/a	n/a	n/a	n/a	n/a	n/a	n/a	n/a	n/a
329.99	2.18	cognitive	expectrating	11	low_cue	n/a	14.99	Moderate	14.99	Moderate	0.85	1.33	task-social/cue/runtype-cognitive/scl/l027.png	n/a	n/a	n/a	n/a	n/a	n/a	n/a	n/a
342.9	5.0	cognitive	stimulus	11	low_cue	med_stim	n/a	n/a	n/a	n/a	n/a	n/a	task-social/stim/runtype-cognitive/19_100.jpg	n/a	n/a	n/a	n/a	n/a	same	diff	False
361.49	2.67	cognitive	outcomerating	11	low_cue	med_stim	22.62	Moderate	22.62	Moderate	0.73	1.93	task-social/outcomerating/task-cognitive_scale.png	n/a	n/a	n/a	n/a	n/a	n/a	n/a	n/a
366.49	0.99	cognitive	cue	12	low_cue	n/a	n/a	n/a	n/a	n/a	n/a	n/a	n/a	n/a	n/a	n/a	n/a	n/a	n/a	n/a	n/a
369.39	2.17	cognitive	expectrating	12	low_cue	n/a	21.2	Moderate	21.2	Moderate	1.1	1.07	task-social/cue/runtype-cognitive/scl/l014.png	n/a	n/a	n/a	n/a	n/a	n/a	n/a	n/a
376.19	5.0	cognitive	stimulus	12	low_cue	low_stim	n/a	n/a	n/a	n/a	n/a	n/a	task-social/stim/runtype-cognitive/28_50_R.jpg	n/a	n/a	n/a	n/a	n/a	diff	diff	True
394.8	2.2	cognitive	outcomerating	12	low_cue	low_stim	8.07	Weak	8.07	Weak	0.32	1.88	task-social/outcomerating/task-cognitive_scale.png	n/a	n/a	n/a	n/a	n/a	n/a	n/a	n/a
