onset	duration	run_type	trial_type	trial_index	cue	stimulusintensity	rating_value	rating_glmslabel	rating_value_fillna	rating_glmslabel_fillna	rating_mouseonset	rating_mousedur	stim_file	pain_onset_ttl1	pain_onset_ttl2	pain_onset_ttl3	pain_onset_ttl4	pain_stimulus_delivery_success	cognitive_correct_response	cognitive_participant_response	cognitive_response_accuracy
3.9	0.99	vicarious	cue	1	high_cue	n/a	n/a	n/a	n/a	n/a	n/a	n/a	task-social/cue/runtype-vicarious/sch/h050.png	n/a	n/a	n/a	n/a	n/a	n/a	n/a	n/a
6.11	n/a	vicarious	expectrating	1	high_cue	n/a	n/a	n/a	50.05	Strong	0.85	3.95	task-social/cue/runtype-vicarious/sch/h050.png	n/a	n/a	n/a	n/a	n/a	n/a	n/a	n/a
16.79	5.0	vicarious	stimulus	1	high_cue	low_stim	n/a	n/a	n/a	n/a	n/a	n/a	task-social/stim/runtype-vicarious/bm049t1afaff_L.mp4	n/a	n/a	n/a	n/a	n/a	n/a	n/a	n/a
29.01	n/a	vicarious	outcomerating	1	high_cue	low_stim	n/a	n/a	4.0	Weak	0.43	3.1	task-social/outcomerating/task-vicarious_scale.png	n/a	n/a	n/a	n/a	n/a	n/a	n/a	n/a
33.59	0.99	vicarious	cue	2	low_cue	n/a	n/a	n/a	n/a	n/a	n/a	n/a	task-social/cue/runtype-vicarious/scl/l018.png	n/a	n/a	n/a	n/a	n/a	n/a	n/a	n/a
36.01	2.3	vicarious	expectrating	2	low_cue	n/a	0.0	n/a	0.0	n/a	0.43	1.87	task-social/cue/runtype-vicarious/scl/l018.png	n/a	n/a	n/a	n/a	n/a	n/a	n/a	n/a
49.79	5.0	vicarious	stimulus	2	low_cue	med_stim	n/a	n/a	n/a	n/a	n/a	n/a	task-social/stim/runtype-vicarious/vw121t1aiaff_M.mp4	n/a	n/a	n/a	n/a	n/a	n/a	n/a	n/a
59.9	n/a	vicarious	outcomerating	2	low_cue	med_stim	n/a	n/a	5.38	Weak	0.7	2.98	task-social/outcomerating/task-vicarious_scale.png	n/a	n/a	n/a	n/a	n/a	n/a	n/a	n/a
65.1	0.98	vicarious	cue	3	high_cue	n/a	n/a	n/a	n/a	n/a	n/a	n/a	task-social/cue/runtype-vicarious/sch/h046.png	n/a	n/a	n/a	n/a	n/a	n/a	n/a	n/a
67.3	2.19	vicarious	expectrating	3	high_cue	n/a	11.22	Moderate	11.22	Moderate	0.42	1.77	task-social/cue/runtype-vicarious/sch/h046.png	n/a	n/a	n/a	n/a	n/a	n/a	n/a	n/a
73.89	5.0	vicarious	stimulus	3	high_cue	low_stim	n/a	n/a	n/a	n/a	n/a	n/a	task-social/stim/runtype-vicarious/ch092t2aeaff_L.mp4	n/a	n/a	n/a	n/a	n/a	n/a	n/a	n/a
82.41	3.15	vicarious	outcomerating	3	high_cue	low_stim	4.36	Weak	4.36	Weak	0.45	2.7	task-social/outcomerating/task-vicarious_scale.png	n/a	n/a	n/a	n/a	n/a	n/a	n/a	n/a
87.5	0.99	vicarious	cue	4	low_cue	n/a	n/a	n/a	n/a	n/a	n/a	n/a	task-social/cue/runtype-vicarious/scl/l051.png	n/a	n/a	n/a	n/a	n/a	n/a	n/a	n/a
91.0	2.7	vicarious	expectrating	4	low_cue	n/a	0.46	No sensation	0.46	No sensation	0.68	2.02	task-social/cue/runtype-vicarious/scl/l051.png	n/a	n/a	n/a	n/a	n/a	n/a	n/a	n/a
105.99	5.0	vicarious	stimulus	4	low_cue	med_stim	n/a	n/a	n/a	n/a	n/a	n/a	task-social/stim/runtype-vicarious/bn080t1aeaff_M.mp4	n/a	n/a	n/a	n/a	n/a	n/a	n/a	n/a
119.21	n/a	vicarious	outcomerating	4	low_cue	med_stim	n/a	n/a	40.1	Strong	0.52	3.08	task-social/outcomerating/task-vicarious_scale.png	n/a	n/a	n/a	n/a	n/a	n/a	n/a	n/a
124.29	0.99	vicarious	cue	5	high_cue	n/a	n/a	n/a	n/a	n/a	n/a	n/a	task-social/cue/runtype-vicarious/sch/h024.png	n/a	n/a	n/a	n/a	n/a	n/a	n/a	n/a
126.01	2.68	vicarious	expectrating	5	high_cue	n/a	29.03	Strong	29.03	Strong	0.47	2.22	task-social/cue/runtype-vicarious/sch/h024.png	n/a	n/a	n/a	n/a	n/a	n/a	n/a	n/a
132.59	5.0	vicarious	stimulus	5	high_cue	high_stim	n/a	n/a	n/a	n/a	n/a	n/a	task-social/stim/runtype-vicarious/bg096t1aeaff_H.mp4	n/a	n/a	n/a	n/a	n/a	n/a	n/a	n/a
145.8	3.66	vicarious	outcomerating	5	high_cue	high_stim	56.69	Strong	56.69	Strong	0.58	3.07	task-social/outcomerating/task-vicarious_scale.png	n/a	n/a	n/a	n/a	n/a	n/a	n/a	n/a
150.4	0.98	vicarious	cue	6	low_cue	n/a	n/a	n/a	n/a	n/a	n/a	n/a	task-social/cue/runtype-vicarious/scl/l019.png	n/a	n/a	n/a	n/a	n/a	n/a	n/a	n/a
153.9	3.77	vicarious	expectrating	6	low_cue	n/a	1.64	Barely detectable	1.64	Barely detectable	0.55	3.22	task-social/cue/runtype-vicarious/scl/l019.png	n/a	n/a	n/a	n/a	n/a	n/a	n/a	n/a
161.69	5.0	vicarious	stimulus	6	low_cue	low_stim	n/a	n/a	n/a	n/a	n/a	n/a	task-social/stim/runtype-vicarious/jk103t1aaunaff_L.mp4	n/a	n/a	n/a	n/a	n/a	n/a	n/a	n/a
173.91	n/a	vicarious	outcomerating	6	low_cue	low_stim	n/a	n/a	0.0	n/a	0.05	3.5	task-social/outcomerating/task-vicarious_scale.png	n/a	n/a	n/a	n/a	n/a	n/a	n/a	n/a
183.5	0.99	vicarious	cue	7	low_cue	n/a	n/a	n/a	n/a	n/a	n/a	n/a	task-social/cue/runtype-vicarious/scl/l020.png	n/a	n/a	n/a	n/a	n/a	n/a	n/a	n/a
185.7	2.04	vicarious	expectrating	7	low_cue	n/a	0.46	No sensation	0.46	No sensation	0.55	1.49	task-social/cue/runtype-vicarious/scl/l020.png	n/a	n/a	n/a	n/a	n/a	n/a	n/a	n/a
199.89	5.0	vicarious	stimulus	7	low_cue	high_stim	n/a	n/a	n/a	n/a	n/a	n/a	task-social/stim/runtype-vicarious/ib109t1aiaff_H.mp4	n/a	n/a	n/a	n/a	n/a	n/a	n/a	n/a
213.21	2.73	vicarious	outcomerating	7	low_cue	high_stim	8.52	Weak	8.52	Weak	0.88	1.85	task-social/outcomerating/task-vicarious_scale.png	n/a	n/a	n/a	n/a	n/a	n/a	n/a	n/a
223.4	0.99	vicarious	cue	8	low_cue	n/a	n/a	n/a	n/a	n/a	n/a	n/a	task-social/cue/runtype-vicarious/scl/l048.png	n/a	n/a	n/a	n/a	n/a	n/a	n/a	n/a
225.6	n/a	vicarious	expectrating	8	low_cue	n/a	n/a	n/a	5.83	Weak	1.02	3.82	task-social/cue/runtype-vicarious/scl/l048.png	n/a	n/a	n/a	n/a	n/a	n/a	n/a	n/a
232.19	5.0	vicarious	stimulus	8	low_cue	low_stim	n/a	n/a	n/a	n/a	n/a	n/a	task-social/stim/runtype-vicarious/vw121t1aeaff_L.mp4	n/a	n/a	n/a	n/a	n/a	n/a	n/a	n/a
245.5	3.85	vicarious	outcomerating	8	low_cue	low_stim	2.3	Barely detectable	2.3	Barely detectable	0.42	3.44	task-social/outcomerating/task-vicarious_scale.png	n/a	n/a	n/a	n/a	n/a	n/a	n/a	n/a
259.29	0.99	vicarious	cue	9	high_cue	n/a	n/a	n/a	n/a	n/a	n/a	n/a	task-social/cue/runtype-vicarious/sch/h017.png	n/a	n/a	n/a	n/a	n/a	n/a	n/a	n/a
262.79	2.18	vicarious	expectrating	9	high_cue	n/a	6.55	Weak	6.55	Weak	0.45	1.73	task-social/cue/runtype-vicarious/sch/h017.png	n/a	n/a	n/a	n/a	n/a	n/a	n/a	n/a
277.79	5.0	vicarious	stimulus	9	high_cue	high_stim	n/a	n/a	n/a	n/a	n/a	n/a	task-social/stim/runtype-vicarious/bm049t2aeunaff_H.mp4	n/a	n/a	n/a	n/a	n/a	n/a	n/a	n/a
287.9	1.99	vicarious	outcomerating	9	high_cue	high_stim	0.0	n/a	0.0	n/a	0.35	1.64	task-social/outcomerating/task-vicarious_scale.png	n/a	n/a	n/a	n/a	n/a	n/a	n/a	n/a
294.11	0.98	vicarious	cue	10	low_cue	n/a	n/a	n/a	n/a	n/a	n/a	n/a	task-social/cue/runtype-vicarious/scl/l032.png	n/a	n/a	n/a	n/a	n/a	n/a	n/a	n/a
296.51	1.82	vicarious	expectrating	10	low_cue	n/a	0.0	n/a	0.0	n/a	0.33	1.48	task-social/cue/runtype-vicarious/scl/l032.png	n/a	n/a	n/a	n/a	n/a	n/a	n/a	n/a
304.09	5.0	vicarious	stimulus	10	low_cue	high_stim	n/a	n/a	n/a	n/a	n/a	n/a	task-social/stim/runtype-vicarious/jk103t1aaaff_H.mp4	n/a	n/a	n/a	n/a	n/a	n/a	n/a	n/a
312.61	2.73	vicarious	outcomerating	10	low_cue	high_stim	33.24	Strong	33.24	Strong	0.43	2.3	task-social/outcomerating/task-vicarious_scale.png	n/a	n/a	n/a	n/a	n/a	n/a	n/a	n/a
331.1	0.98	vicarious	cue	11	high_cue	n/a	n/a	n/a	n/a	n/a	n/a	n/a	task-social/cue/runtype-vicarious/sch/h016.png	n/a	n/a	n/a	n/a	n/a	n/a	n/a	n/a
333.5	2.35	vicarious	expectrating	11	high_cue	n/a	37.65	Strong	37.65	Strong	0.43	1.92	task-social/cue/runtype-vicarious/sch/h016.png	n/a	n/a	n/a	n/a	n/a	n/a	n/a	n/a
342.79	5.0	vicarious	stimulus	11	high_cue	med_stim	n/a	n/a	n/a	n/a	n/a	n/a	task-social/stim/runtype-vicarious/bg096t2aaaff_M.mp4	n/a	n/a	n/a	n/a	n/a	n/a	n/a	n/a
355.81	3.53	vicarious	outcomerating	11	high_cue	med_stim	64.36	Very Strong	64.36	Very Strong	0.4	3.13	task-social/outcomerating/task-vicarious_scale.png	n/a	n/a	n/a	n/a	n/a	n/a	n/a	n/a
369.6	0.99	vicarious	cue	12	high_cue	n/a	n/a	n/a	n/a	n/a	n/a	n/a	task-social/cue/runtype-vicarious/sch/h032.png	n/a	n/a	n/a	n/a	n/a	n/a	n/a	n/a
371.6	1.39	vicarious	expectrating	12	high_cue	n/a	60.92	Strong	60.92	Strong	0.5	0.89	task-social/cue/runtype-vicarious/sch/h032.png	n/a	n/a	n/a	n/a	n/a	n/a	n/a	n/a
384.59	5.0	vicarious	stimulus	12	high_cue	med_stim	n/a	n/a	n/a	n/a	n/a	n/a	task-social/stim/runtype-vicarious/ch092t2aaaff_M.mp4	n/a	n/a	n/a	n/a	n/a	n/a	n/a	n/a
394.81	2.83	vicarious	outcomerating	12	high_cue	med_stim	3.22	Weak	3.22	Weak	0.5	2.33	task-social/outcomerating/task-vicarious_scale.png	n/a	n/a	n/a	n/a	n/a	n/a	n/a	n/a
