onset	duration	trial_type	response_x	response_y	situation	context	modality	stim_file
11.85	22.115	narrative_presentation	n/a	n/a	An enemy loved	forest	Text	task-narratives/Narrative2Situation1.txt
33.965	3.702	rating_feeling	906	496	An enemy loved	forest	Text	n/a
35.531	2.135	feeling_mouse_trajectory	906	496	An enemy loved	forest	Text	n/a
38.012	2.768	rating_expectation	773	536	An enemy loved	forest	Text	n/a
39.495	1.285	expectation_mouse_trajectory	773	536	An enemy loved	forest	Text	n/a
44.078	36.185	narrative_presentation	n/a	n/a	Enmity of kin	forest	Text	task-narratives/Narrative2Situation2.txt
80.263	2.885	rating_feeling	727	551	Enmity of kin	forest	Text	n/a
81.347	1.801	feeling_mouse_trajectory	727	551	Enmity of kin	forest	Text	n/a
84.279	2.485	rating_expectation	639	435	Enmity of kin	forest	Text	n/a
85.395	1.368	expectation_mouse_trajectory	639	435	Enmity of kin	forest	Text	n/a
92.346	9.372	narrative_presentation	n/a	n/a	Necessity of sacrificing loved ones	forest	Text	task-narratives/Narrative2Situation3.txt
101.719	2.827	rating_feeling	693	537	Necessity of sacrificing loved ones	forest	Text	n/a
102.902	1.643	feeling_mouse_trajectory	693	537	Necessity of sacrificing loved ones	forest	Text	n/a
105.737	2.809	rating_expectation	576	401	Necessity of sacrificing loved ones	forest	Text	n/a
106.637	1.909	expectation_mouse_trajectory	576	401	Necessity of sacrificing loved ones	forest	Text	n/a
112.804	18.426	narrative_presentation	n/a	n/a	Murderous adultury	town	Text	task-narratives/Narrative2Situation4.txt
131.23	2.818	rating_feeling	576	392	Murderous adultury	town	Text	n/a
131.98	2.068	feeling_mouse_trajectory	576	392	Murderous adultury	town	Text	n/a
135.265	3.718	rating_expectation	586	380	Murderous adultury	town	Text	n/a
135.731	3.252	expectation_mouse_trajectory	586	380	Murderous adultury	town	Text	n/a
142.332	16.742	narrative_presentation	n/a	n/a	Daring Enterprise	town	Text	task-narratives/Narrative2Situation5.txt
159.074	3.005	rating_feeling	736	485	Daring Enterprise	town	Text	n/a
160.424	1.655	feeling_mouse_trajectory	736	485	Daring Enterprise	town	Text	n/a
163.095	3.604	rating_expectation	612	381	Daring Enterprise	town	Text	n/a
164.695	2.004	expectation_mouse_trajectory	612	381	Daring Enterprise	town	Text	n/a
169.158	5.688	narrative_presentation	n/a	n/a	Ambition	town	Text	task-narratives/Narrative2Situation6.txt
174.847	2.785	rating_feeling	553	430	Ambition	town	Text	n/a
175.897	1.735	feeling_mouse_trajectory	553	430	Ambition	town	Text	n/a
178.864	2.301	rating_expectation	593	392	Ambition	town	Text	n/a
179.031	2.134	expectation_mouse_trajectory	593	392	Ambition	town	Text	n/a
183.931	19.093	narrative_presentation	n/a	n/a	Mistaken jealousy	hospital	Text	task-narratives/Narrative2Situation7.txt
203.024	3.822	rating_feeling	792	347	Mistaken jealousy	hospital	Text	n/a
203.674	3.172	feeling_mouse_trajectory	792	347	Mistaken jealousy	hospital	Text	n/a
207.045	2.504	rating_expectation	688	401	Mistaken jealousy	hospital	Text	n/a
208.012	1.537	expectation_mouse_trajectory	688	401	Mistaken jealousy	hospital	Text	n/a
214.109	18.093	narrative_presentation	n/a	n/a	Discovery of dishonour of loved one	hospital	Text	task-narratives/Narrative2Situation8.txt
232.202	3.652	rating_feeling	935	480	Discovery of dishonour of loved one	hospital	Text	n/a
233.368	2.485	feeling_mouse_trajectory	935	480	Discovery of dishonour of loved one	hospital	Text	n/a
236.219	2.127	rating_expectation	790	571	Discovery of dishonour of loved one	hospital	Text	n/a
237.136	1.21	expectation_mouse_trajectory	790	571	Discovery of dishonour of loved one	hospital	Text	n/a
243.286	15.411	narrative_presentation	n/a	n/a	Self-sacrifice for an ideal	hospital	Text	task-narratives/Narrative2Situation9.txt
258.697	2.185	rating_feeling	1224	543	Self-sacrifice for an ideal	hospital	Text	n/a
259.397	1.485	feeling_mouse_trajectory	1224	543	Self-sacrifice for an ideal	hospital	Text	n/a
262.712	2.134	rating_expectation	759	579	Self-sacrifice for an ideal	hospital	Text	n/a
264.029	0.818	expectation_mouse_trajectory	759	579	Self-sacrifice for an ideal	hospital	Text	n/a
269.779	10.391	narrative_presentation	n/a	n/a	Supplication	hospital	Text	task-narratives/Narrative1Situation1.txt
280.171	2.244	rating_feeling	960	707	Supplication	hospital	Text	n/a
284.187	2.109	rating_expectation	960	707	Supplication	hospital	Text	n/a
290.254	14.41	narrative_presentation	n/a	n/a	Madness	hospital	Text	task-narratives/Narrative1Situation2.txt
304.663	1.984	rating_feeling	761	550	Madness	hospital	Text	n/a
305.563	1.084	feeling_mouse_trajectory	761	550	Madness	hospital	Text	n/a
308.679	2.668	rating_expectation	652	480	Madness	hospital	Text	n/a
310.046	1.301	expectation_mouse_trajectory	652	480	Madness	hospital	Text	n/a
313.746	20.779	narrative_presentation	n/a	n/a	Murderous adultury	hospital	Text	task-narratives/Narrative1Situation3.txt
334.525	3.223	rating_feeling	646	472	Murderous adultury	hospital	Text	n/a
335.575	2.173	feeling_mouse_trajectory	646	472	Murderous adultury	hospital	Text	n/a
338.547	3.205	rating_expectation	813	511	Murderous adultury	hospital	Text	n/a
339.68	2.072	expectation_mouse_trajectory	813	511	Murderous adultury	hospital	Text	n/a
345.641	18.427	narrative_presentation	n/a	n/a	Recovery of a lost one	town	Text	task-narratives/Narrative1Situation4.txt
364.068	3.151	rating_feeling	1076	559	Recovery of a lost one	town	Text	n/a
365.634	1.585	feeling_mouse_trajectory	1076	559	Recovery of a lost one	town	Text	n/a
368.084	2.651	rating_expectation	802	536	Recovery of a lost one	town	Text	n/a
369.618	1.118	expectation_mouse_trajectory	802	536	Recovery of a lost one	town	Text	n/a
375.152	11.061	narrative_presentation	n/a	n/a	Slaying of kin unrecognized	town	Text	task-narratives/Narrative1Situation5.txt
386.213	2.087	rating_feeling	692	556	Slaying of kin unrecognized	town	Text	n/a
387.097	1.204	feeling_mouse_trajectory	692	556	Slaying of kin unrecognized	town	Text	n/a
390.229	2.203	rating_expectation	606	372	Slaying of kin unrecognized	town	Text	n/a
390.712	1.719	expectation_mouse_trajectory	606	372	Slaying of kin unrecognized	town	Text	n/a
395.293	25.129	narrative_presentation	n/a	n/a	An enemy loved	town	Text	task-narratives/Narrative1Situation6.txt
420.422	3.568	rating_feeling	724	583	An enemy loved	town	Text	n/a
422.122	1.868	feeling_mouse_trajectory	724	583	An enemy loved	town	Text	n/a
424.439	1.973	rating_expectation	679	476	An enemy loved	town	Text	n/a
425.205	1.207	expectation_mouse_trajectory	679	476	An enemy loved	town	Text	n/a
431.506	22.112	narrative_presentation	n/a	n/a	Fatal imprudence	prison	Text	task-narratives/Narrative1Situation7.txt
453.618	3.818	rating_feeling	933	487	Fatal imprudence	prison	Text	n/a
454.834	2.602	feeling_mouse_trajectory	933	487	Fatal imprudence	prison	Text	n/a
457.635	2.494	rating_expectation	731	541	Fatal imprudence	prison	Text	n/a
458.435	1.694	expectation_mouse_trajectory	731	541	Fatal imprudence	prison	Text	n/a
462.701	12.396	narrative_presentation	n/a	n/a	Discovery of dishonour of loved one	prison	Text	task-narratives/Narrative1Situation8.txt
475.097	2.604	rating_feeling	763	532	Discovery of dishonour of loved one	prison	Text	n/a
476.164	1.538	feeling_mouse_trajectory	763	532	Discovery of dishonour of loved one	prison	Text	n/a
479.129	2.736	rating_expectation	846	519	Discovery of dishonour of loved one	prison	Text	n/a
479.746	2.119	expectation_mouse_trajectory	846	519	Discovery of dishonour of loved one	prison	Text	n/a
491.195	29.481	narrative_presentation	n/a	n/a	Abduction	prison	Text	task-narratives/Narrative1Situation9.txt
520.676	2.471	rating_feeling	573	397	Abduction	prison	Text	n/a
521.393	1.754	feeling_mouse_trajectory	573	397	Abduction	prison	Text	n/a
524.696	2.069	rating_expectation	716	507	Abduction	prison	Text	n/a
525.296	1.469	expectation_mouse_trajectory	716	507	Abduction	prison	Text	n/a
