onset	duration	event_type	response_accuracy	cue_location	target_location	button_press	trial_index
7.06777811050415	0.2	invalid_cue	correct	left	n/a	n/a	1
7.28452610969543	0.473828792572021	target_response	correct	left	right	right	1
10.1189160346985	0.2	invalid_cue	correct	right	n/a	n/a	2
10.318990945816	0.453297138214111	target_response	correct	right	left	left	2
13.9036612510681	0.2	valid_cue	correct	right	n/a	n/a	3
14.1037366390228	0.531246423721313	target_response	correct	right	right	right	3
21.373113155365	0.2	invalid_cue	correct	left	n/a	n/a	4
21.5731883049011	0.556435585021973	target_response	correct	left	right	right	4
24.841073513031	0.2	valid_cue	correct	left	n/a	n/a	5
25.0411477088928	0.482287168502808	target_response	correct	left	left	left	5
28.2256689071655	0.2	invalid_cue	correct	left	n/a	n/a	6
28.4257423877716	0.519739627838135	target_response	correct	left	right	right	6
36.5954558849335	0.2	valid_cue	correct	right	n/a	n/a	7
36.7955312728882	0.573108673095703	target_response	correct	right	right	right	7
39.96337890625	0.2	valid_cue	correct	left	n/a	n/a	8
40.1634540557861	0.390475034713745	target_response	correct	left	left	left	8
43.2312638759613	0.2	valid_cue	correct	left	n/a	n/a	9
43.4313390254974	0.371582984924316	target_response	correct	left	left	left	9
46.199038028717	0.2	invalid_cue	correct	right	n/a	n/a	10
46.3991131782532	0.540421724319458	target_response	correct	right	left	left	10
49.4669229984283	0.2	valid_cue	correct	right	n/a	n/a	11
49.6669981479645	0.492705821990967	target_response	correct	right	right	right	11
52.4346971511841	0.2	valid_cue	correct	left	n/a	n/a	12
52.6347713470459	0.341935634613037	target_response	correct	left	left	left	12
55.5025081634521	0.2	valid_cue	correct	left	n/a	n/a	13
55.7025809288025	0.430233001708984	target_response	correct	left	left	left	13
59.3706171512604	0.2	valid_cue	correct	right	n/a	n/a	14
59.5706913471222	0.370050668716431	target_response	correct	right	right	right	14
63.1386878490448	0.2	valid_cue	correct	right	n/a	n/a	15
63.3387634754181	0.583817481994629	target_response	correct	right	right	right	15
66.1064624786377	0.2	valid_cue	correct	right	n/a	n/a	16
66.3065371513367	0.38927173614502	target_response	correct	right	right	right	16
69.1742725372314	0.2	valid_cue	correct	left	n/a	n/a	17
69.3743472099304	0.427196741104126	target_response	correct	left	left	left	17
72.2420830726624	0.2	invalid_cue	correct	right	n/a	n/a	18
72.4421577453613	0.448877334594727	target_response	correct	right	left	left	18
82.3125047683716	0.2	valid_cue	correct	right	n/a	n/a	19
82.5125803947449	0.304238557815552	target_response	correct	right	right	right	19
88.1813607215881	0.2	valid_cue	correct	right	n/a	n/a	20
88.38143491745	0.335556030273438	target_response	correct	right	right	right	20
91.5492827892303	0.2	invalid_cue	correct	right	n/a	n/a	21
91.7493577003479	0.431127309799194	target_response	correct	right	left	left	21
96.7178781032562	0.2	invalid_cue	correct	right	n/a	n/a	22
96.9179520606995	0.419027805328369	target_response	correct	right	left	left	22
99.9857633113861	0.2	valid_cue	correct	left	n/a	n/a	23
100.185837268829	0.496800661087036	target_response	correct	left	left	left	23
103.753835439682	0.2	valid_cue	correct	left	n/a	n/a	24
103.953909158707	0.429352760314941	target_response	correct	left	left	left	24
107.021718978882	0.2	invalid_cue	correct	right	n/a	n/a	25
107.221794366837	0.45267653465271	target_response	correct	right	left	left	25
110.389642715454	0.2	valid_cue	correct	right	n/a	n/a	26
110.589717149734	0.383824825286865	target_response	correct	right	right	right	26
116.158461332321	0.2	valid_cue	correct	right	n/a	n/a	27
116.358536720276	0.522034168243408	target_response	correct	right	right	right	27
119.526383161545	0.2	invalid_cue	correct	right	n/a	n/a	28
119.726457834244	0.6722252368927	target_response	correct	right	left	left	28
123.8946788311	0.2	invalid_cue	correct	right	n/a	n/a	29
124.094754457474	0.603717565536499	target_response	correct	right	left	left	29
129.863571405411	0.2	invalid_cue	correct	left	n/a	n/a	30
130.063645839691	0.608199119567871	target_response	correct	left	right	right	30
135.632390260696	0.2	valid_cue	correct	left	n/a	n/a	31
135.832463979721	0.58417010307312	target_response	correct	left	left	left	31
141.101096153259	0.2	valid_cue	correct	right	n/a	n/a	32
141.30117058754	0.441385507583618	target_response	correct	right	right	right	32
144.368980646133	0.2	invalid_cue	correct	left	n/a	n/a	33
144.569056034088	0.529388904571533	target_response	correct	left	right	right	33
149.437537908554	0.2	invalid_cue	correct	right	n/a	n/a	34
149.637612342834	0.488433599472046	target_response	correct	right	left	left	34
152.705422878265	0.2	valid_cue	correct	right	n/a	n/a	35
152.905498504639	0.459816455841064	target_response	correct	right	right	right	35
160.174876451492	0.2	valid_cue	correct	left	n/a	n/a	36
160.374950647354	0.315505266189575	target_response	correct	left	left	left	36
164.643209457397	0.2	valid_cue	correct	right	n/a	n/a	37
164.843283176422	0.405191898345947	target_response	correct	right	right	right	37
171.012249946594	0.2	valid_cue	correct	left	n/a	n/a	38
171.212325572968	0.355773448944092	target_response	correct	left	left	left	38
174.080061435699	0.2	invalid_cue	correct	left	n/a	n/a	39
174.280136346817	0.66679573059082	target_response	correct	left	right	right	39
177.447983264923	0.2	valid_cue	correct	right	n/a	n/a	40
177.648058414459	0.594470500946045	target_response	correct	right	right	right	40
188.718853473663	0.2	valid_cue	correct	right	n/a	n/a	41
188.918928146362	0.330152750015259	target_response	correct	right	right	right	41
196.188304901123	0.2	invalid_cue	correct	left	n/a	n/a	42
196.388379812241	0.456102132797241	target_response	correct	left	right	right	42
203.057533979416	0.2	valid_cue	correct	right	n/a	n/a	43
203.257608890533	0.506100177764893	target_response	correct	right	right	right	43
207.725942373276	0.2	valid_cue	correct	left	n/a	n/a	44
207.9260160923	0.677182912826538	target_response	correct	left	left	left	44
211.093864202499	0.2	invalid_cue	correct	left	n/a	n/a	45
211.293939113617	0.428533792495728	target_response	correct	left	right	right	45
220.664100170135	0.2	invalid_cue	correct	left	n/a	n/a	46
220.864174127579	0.53789496421814	target_response	correct	left	right	right	46
226.63299202919	0.2	invalid_cue	correct	right	n/a	n/a	47
226.833067417145	0.608440637588501	target_response	correct	right	left	left	47
234.102444648743	0.2	valid_cue	correct	left	n/a	n/a	48
234.302519083023	0.404958963394165	target_response	correct	left	left	left	48
245.373314380646	0.2	invalid_cue	correct	right	n/a	n/a	49
245.573388814926	0.62572717666626	target_response	correct	right	left	left	49
250.741982936859	0.2	invalid_cue	correct	right	n/a	n/a	50
250.942059516907	0.489388465881348	target_response	correct	right	left	left	50
253.909831285477	0.2	invalid_cue	correct	right	n/a	n/a	51
254.109905958176	0.549065113067627	target_response	correct	right	left	left	51
260.762386798859	0.2	invalid_cue	correct	right	n/a	n/a	52
260.96245932579	0.441344738006592	target_response	correct	right	left	left	52
264.130310058594	0.2	invalid_cue	correct	left	n/a	n/a	53
264.330384254456	0.527274608612061	target_response	correct	left	right	right	53
267.498232364655	0.2	valid_cue	correct	left	n/a	n/a	54
267.698307275772	0.423133611679077	target_response	correct	left	left	left	54
270.966192722321	0.2	invalid_cue	correct	right	n/a	n/a	55
271.166267633438	0.438664436340332	target_response	correct	right	left	left	55
274.434152364731	0.2	invalid_cue	correct	left	n/a	n/a	56
274.63422703743	0.463971853256226	target_response	correct	left	right	right	56
281.903604507446	0.2	valid_cue	correct	right	n/a	n/a	57
282.103679418564	0.441790580749512	target_response	correct	right	right	right	57
285.171489477158	0.2	invalid_cue	correct	right	n/a	n/a	58
285.371564149857	0.685735940933228	target_response	correct	right	left	left	58
288.739487171173	0.2	valid_cue	correct	left	n/a	n/a	59
288.939560651779	0.545039415359497	target_response	correct	left	left	left	59
296.208938598633	0.2	valid_cue	correct	left	n/a	n/a	60
296.409013986588	0.49068808555603	target_response	correct	left	left	left	60
299.476823091507	0.2	invalid_cue	correct	right	n/a	n/a	61
299.676899194717	1.10962677001953	target_response	correct	right	left	left	61
303.044820547104	0.2	invalid_cue	correct	left	n/a	n/a	62
303.244896650314	0.652547359466553	target_response	correct	left	right	right	62
307.513154268265	0.2	valid_cue	correct	right	n/a	n/a	63
307.713228940964	0.401332139968872	target_response	correct	right	right	right	63
310.781039953232	0.2	valid_cue	correct	right	n/a	n/a	64
310.981114625931	0.540351390838623	target_response	correct	right	right	right	64
315.549485206604	0.2	valid_cue	correct	left	n/a	n/a	65
315.749558925629	0.472293138504028	target_response	correct	left	left	left	65
318.71733212471	0.2	invalid_cue	correct	left	n/a	n/a	66
318.917407035828	0.830153942108154	target_response	correct	left	right	right	66
326.1867852211	0.2	invalid_cue	correct	left	n/a	n/a	67
326.386859416962	0.562768459320068	target_response	correct	left	right	right	67
329.754781723022	0.2	invalid_cue	correct	right	n/a	n/a	68
329.954856872559	0.897091150283813	target_response	correct	right	left	left	68
333.522854089737	0.2	valid_cue	correct	left	n/a	n/a	69
333.722929239273	0.448634624481201	target_response	correct	left	left	left	69
337.29092669487	0.2	invalid_cue	correct	left	n/a	n/a	70
337.491001367569	0.596928596496582	target_response	correct	left	right	right	70
340.858923435211	0.2	invalid_cue	correct	right	n/a	n/a	71
341.058997869492	0.467547178268433	target_response	correct	right	left	left	71
343.826696157455	0.2	valid_cue	correct	right	n/a	n/a	72
344.02677154541	0.420832395553589	target_response	correct	right	right	right	72
350.695925712585	0.2	valid_cue	correct	right	n/a	n/a	73
350.896000385284	0.594938516616821	target_response	correct	right	right	right	73
355.264295101166	0.2	valid_cue	correct	left	n/a	n/a	74
355.464370250702	0.655539751052856	target_response	correct	left	left	left	74
364.834531068802	0.2	valid_cue	correct	right	n/a	n/a	75
365.034606456757	0.306207418441772	target_response	correct	right	right	right	75
372.303982973099	0.2	valid_cue	correct	right	n/a	n/a	76
372.504057884216	0.386532068252563	target_response	correct	right	right	right	76
377.772688865662	0.2	valid_cue	correct	left	n/a	n/a	77
377.972763776779	0.51304817199707	target_response	correct	left	left	left	77
381.140612363815	0.2	valid_cue	correct	right	n/a	n/a	78
381.34068608284	0.654508829116821	target_response	correct	right	right	right	78
385.008716344833	0.2	valid_cue	correct	left	n/a	n/a	79
385.208795070648	0.398941993713379	target_response	correct	left	left	left	79
390.177315950394	0.2	invalid_cue	correct	right	n/a	n/a	80
390.377389192581	0.998677730560303	target_response	correct	right	left	left	80
397.646767139435	0.2	invalid_cue	correct	left	n/a	n/a	81
397.846842765808	0.424987316131592	target_response	correct	left	right	right	81
401.114725828171	0.2	invalid_cue	correct	left	n/a	n/a	82
401.314802408218	0.606716632843018	target_response	correct	left	right	right	82
404.382613420486	0.2	valid_cue	correct	right	n/a	n/a	83
404.582687139511	0.379154920578003	target_response	correct	right	right	right	83
411.852064847946	0.2	valid_cue	correct	left	n/a	n/a	84
412.052138805389	0.39776611328125	target_response	correct	left	left	left	84
418.321144104004	0.2	invalid_cue	correct	left	n/a	n/a	85
418.521218776703	0.470507144927979	target_response	correct	left	right	right	85
424.189999341965	0.2	valid_cue	correct	right	n/a	n/a	86
424.390074491501	0.602380514144897	target_response	correct	right	right	right	86
427.757995843887	0.2	valid_cue	correct	right	n/a	n/a	87
427.958071947098	0.684845924377441	target_response	correct	right	right	right	87
430.825807332993	0.2	invalid_cue	correct	left	n/a	n/a	88
431.025882720947	0.72864031791687	target_response	correct	left	right	right	88
433.993655204773	0.2	invalid_cue	correct	left	n/a	n/a	89
434.193730354309	1.05320072174072	target_response	correct	left	right	right	89
437.56165266037	0.2	invalid_cue	correct	left	n/a	n/a	90
437.761726856232	0.964677095413208	target_response	correct	left	right	right	90
445.031105518341	0.2	invalid_cue	correct	left	n/a	n/a	91
445.231179714203	0.530379295349121	target_response	correct	left	right	right	91
448.999251365662	0.2	valid_cue	correct	left	n/a	n/a	92
449.199326276779	1.78557968139648	target_response	correct	left	left	left	92
455.051508188248	0.2	invalid_cue	correct	right	n/a	n/a	93
455.251583337784	0.958879709243774	target_response	correct	right	left	left	93
461.420550107956	0.2	valid_cue	correct	right	n/a	n/a	94
461.620624065399	0.395910024642944	target_response	correct	right	right	right	94
467.689554452896	0.2	valid_cue	correct	left	n/a	n/a	95
467.889629364014	0.637945652008057	target_response	correct	left	left	left	95
472.958185911179	0.2	invalid_cue	correct	left	n/a	n/a	96
473.158260345459	0.47322154045105	target_response	correct	left	right	right	96
476.025996685028	0.2	invalid_cue	correct	right	n/a	n/a	97
476.22607088089	0.432787179946899	target_response	correct	right	left	left	97
478.993769884109	0.2	valid_cue	correct	right	n/a	n/a	98
479.193845272064	0.700741767883301	target_response	correct	right	right	right	98
486.363184690475	0.2	valid_cue	correct	left	n/a	n/a	99
486.563258886337	0.60728120803833	target_response	correct	left	left	left	99
492.832264184952	0.2	invalid_cue	correct	left	n/a	n/a	100
493.032339572906	0.478270292282104	target_response	correct	left	right	right	100
496.200187444687	0.2	invalid_cue	correct	left	n/a	n/a	101
496.400260925293	0.97887396812439	target_response	correct	left	right	right	101
500.368408203125	0.2	invalid_cue	correct	right	n/a	n/a	102
500.568482398987	0.373946666717529	target_response	correct	right	left	left	102
503.536255836487	0.2	invalid_cue	correct	right	n/a	n/a	103
503.736330509186	0.399851560592651	target_response	correct	right	left	left	103
513.606678247452	0.2	valid_cue	correct	left	n/a	n/a	104
513.806752204895	0.245680809020996	target_response	correct	left	left	left	104
516.974601268768	0.2	invalid_cue	correct	right	n/a	n/a	105
517.174675226212	0.425412654876709	target_response	correct	right	left	left	105
520.14244890213	0.2	invalid_cue	correct	left	n/a	n/a	106
520.342522382736	0.416716575622559	target_response	correct	left	right	right	106
524.810856580734	0.2	invalid_cue	correct	left	n/a	n/a	107
525.010930776596	0.409586191177368	target_response	correct	left	right	right	107
533.380718946457	0.2	invalid_cue	correct	left	n/a	n/a	108
533.580793142319	0.793817758560181	target_response	correct	left	right	right	108
539.449648857117	0.2	invalid_cue	correct	right	n/a	n/a	109
539.649724245071	1.08507370948792	target_response	correct	right	left	left	109
542.517458677292	0.2	valid_cue	correct	left	n/a	n/a	110
542.717534303665	0.539104700088501	target_response	correct	left	left	left	110
549.986910820007	0.2	valid_cue	correct	left	n/a	n/a	111
550.186986446381	0.278815507888794	target_response	correct	left	left	left	111
554.355207204819	0.2	valid_cue	correct	right	n/a	n/a	112
554.555282592773	0.440274477005005	target_response	correct	right	right	right	112
558.223315954208	0.2	invalid_cue	correct	right	n/a	n/a	113
558.423391342163	0.389266729354858	target_response	correct	right	left	left	113
561.891350984573	0.2	invalid_cue	correct	right	n/a	n/a	114
562.091426610947	0.638334274291992	target_response	correct	right	left	left	114
568.560505390167	0.2	invalid_cue	correct	right	n/a	n/a	115
568.760580778122	0.581339120864868	target_response	correct	right	left	left	115
572.328577518463	0.2	valid_cue	correct	right	n/a	n/a	116
572.528651475906	0.763332605361938	target_response	correct	right	right	right	116
575.696499824524	0.2	invalid_cue	correct	left	n/a	n/a	117
575.896574020386	0.588680028915405	target_response	correct	left	right	right	117
580.865092992783	0.2	valid_cue	correct	left	n/a	n/a	118
581.065168380737	0.567344665527344	target_response	correct	left	left	left	118
590.635404348373	0.2	valid_cue	correct	left	n/a	n/a	119
590.835478544235	0.943082332611084	target_response	correct	left	left	left	119
600.00556397438	0.2	valid_cue	correct	left	n/a	n/a	120
600.205639123917	0.465299844741821	target_response	correct	left	left	left	120
