onset	duration	subtask_type	event_type	response_accuracy	cue_location	target_location	button_press	trial_index
7.068	0.2	posner	invalid_cue	correct	left	n/a	n/a	1
7.285	0.474	posner	target_response	correct	left	right	right	1
10.119	0.2	posner	invalid_cue	correct	right	n/a	n/a	2
10.319	0.453	posner	target_response	correct	right	left	left	2
13.904	0.2	posner	valid_cue	correct	right	n/a	n/a	3
14.104	0.531	posner	target_response	correct	right	right	right	3
21.373	0.2	posner	invalid_cue	correct	left	n/a	n/a	4
21.573	0.556	posner	target_response	correct	left	right	right	4
24.841	0.2	posner	valid_cue	correct	left	n/a	n/a	5
25.041	0.482	posner	target_response	correct	left	left	left	5
28.226	0.2	posner	invalid_cue	correct	left	n/a	n/a	6
28.426	0.52	posner	target_response	correct	left	right	right	6
36.595	0.2	posner	valid_cue	correct	right	n/a	n/a	7
36.796	0.573	posner	target_response	correct	right	right	right	7
39.963	0.2	posner	valid_cue	correct	left	n/a	n/a	8
40.163	0.39	posner	target_response	correct	left	left	left	8
43.231	0.2	posner	valid_cue	correct	left	n/a	n/a	9
43.431	0.372	posner	target_response	correct	left	left	left	9
46.199	0.2	posner	invalid_cue	correct	right	n/a	n/a	10
46.399	0.54	posner	target_response	correct	right	left	left	10
49.467	0.2	posner	valid_cue	correct	right	n/a	n/a	11
49.667	0.493	posner	target_response	correct	right	right	right	11
52.435	0.2	posner	valid_cue	correct	left	n/a	n/a	12
52.635	0.342	posner	target_response	correct	left	left	left	12
55.503	0.2	posner	valid_cue	correct	left	n/a	n/a	13
55.703	0.43	posner	target_response	correct	left	left	left	13
59.371	0.2	posner	valid_cue	correct	right	n/a	n/a	14
59.571	0.37	posner	target_response	correct	right	right	right	14
63.139	0.2	posner	valid_cue	correct	right	n/a	n/a	15
63.339	0.584	posner	target_response	correct	right	right	right	15
66.106	0.2	posner	valid_cue	correct	right	n/a	n/a	16
66.307	0.389	posner	target_response	correct	right	right	right	16
69.174	0.2	posner	valid_cue	correct	left	n/a	n/a	17
69.374	0.427	posner	target_response	correct	left	left	left	17
72.242	0.2	posner	invalid_cue	correct	right	n/a	n/a	18
72.442	0.449	posner	target_response	correct	right	left	left	18
82.313	0.2	posner	valid_cue	correct	right	n/a	n/a	19
82.513	0.304	posner	target_response	correct	right	right	right	19
88.181	0.2	posner	valid_cue	correct	right	n/a	n/a	20
88.381	0.336	posner	target_response	correct	right	right	right	20
91.549	0.2	posner	invalid_cue	correct	right	n/a	n/a	21
91.749	0.431	posner	target_response	correct	right	left	left	21
96.718	0.2	posner	invalid_cue	correct	right	n/a	n/a	22
96.918	0.419	posner	target_response	correct	right	left	left	22
99.986	0.2	posner	valid_cue	correct	left	n/a	n/a	23
100.186	0.497	posner	target_response	correct	left	left	left	23
103.754	0.2	posner	valid_cue	correct	left	n/a	n/a	24
103.954	0.429	posner	target_response	correct	left	left	left	24
107.022	0.2	posner	invalid_cue	correct	right	n/a	n/a	25
107.222	0.453	posner	target_response	correct	right	left	left	25
110.39	0.2	posner	valid_cue	correct	right	n/a	n/a	26
110.59	0.384	posner	target_response	correct	right	right	right	26
116.158	0.2	posner	valid_cue	correct	right	n/a	n/a	27
116.359	0.522	posner	target_response	correct	right	right	right	27
119.526	0.2	posner	invalid_cue	correct	right	n/a	n/a	28
119.726	0.672	posner	target_response	correct	right	left	left	28
123.895	0.2	posner	invalid_cue	correct	right	n/a	n/a	29
124.095	0.604	posner	target_response	correct	right	left	left	29
129.864	0.2	posner	invalid_cue	correct	left	n/a	n/a	30
130.064	0.608	posner	target_response	correct	left	right	right	30
135.632	0.2	posner	valid_cue	correct	left	n/a	n/a	31
135.832	0.584	posner	target_response	correct	left	left	left	31
141.101	0.2	posner	valid_cue	correct	right	n/a	n/a	32
141.301	0.441	posner	target_response	correct	right	right	right	32
144.369	0.2	posner	invalid_cue	correct	left	n/a	n/a	33
144.569	0.529	posner	target_response	correct	left	right	right	33
149.438	0.2	posner	invalid_cue	correct	right	n/a	n/a	34
149.638	0.488	posner	target_response	correct	right	left	left	34
152.705	0.2	posner	valid_cue	correct	right	n/a	n/a	35
152.905	0.46	posner	target_response	correct	right	right	right	35
160.175	0.2	posner	valid_cue	correct	left	n/a	n/a	36
160.375	0.316	posner	target_response	correct	left	left	left	36
164.643	0.2	posner	valid_cue	correct	right	n/a	n/a	37
164.843	0.405	posner	target_response	correct	right	right	right	37
171.012	0.2	posner	valid_cue	correct	left	n/a	n/a	38
171.212	0.356	posner	target_response	correct	left	left	left	38
174.08	0.2	posner	invalid_cue	correct	left	n/a	n/a	39
174.28	0.667	posner	target_response	correct	left	right	right	39
177.448	0.2	posner	valid_cue	correct	right	n/a	n/a	40
177.648	0.594	posner	target_response	correct	right	right	right	40
188.719	0.2	posner	valid_cue	correct	right	n/a	n/a	41
188.919	0.33	posner	target_response	correct	right	right	right	41
196.188	0.2	posner	invalid_cue	correct	left	n/a	n/a	42
196.388	0.456	posner	target_response	correct	left	right	right	42
203.058	0.2	posner	valid_cue	correct	right	n/a	n/a	43
203.258	0.506	posner	target_response	correct	right	right	right	43
207.726	0.2	posner	valid_cue	correct	left	n/a	n/a	44
207.926	0.677	posner	target_response	correct	left	left	left	44
211.094	0.2	posner	invalid_cue	correct	left	n/a	n/a	45
211.294	0.429	posner	target_response	correct	left	right	right	45
220.664	0.2	posner	invalid_cue	correct	left	n/a	n/a	46
220.864	0.538	posner	target_response	correct	left	right	right	46
226.633	0.2	posner	invalid_cue	correct	right	n/a	n/a	47
226.833	0.608	posner	target_response	correct	right	left	left	47
234.102	0.2	posner	valid_cue	correct	left	n/a	n/a	48
234.303	0.405	posner	target_response	correct	left	left	left	48
245.373	0.2	posner	invalid_cue	correct	right	n/a	n/a	49
245.573	0.626	posner	target_response	correct	right	left	left	49
250.742	0.2	posner	invalid_cue	correct	right	n/a	n/a	50
250.942	0.489	posner	target_response	correct	right	left	left	50
253.91	0.2	posner	invalid_cue	correct	right	n/a	n/a	51
254.11	0.549	posner	target_response	correct	right	left	left	51
260.762	0.2	posner	invalid_cue	correct	right	n/a	n/a	52
260.962	0.441	posner	target_response	correct	right	left	left	52
264.13	0.2	posner	invalid_cue	correct	left	n/a	n/a	53
264.33	0.527	posner	target_response	correct	left	right	right	53
267.498	0.2	posner	valid_cue	correct	left	n/a	n/a	54
267.698	0.423	posner	target_response	correct	left	left	left	54
270.966	0.2	posner	invalid_cue	correct	right	n/a	n/a	55
271.166	0.439	posner	target_response	correct	right	left	left	55
274.434	0.2	posner	invalid_cue	correct	left	n/a	n/a	56
274.634	0.464	posner	target_response	correct	left	right	right	56
281.904	0.2	posner	valid_cue	correct	right	n/a	n/a	57
282.104	0.442	posner	target_response	correct	right	right	right	57
285.171	0.2	posner	invalid_cue	correct	right	n/a	n/a	58
285.372	0.686	posner	target_response	correct	right	left	left	58
288.739	0.2	posner	valid_cue	correct	left	n/a	n/a	59
288.94	0.545	posner	target_response	correct	left	left	left	59
296.209	0.2	posner	valid_cue	correct	left	n/a	n/a	60
296.409	0.491	posner	target_response	correct	left	left	left	60
299.477	0.2	posner	invalid_cue	correct	right	n/a	n/a	61
299.677	1.11	posner	target_response	correct	right	left	left	61
303.045	0.2	posner	invalid_cue	correct	left	n/a	n/a	62
303.245	0.653	posner	target_response	correct	left	right	right	62
307.513	0.2	posner	valid_cue	correct	right	n/a	n/a	63
307.713	0.401	posner	target_response	correct	right	right	right	63
310.781	0.2	posner	valid_cue	correct	right	n/a	n/a	64
310.981	0.54	posner	target_response	correct	right	right	right	64
315.549	0.2	posner	valid_cue	correct	left	n/a	n/a	65
315.75	0.472	posner	target_response	correct	left	left	left	65
318.717	0.2	posner	invalid_cue	correct	left	n/a	n/a	66
318.917	0.83	posner	target_response	correct	left	right	right	66
326.187	0.2	posner	invalid_cue	correct	left	n/a	n/a	67
326.387	0.563	posner	target_response	correct	left	right	right	67
329.755	0.2	posner	invalid_cue	correct	right	n/a	n/a	68
329.955	0.897	posner	target_response	correct	right	left	left	68
333.523	0.2	posner	valid_cue	correct	left	n/a	n/a	69
333.723	0.449	posner	target_response	correct	left	left	left	69
337.291	0.2	posner	invalid_cue	correct	left	n/a	n/a	70
337.491	0.597	posner	target_response	correct	left	right	right	70
340.859	0.2	posner	invalid_cue	correct	right	n/a	n/a	71
341.059	0.468	posner	target_response	correct	right	left	left	71
343.827	0.2	posner	valid_cue	correct	right	n/a	n/a	72
344.027	0.421	posner	target_response	correct	right	right	right	72
350.696	0.2	posner	valid_cue	correct	right	n/a	n/a	73
350.896	0.595	posner	target_response	correct	right	right	right	73
355.264	0.2	posner	valid_cue	correct	left	n/a	n/a	74
355.464	0.656	posner	target_response	correct	left	left	left	74
364.835	0.2	posner	valid_cue	correct	right	n/a	n/a	75
365.035	0.306	posner	target_response	correct	right	right	right	75
372.304	0.2	posner	valid_cue	correct	right	n/a	n/a	76
372.504	0.387	posner	target_response	correct	right	right	right	76
377.773	0.2	posner	valid_cue	correct	left	n/a	n/a	77
377.973	0.513	posner	target_response	correct	left	left	left	77
381.141	0.2	posner	valid_cue	correct	right	n/a	n/a	78
381.341	0.655	posner	target_response	correct	right	right	right	78
385.009	0.2	posner	valid_cue	correct	left	n/a	n/a	79
385.209	0.399	posner	target_response	correct	left	left	left	79
390.177	0.2	posner	invalid_cue	correct	right	n/a	n/a	80
390.377	0.999	posner	target_response	correct	right	left	left	80
397.647	0.2	posner	invalid_cue	correct	left	n/a	n/a	81
397.847	0.425	posner	target_response	correct	left	right	right	81
401.115	0.2	posner	invalid_cue	correct	left	n/a	n/a	82
401.315	0.607	posner	target_response	correct	left	right	right	82
404.383	0.2	posner	valid_cue	correct	right	n/a	n/a	83
404.583	0.379	posner	target_response	correct	right	right	right	83
411.852	0.2	posner	valid_cue	correct	left	n/a	n/a	84
412.052	0.398	posner	target_response	correct	left	left	left	84
418.321	0.2	posner	invalid_cue	correct	left	n/a	n/a	85
418.521	0.471	posner	target_response	correct	left	right	right	85
424.19	0.2	posner	valid_cue	correct	right	n/a	n/a	86
424.39	0.602	posner	target_response	correct	right	right	right	86
427.758	0.2	posner	valid_cue	correct	right	n/a	n/a	87
427.958	0.685	posner	target_response	correct	right	right	right	87
430.826	0.2	posner	invalid_cue	correct	left	n/a	n/a	88
431.026	0.729	posner	target_response	correct	left	right	right	88
433.994	0.2	posner	invalid_cue	correct	left	n/a	n/a	89
434.194	1.053	posner	target_response	correct	left	right	right	89
437.562	0.2	posner	invalid_cue	correct	left	n/a	n/a	90
437.762	0.965	posner	target_response	correct	left	right	right	90
445.031	0.2	posner	invalid_cue	correct	left	n/a	n/a	91
445.231	0.53	posner	target_response	correct	left	right	right	91
448.999	0.2	posner	valid_cue	correct	left	n/a	n/a	92
449.199	1.786	posner	target_response	correct	left	left	left	92
455.052	0.2	posner	invalid_cue	correct	right	n/a	n/a	93
455.252	0.959	posner	target_response	correct	right	left	left	93
461.421	0.2	posner	valid_cue	correct	right	n/a	n/a	94
461.621	0.396	posner	target_response	correct	right	right	right	94
467.69	0.2	posner	valid_cue	correct	left	n/a	n/a	95
467.89	0.638	posner	target_response	correct	left	left	left	95
472.958	0.2	posner	invalid_cue	correct	left	n/a	n/a	96
473.158	0.473	posner	target_response	correct	left	right	right	96
476.026	0.2	posner	invalid_cue	correct	right	n/a	n/a	97
476.226	0.433	posner	target_response	correct	right	left	left	97
478.994	0.2	posner	valid_cue	correct	right	n/a	n/a	98
479.194	0.701	posner	target_response	correct	right	right	right	98
486.363	0.2	posner	valid_cue	correct	left	n/a	n/a	99
486.563	0.607	posner	target_response	correct	left	left	left	99
492.832	0.2	posner	invalid_cue	correct	left	n/a	n/a	100
493.032	0.478	posner	target_response	correct	left	right	right	100
496.2	0.2	posner	invalid_cue	correct	left	n/a	n/a	101
496.4	0.979	posner	target_response	correct	left	right	right	101
500.368	0.2	posner	invalid_cue	correct	right	n/a	n/a	102
500.568	0.374	posner	target_response	correct	right	left	left	102
503.536	0.2	posner	invalid_cue	correct	right	n/a	n/a	103
503.736	0.4	posner	target_response	correct	right	left	left	103
513.607	0.2	posner	valid_cue	correct	left	n/a	n/a	104
513.807	0.246	posner	target_response	correct	left	left	left	104
516.975	0.2	posner	invalid_cue	correct	right	n/a	n/a	105
517.175	0.425	posner	target_response	correct	right	left	left	105
520.142	0.2	posner	invalid_cue	correct	left	n/a	n/a	106
520.343	0.417	posner	target_response	correct	left	right	right	106
524.811	0.2	posner	invalid_cue	correct	left	n/a	n/a	107
525.011	0.41	posner	target_response	correct	left	right	right	107
533.381	0.2	posner	invalid_cue	correct	left	n/a	n/a	108
533.581	0.794	posner	target_response	correct	left	right	right	108
539.45	0.2	posner	invalid_cue	correct	right	n/a	n/a	109
539.65	1.085	posner	target_response	correct	right	left	left	109
542.517	0.2	posner	valid_cue	correct	left	n/a	n/a	110
542.718	0.539	posner	target_response	correct	left	left	left	110
549.987	0.2	posner	valid_cue	correct	left	n/a	n/a	111
550.187	0.279	posner	target_response	correct	left	left	left	111
554.355	0.2	posner	valid_cue	correct	right	n/a	n/a	112
554.555	0.44	posner	target_response	correct	right	right	right	112
558.223	0.2	posner	invalid_cue	correct	right	n/a	n/a	113
558.423	0.389	posner	target_response	correct	right	left	left	113
561.891	0.2	posner	invalid_cue	correct	right	n/a	n/a	114
562.091	0.638	posner	target_response	correct	right	left	left	114
568.561	0.2	posner	invalid_cue	correct	right	n/a	n/a	115
568.761	0.581	posner	target_response	correct	right	left	left	115
572.329	0.2	posner	valid_cue	correct	right	n/a	n/a	116
572.529	0.763	posner	target_response	correct	right	right	right	116
575.696	0.2	posner	invalid_cue	correct	left	n/a	n/a	117
575.897	0.589	posner	target_response	correct	left	right	right	117
580.865	0.2	posner	valid_cue	correct	left	n/a	n/a	118
581.065	0.567	posner	target_response	correct	left	left	left	118
590.635	0.2	posner	valid_cue	correct	left	n/a	n/a	119
590.835	0.943	posner	target_response	correct	left	left	left	119
600.006	0.2	posner	valid_cue	correct	left	n/a	n/a	120
600.206	0.465	posner	target_response	correct	left	left	left	120
