onset	duration	run_type	trial_type	trial_index	cue	stimulusintensity	rating_value	rating_glmslabel	rating_value_fillna	rating_glmslabel_fillna	rating_mouseonset	rating_mousedur	stim_file_TODO	pain_onset_ttl1	pain_onset_ttl2	pain_onset_ttl3	pain_onset_ttl4	pain_stimulus_delivery_success	cognitive_correct_response	cognitive_participant_response	cognitive_response_accuracy
3.38	1.0	pain	cue	1	low_cue	n/a	n/a	n/a	n/a	n/a	n/a	n/a	task-social/cue/runtype-pain/scl/l027.png	n/a	n/a	n/a	n/a	n/a	n/a	n/a	n/a
6.1	2.91	pain	expectrating	1	low_cue	n/a	13.98	Moderate	13.98	Moderate	0.72	2.19	task-social/cue/runtype-pain/scl/l027.png	n/a	n/a	n/a	n/a	n/a	n/a	n/a	n/a
16.59	12.82	pain	stimulus	1	low_cue	high_stim	n/a	n/a	n/a	n/a	n/a	n/a	n/a	16.59	20.6	25.6	29.41	success	n/a	n/a	n/a
32.6	2.93	pain	outcomerating	1	low_cue	high_stim	50.19	Strong	50.19	Strong	0.72	2.19	task-social/outcomerating/task-pain_scale.png	n/a	n/a	n/a	n/a	success	n/a	n/a	n/a
41.6	0.98	pain	cue	2	high_cue	n/a	n/a	n/a	n/a	n/a	n/a	n/a	task-social/cue/runtype-pain/sch/h036.png	n/a	n/a	n/a	n/a	n/a	n/a	n/a	n/a
44.7	2.42	pain	expectrating	2	high_cue	n/a	54.14	Strong	54.14	Strong	0.45	1.97	task-social/cue/runtype-pain/sch/h036.png	n/a	n/a	n/a	n/a	n/a	n/a	n/a	n/a
53.22	12.36	pain	stimulus	2	high_cue	med_stim	n/a	n/a	n/a	n/a	n/a	n/a	n/a	53.22	56.98	61.98	65.59	success	n/a	n/a	n/a
69.29	1.87	pain	outcomerating	2	high_cue	med_stim	13.7	Moderate	13.7	Moderate	0.45	1.97	task-social/outcomerating/task-pain_scale.png	n/a	n/a	n/a	n/a	success	n/a	n/a	n/a
78.4	1.0	pain	cue	3	low_cue	n/a	n/a	n/a	n/a	n/a	n/a	n/a	task-social/cue/runtype-pain/scl/l032.png	n/a	n/a	n/a	n/a	n/a	n/a	n/a	n/a
81.5	1.85	pain	expectrating	3	low_cue	n/a	6.95	Weak	6.95	Weak	0.35	1.5	task-social/cue/runtype-pain/scl/l032.png	n/a	n/a	n/a	n/a	n/a	n/a	n/a	n/a
86.08	11.900000000000006	pain	stimulus	3	low_cue	low_stim	n/a	n/a	n/a	n/a	n/a	n/a	n/a	86.08	89.58	94.58	97.98	success	n/a	n/a	n/a
97.79	3.12	pain	outcomerating	3	low_cue	low_stim	6.9	Weak	6.9	Weak	0.35	1.5	task-social/outcomerating/task-pain_scale.png	n/a	n/a	n/a	n/a	success	n/a	n/a	n/a
105.89	1.0	pain	cue	4	low_cue	n/a	n/a	n/a	n/a	n/a	n/a	n/a	task-social/cue/runtype-pain/scl/l023.png	n/a	n/a	n/a	n/a	n/a	n/a	n/a	n/a
107.39	3.17	pain	expectrating	4	low_cue	n/a	6.67	Weak	6.67	Weak	0.75	2.42	task-social/cue/runtype-pain/scl/l023.png	n/a	n/a	n/a	n/a	n/a	n/a	n/a	n/a
112.22	11.909999999999997	pain	stimulus	4	low_cue	low_stim	n/a	n/a	n/a	n/a	n/a	n/a	n/a	112.22	115.72	120.72	124.12	success	n/a	n/a	n/a
128.0	3.22	pain	outcomerating	4	low_cue	low_stim	6.67	Weak	6.67	Weak	0.75	2.42	task-social/outcomerating/task-pain_scale.png	n/a	n/a	n/a	n/a	success	n/a	n/a	n/a
137.08	1.0	pain	cue	5	high_cue	n/a	n/a	n/a	n/a	n/a	n/a	n/a	task-social/cue/runtype-pain/sch/h027.png	n/a	n/a	n/a	n/a	n/a	n/a	n/a	n/a
140.2	2.54	pain	expectrating	5	high_cue	n/a	47.93	Strong	47.93	Strong	0.67	1.87	task-social/cue/runtype-pain/sch/h027.png	n/a	n/a	n/a	n/a	n/a	n/a	n/a	n/a
147.96	11.909999999999997	pain	stimulus	5	high_cue	low_stim	n/a	n/a	n/a	n/a	n/a	n/a	n/a	147.96	151.46	156.46	159.86	success	n/a	n/a	n/a
159.89	2.32	pain	outcomerating	5	high_cue	low_stim	19.89	Moderate	19.89	Moderate	0.67	1.87	task-social/outcomerating/task-pain_scale.png	n/a	n/a	n/a	n/a	success	n/a	n/a	n/a
169.0	1.0	pain	cue	6	high_cue	n/a	n/a	n/a	n/a	n/a	n/a	n/a	task-social/cue/runtype-pain/sch/h042.png	n/a	n/a	n/a	n/a	n/a	n/a	n/a	n/a
171.0	2.52	pain	expectrating	6	high_cue	n/a	87.41	Very Strong	87.41	Very Strong	0.53	1.98	task-social/cue/runtype-pain/sch/h042.png	n/a	n/a	n/a	n/a	n/a	n/a	n/a	n/a
175.53	12.359999999999985	pain	stimulus	6	high_cue	med_stim	n/a	n/a	n/a	n/a	n/a	n/a	n/a	175.53	179.29	184.29	187.9	success	n/a	n/a	n/a
187.29	1.61	pain	outcomerating	6	high_cue	med_stim	55.1	Strong	55.1	Strong	0.53	1.98	task-social/outcomerating/task-pain_scale.png	n/a	n/a	n/a	n/a	success	n/a	n/a	n/a
194.39	1.0	pain	cue	7	high_cue	n/a	n/a	n/a	n/a	n/a	n/a	n/a	task-social/cue/runtype-pain/sch/h011.png	n/a	n/a	n/a	n/a	n/a	n/a	n/a	n/a
196.39	3.05	pain	expectrating	7	high_cue	n/a	47.93	Strong	47.93	Strong	0.78	2.27	task-social/cue/runtype-pain/sch/h011.png	n/a	n/a	n/a	n/a	n/a	n/a	n/a	n/a
207.45	11.900000000000006	pain	stimulus	7	high_cue	low_stim	n/a	n/a	n/a	n/a	n/a	n/a	n/a	207.45	210.95	215.95	219.35	success	n/a	n/a	n/a
222.3	1.82	pain	outcomerating	7	high_cue	low_stim	25.74	Moderate	25.74	Moderate	0.78	2.27	task-social/outcomerating/task-pain_scale.png	n/a	n/a	n/a	n/a	success	n/a	n/a	n/a
234.79	1.0	pain	cue	8	low_cue	n/a	n/a	n/a	n/a	n/a	n/a	n/a	task-social/cue/runtype-pain/scl/l039.png	n/a	n/a	n/a	n/a	n/a	n/a	n/a	n/a
237.29	2.6	pain	expectrating	8	low_cue	n/a	26.67	Moderate	26.67	Moderate	0.38	2.22	task-social/cue/runtype-pain/scl/l039.png	n/a	n/a	n/a	n/a	n/a	n/a	n/a	n/a
249.35	12.830000000000013	pain	stimulus	8	low_cue	high_stim	n/a	n/a	n/a	n/a	n/a	n/a	n/a	249.35	253.36	258.36	262.17	success	n/a	n/a	n/a
262.7	1.95	pain	outcomerating	8	low_cue	high_stim	83.79	Very Strong	83.79	Very Strong	0.38	2.22	task-social/outcomerating/task-pain_scale.png	n/a	n/a	n/a	n/a	success	n/a	n/a	n/a
271.79	1.0	pain	cue	9	low_cue	n/a	n/a	n/a	n/a	n/a	n/a	n/a	task-social/cue/runtype-pain/scl/l053.png	n/a	n/a	n/a	n/a	n/a	n/a	n/a	n/a
274.89	2.86	pain	expectrating	9	low_cue	n/a	11.81	Moderate	11.81	Moderate	0.48	2.37	task-social/cue/runtype-pain/scl/l053.png	n/a	n/a	n/a	n/a	n/a	n/a	n/a	n/a
284.65	12.360000000000014	pain	stimulus	9	low_cue	med_stim	n/a	n/a	n/a	n/a	n/a	n/a	n/a	284.65	288.41	293.41	297.02	success	n/a	n/a	n/a
294.39	2.15	pain	outcomerating	9	low_cue	med_stim	46.63	Strong	46.63	Strong	0.48	2.37	task-social/outcomerating/task-pain_scale.png	n/a	n/a	n/a	n/a	success	n/a	n/a	n/a
299.9	1.0	pain	cue	10	low_cue	n/a	n/a	n/a	n/a	n/a	n/a	n/a	task-social/cue/runtype-pain/scl/l004.png	n/a	n/a	n/a	n/a	n/a	n/a	n/a	n/a
301.8	2.43	pain	expectrating	10	low_cue	n/a	6.95	Weak	6.95	Weak	0.5	1.93	task-social/cue/runtype-pain/scl/l004.png	n/a	n/a	n/a	n/a	n/a	n/a	n/a	n/a
313.55	12.360000000000014	pain	stimulus	10	low_cue	med_stim	n/a	n/a	n/a	n/a	n/a	n/a	n/a	313.55	317.31	322.31	325.92	success	n/a	n/a	n/a
326.09	3.09	pain	outcomerating	10	low_cue	med_stim	15.32	Moderate	15.32	Moderate	0.5	1.93	task-social/outcomerating/task-pain_scale.png	n/a	n/a	n/a	n/a	success	n/a	n/a	n/a
337.89	1.0	pain	cue	11	high_cue	n/a	n/a	n/a	n/a	n/a	n/a	n/a	task-social/cue/runtype-pain/sch/h026.png	n/a	n/a	n/a	n/a	n/a	n/a	n/a	n/a
340.59	2.37	pain	expectrating	11	high_cue	n/a	52.35	Strong	52.35	Strong	0.5	1.87	task-social/cue/runtype-pain/sch/h026.png	n/a	n/a	n/a	n/a	n/a	n/a	n/a	n/a
346.05	12.819999999999993	pain	stimulus	11	high_cue	high_stim	n/a	n/a	n/a	n/a	n/a	n/a	n/a	346.05	350.06	355.06	358.87	success	n/a	n/a	n/a
355.5	3.4	pain	outcomerating	11	high_cue	high_stim	58.76	Strong	58.76	Strong	0.5	1.87	task-social/outcomerating/task-pain_scale.png	n/a	n/a	n/a	n/a	success	n/a	n/a	n/a
362.59	1.0	pain	cue	12	high_cue	n/a	n/a	n/a	n/a	n/a	n/a	n/a	task-social/cue/runtype-pain/sch/h028.png	n/a	n/a	n/a	n/a	n/a	n/a	n/a	n/a
364.8	2.09	pain	expectrating	12	high_cue	n/a	66.53	Very Strong	66.53	Very Strong	0.33	1.76	task-social/cue/runtype-pain/sch/h028.png	n/a	n/a	n/a	n/a	n/a	n/a	n/a	n/a
376.55	12.819999999999993	pain	stimulus	12	high_cue	high_stim	n/a	n/a	n/a	n/a	n/a	n/a	n/a	376.55	380.56	385.56	389.37	success	n/a	n/a	n/a
394.6	n/a	pain	outcomerating	12	high_cue	high_stim	n/a	n/a	63.33	Strong	0.33	1.76	task-social/outcomerating/task-pain_scale.png	n/a	n/a	n/a	n/a	success	n/a	n/a	n/a
