onset	duration	run_type	trial_type	trial_index	cue	stimulusintensity	rating_value	rating_glmslabel	rating_value_fillna	rating_glmslabel_fillna	rating_mouseonset	rating_mousedur	stim_file	pain_onset_ttl1	pain_onset_ttl2	pain_onset_ttl3	pain_onset_ttl4	pain_stimulus_delivery_success	cognitive_correct_response	cognitive_participant_response	cognitive_response_accuracy
14.18	0.99	cognitive	cue	1	low_cue	n/a	n/a	n/a	n/a	n/a	n/a	n/a	n/a	n/a	n/a	n/a	n/a	n/a	n/a	n/a	n/a
16.0	2.22	cognitive	expectrating	1	low_cue	n/a	23.66	Moderate	23.66	Moderate	0.58	1.63	task-social/cue/runtype-cognitive/scl/l037.png	n/a	n/a	n/a	n/a	n/a	n/a	n/a	n/a
26.7	5.0	cognitive	stimulus	1	low_cue	low_stim	n/a	n/a	n/a	n/a	n/a	n/a	task-social/stim/runtype-cognitive/7_50.jpg	n/a	n/a	n/a	n/a	n/a	same	same	True
37.69	2.42	cognitive	outcomerating	1	low_cue	low_stim	15.17	Moderate	15.17	Moderate	0.68	1.74	task-social/outcomerating/task-cognitive_scale.png	n/a	n/a	n/a	n/a	n/a	n/a	n/a	n/a
43.78	1.0	cognitive	cue	2	low_cue	n/a	n/a	n/a	n/a	n/a	n/a	n/a	n/a	n/a	n/a	n/a	n/a	n/a	n/a	n/a	n/a
46.79	1.98	cognitive	expectrating	2	low_cue	n/a	32.36	Strong	32.36	Strong	0.48	1.5	task-social/cue/runtype-cognitive/scl/l006.png	n/a	n/a	n/a	n/a	n/a	n/a	n/a	n/a
57.48	5.0	cognitive	stimulus	2	low_cue	med_stim	n/a	n/a	n/a	n/a	n/a	n/a	task-social/stim/runtype-cognitive/35_100.jpg	n/a	n/a	n/a	n/a	n/a	same	diff	False
69.29	2.42	cognitive	outcomerating	2	low_cue	med_stim	7.61	Weak	7.61	Weak	0.48	1.94	task-social/outcomerating/task-cognitive_scale.png	n/a	n/a	n/a	n/a	n/a	n/a	n/a	n/a
77.79	0.98	cognitive	cue	3	high_cue	n/a	n/a	n/a	n/a	n/a	n/a	n/a	n/a	n/a	n/a	n/a	n/a	n/a	n/a	n/a	n/a
80.79	2.3	cognitive	expectrating	3	high_cue	n/a	28.96	Moderate	28.96	Moderate	0.47	1.84	task-social/cue/runtype-cognitive/sch/h017.png	n/a	n/a	n/a	n/a	n/a	n/a	n/a	n/a
87.59	5.0	cognitive	stimulus	3	high_cue	med_stim	n/a	n/a	n/a	n/a	n/a	n/a	task-social/stim/runtype-cognitive/1_100_R.jpg	n/a	n/a	n/a	n/a	n/a	diff	n/a	False
97.38	2.57	cognitive	outcomerating	3	high_cue	med_stim	39.72	Strong	39.72	Strong	0.47	2.1	task-social/outcomerating/task-cognitive_scale.png	n/a	n/a	n/a	n/a	n/a	n/a	n/a	n/a
110.48	0.99	cognitive	cue	4	low_cue	n/a	n/a	n/a	n/a	n/a	n/a	n/a	n/a	n/a	n/a	n/a	n/a	n/a	n/a	n/a	n/a
112.38	2.26	cognitive	expectrating	4	low_cue	n/a	25.23	Moderate	25.23	Moderate	0.7	1.56	task-social/cue/runtype-cognitive/scl/l023.png	n/a	n/a	n/a	n/a	n/a	n/a	n/a	n/a
125.89	5.0	cognitive	stimulus	4	low_cue	high_stim	n/a	n/a	n/a	n/a	n/a	n/a	task-social/stim/runtype-cognitive/1_150.jpg	n/a	n/a	n/a	n/a	n/a	same	same	True
136.09	2.47	cognitive	outcomerating	4	low_cue	high_stim	26.78	Moderate	26.78	Moderate	0.65	1.82	task-social/outcomerating/task-cognitive_scale.png	n/a	n/a	n/a	n/a	n/a	n/a	n/a	n/a
150.68	0.99	cognitive	cue	5	high_cue	n/a	n/a	n/a	n/a	n/a	n/a	n/a	n/a	n/a	n/a	n/a	n/a	n/a	n/a	n/a	n/a
152.38	1.71	cognitive	expectrating	5	high_cue	n/a	29.32	Strong	29.32	Strong	0.45	1.26	task-social/cue/runtype-cognitive/sch/h016.png	n/a	n/a	n/a	n/a	n/a	n/a	n/a	n/a
160.89	5.0	cognitive	stimulus	5	high_cue	med_stim	n/a	n/a	n/a	n/a	n/a	n/a	task-social/stim/runtype-cognitive/24_100_R.jpg	n/a	n/a	n/a	n/a	n/a	diff	same	False
173.79	1.98	cognitive	outcomerating	5	high_cue	med_stim	23.89	Moderate	23.89	Moderate	0.52	1.47	task-social/outcomerating/task-cognitive_scale.png	n/a	n/a	n/a	n/a	n/a	n/a	n/a	n/a
178.68	0.99	cognitive	cue	6	low_cue	n/a	n/a	n/a	n/a	n/a	n/a	n/a	n/a	n/a	n/a	n/a	n/a	n/a	n/a	n/a	n/a
181.79	1.97	cognitive	expectrating	6	low_cue	n/a	26.25	Moderate	26.25	Moderate	0.5	1.47	task-social/cue/runtype-cognitive/scl/l048.png	n/a	n/a	n/a	n/a	n/a	n/a	n/a	n/a
189.98	5.0	cognitive	stimulus	6	low_cue	high_stim	n/a	n/a	n/a	n/a	n/a	n/a	task-social/stim/runtype-cognitive/26_150_R.jpg	n/a	n/a	n/a	n/a	n/a	diff	same	False
200.08	2.82	cognitive	outcomerating	6	low_cue	high_stim	24.81	Moderate	24.81	Moderate	0.48	2.34	task-social/outcomerating/task-cognitive_scale.png	n/a	n/a	n/a	n/a	n/a	n/a	n/a	n/a
205.39	0.98	cognitive	cue	7	low_cue	n/a	n/a	n/a	n/a	n/a	n/a	n/a	n/a	n/a	n/a	n/a	n/a	n/a	n/a	n/a	n/a
208.39	1.77	cognitive	expectrating	7	low_cue	n/a	19.89	Moderate	19.89	Moderate	0.6	1.17	task-social/cue/runtype-cognitive/scl/l008.png	n/a	n/a	n/a	n/a	n/a	n/a	n/a	n/a
219.69	5.0	cognitive	stimulus	7	low_cue	low_stim	n/a	n/a	n/a	n/a	n/a	n/a	task-social/stim/runtype-cognitive/26_50_R.jpg	n/a	n/a	n/a	n/a	n/a	diff	same	False
232.58	2.37	cognitive	outcomerating	7	low_cue	low_stim	19.75	Moderate	19.75	Moderate	0.67	1.7	task-social/outcomerating/task-cognitive_scale.png	n/a	n/a	n/a	n/a	n/a	n/a	n/a	n/a
237.48	0.99	cognitive	cue	8	high_cue	n/a	n/a	n/a	n/a	n/a	n/a	n/a	n/a	n/a	n/a	n/a	n/a	n/a	n/a	n/a	n/a
239.18	1.83	cognitive	expectrating	8	high_cue	n/a	16.14	Moderate	16.14	Moderate	0.5	1.33	task-social/cue/runtype-cognitive/sch/h055.png	n/a	n/a	n/a	n/a	n/a	n/a	n/a	n/a
245.98	5.0	cognitive	stimulus	8	high_cue	high_stim	n/a	n/a	n/a	n/a	n/a	n/a	task-social/stim/runtype-cognitive/22_150.jpg	n/a	n/a	n/a	n/a	n/a	same	same	True
257.89	2.07	cognitive	outcomerating	8	high_cue	high_stim	8.33	Weak	8.33	Weak	0.53	1.54	task-social/outcomerating/task-cognitive_scale.png	n/a	n/a	n/a	n/a	n/a	n/a	n/a	n/a
265.78	1.0	cognitive	cue	9	high_cue	n/a	n/a	n/a	n/a	n/a	n/a	n/a	n/a	n/a	n/a	n/a	n/a	n/a	n/a	n/a	n/a
268.79	1.97	cognitive	expectrating	9	high_cue	n/a	18.73	Moderate	18.73	Moderate	0.4	1.57	task-social/cue/runtype-cognitive/sch/h044.png	n/a	n/a	n/a	n/a	n/a	n/a	n/a	n/a
276.98	5.0	cognitive	stimulus	9	high_cue	high_stim	n/a	n/a	n/a	n/a	n/a	n/a	task-social/stim/runtype-cognitive/24_150_R.jpg	n/a	n/a	n/a	n/a	n/a	diff	same	False
287.98	2.11	cognitive	outcomerating	9	high_cue	high_stim	10.22	Moderate	10.22	Moderate	0.7	1.41	task-social/outcomerating/task-cognitive_scale.png	n/a	n/a	n/a	n/a	n/a	n/a	n/a	n/a
296.69	0.98	cognitive	cue	10	high_cue	n/a	n/a	n/a	n/a	n/a	n/a	n/a	n/a	n/a	n/a	n/a	n/a	n/a	n/a	n/a	n/a
299.49	1.79	cognitive	expectrating	10	high_cue	n/a	9.91	Weak	9.91	Weak	0.5	1.29	task-social/cue/runtype-cognitive/sch/h021.png	n/a	n/a	n/a	n/a	n/a	n/a	n/a	n/a
316.08	5.0	cognitive	stimulus	10	high_cue	low_stim	n/a	n/a	n/a	n/a	n/a	n/a	task-social/stim/runtype-cognitive/20_50.jpg	n/a	n/a	n/a	n/a	n/a	same	same	True
326.98	2.83	cognitive	outcomerating	10	high_cue	low_stim	4.86	Weak	4.86	Weak	0.58	2.25	task-social/outcomerating/task-cognitive_scale.png	n/a	n/a	n/a	n/a	n/a	n/a	n/a	n/a
332.68	0.99	cognitive	cue	11	high_cue	n/a	n/a	n/a	n/a	n/a	n/a	n/a	n/a	n/a	n/a	n/a	n/a	n/a	n/a	n/a	n/a
335.58	1.86	cognitive	expectrating	11	high_cue	n/a	7.64	Weak	7.64	Weak	0.55	1.31	task-social/cue/runtype-cognitive/sch/h028.png	n/a	n/a	n/a	n/a	n/a	n/a	n/a	n/a
346.49	5.0	cognitive	stimulus	11	high_cue	low_stim	n/a	n/a	n/a	n/a	n/a	n/a	task-social/stim/runtype-cognitive/1_50_R.jpg	n/a	n/a	n/a	n/a	n/a	diff	same	False
358.49	2.2	cognitive	outcomerating	11	high_cue	low_stim	13.03	Moderate	13.03	Moderate	0.63	1.57	task-social/outcomerating/task-cognitive_scale.png	n/a	n/a	n/a	n/a	n/a	n/a	n/a	n/a
365.28	0.99	cognitive	cue	12	low_cue	n/a	n/a	n/a	n/a	n/a	n/a	n/a	n/a	n/a	n/a	n/a	n/a	n/a	n/a	n/a	n/a
367.18	1.85	cognitive	expectrating	12	low_cue	n/a	8.69	Weak	8.69	Weak	0.62	1.23	task-social/cue/runtype-cognitive/scl/l052.png	n/a	n/a	n/a	n/a	n/a	n/a	n/a	n/a
380.78	5.0	cognitive	stimulus	12	low_cue	med_stim	n/a	n/a	n/a	n/a	n/a	n/a	task-social/stim/runtype-cognitive/20_100_R.jpg	n/a	n/a	n/a	n/a	n/a	diff	same	False
394.49	1.9	cognitive	outcomerating	12	low_cue	med_stim	11.59	Moderate	11.59	Moderate	0.5	1.4	task-social/outcomerating/task-cognitive_scale.png	n/a	n/a	n/a	n/a	n/a	n/a	n/a	n/a
