onset	duration	trial_type	response_x	response_y	situation	context	modality	stim_file
7.834	15.333	narrative_presentation	n/a	n/a	Deliverance	prison	Text	task-narratives/Narrative8Situation1.mp3
23.167	3.9	rating_feeling	944	625	Deliverance	prison	Text	task-narratives/Narrative8Situation1.mp3
24.517	2.55	feeling_mouse_trajectory	944	625	Deliverance	prison	Text	task-narratives/Narrative8Situation1.mp3
27.237	3.2	rating_expectation	775	605	Deliverance	prison	Text	task-narratives/Narrative8Situation1.mp3
27.637	2.8	expectation_mouse_trajectory	775	605	Deliverance	prison	Text	task-narratives/Narrative8Situation1.mp3
34.442	8.78	narrative_presentation	n/a	n/a	Abduction	town	Text	task-narratives/Narrative8Situation2.mp3
43.222	3.983	rating_feeling	944	625	Abduction	town	Text	task-narratives/Narrative8Situation2.mp3
44.022	3.183	feeling_mouse_trajectory	944	625	Abduction	town	Text	task-narratives/Narrative8Situation2.mp3
47.246	3.167	rating_expectation	775	605	Abduction	town	Text	task-narratives/Narrative8Situation2.mp3
48.263	2.15	expectation_mouse_trajectory	775	605	Abduction	town	Text	task-narratives/Narrative8Situation2.mp3
55.349	22.157	narrative_presentation	n/a	n/a	Pursuit	prison	Text	task-narratives/Narrative8Situation3.mp3
77.506	3.267	rating_feeling	944	625	Pursuit	prison	Text	task-narratives/Narrative8Situation3.mp3
77.889	2.883	feeling_mouse_trajectory	944	625	Pursuit	prison	Text	task-narratives/Narrative8Situation3.mp3
81.547	3.767	rating_expectation	775	605	Pursuit	prison	Text	task-narratives/Narrative8Situation3.mp3
82.113	3.2	expectation_mouse_trajectory	775	605	Pursuit	prison	Text	task-narratives/Narrative8Situation3.mp3
88.649	12.607	narrative_presentation	n/a	n/a	Obtaining	city	Text	task-narratives/Narrative8Situation4.mp3
101.256	2.933	rating_feeling	944	625	Obtaining	city	Text	task-narratives/Narrative8Situation4.mp3
102.489	1.7	feeling_mouse_trajectory	944	625	Obtaining	city	Text	task-narratives/Narrative8Situation4.mp3
105.282	3.8	rating_expectation	775	605	Obtaining	city	Text	task-narratives/Narrative8Situation4.mp3
106.182	2.9	expectation_mouse_trajectory	775	605	Obtaining	city	Text	task-narratives/Narrative8Situation4.mp3
111.356	6.63	narrative_presentation	n/a	n/a	Recovery of a lost one	park	Text	task-narratives/Narrative8Situation5.mp3
117.987	3.4	rating_feeling	944	625	Recovery of a lost one	park	Text	task-narratives/Narrative8Situation5.mp3
119.237	2.15	feeling_mouse_trajectory	944	625	Recovery of a lost one	park	Text	task-narratives/Narrative8Situation5.mp3
122.024	1.883	rating_expectation	775	605	Recovery of a lost one	park	Text	task-narratives/Narrative8Situation5.mp3
122.074	1.833	expectation_mouse_trajectory	775	605	Recovery of a lost one	park	Text	task-narratives/Narrative8Situation5.mp3
128.126	5.978	narrative_presentation	n/a	n/a	Rivalry of kin	city	Text	task-narratives/Narrative8Situation6.mp3
134.104	2.4	rating_feeling	944	625	Rivalry of kin	city	Text	task-narratives/Narrative8Situation6.mp3
135.07	1.433	feeling_mouse_trajectory	944	625	Rivalry of kin	city	Text	task-narratives/Narrative8Situation6.mp3
138.13	2.333	rating_expectation	775	605	Rivalry of kin	city	Text	task-narratives/Narrative8Situation6.mp3
138.546	1.917	expectation_mouse_trajectory	775	605	Rivalry of kin	city	Text	task-narratives/Narrative8Situation6.mp3
145.199	10.778	narrative_presentation	n/a	n/a	Involuntary crimes of love	hospital	Text	task-narratives/Narrative8Situation7.mp3
155.977	3.133	rating_feeling	944	625	Involuntary crimes of love	hospital	Text	task-narratives/Narrative8Situation7.mp3
156.877	2.233	feeling_mouse_trajectory	944	625	Involuntary crimes of love	hospital	Text	task-narratives/Narrative8Situation7.mp3
160.002	1.817	rating_expectation	775	605	Involuntary crimes of love	hospital	Text	task-narratives/Narrative8Situation7.mp3
160.452	1.367	expectation_mouse_trajectory	775	605	Involuntary crimes of love	hospital	Text	task-narratives/Narrative8Situation7.mp3
167.057	11.28	narrative_presentation	n/a	n/a	Rivalry of superior versus inferior	beach	Text	task-narratives/Narrative8Situation8.mp3
178.337	3.233	rating_feeling	944	625	Rivalry of superior versus inferior	beach	Text	task-narratives/Narrative8Situation8.mp3
179.387	2.183	feeling_mouse_trajectory	944	625	Rivalry of superior versus inferior	beach	Text	task-narratives/Narrative8Situation8.mp3
182.362	3.1	rating_expectation	775	605	Rivalry of superior versus inferior	beach	Text	task-narratives/Narrative8Situation8.mp3
182.496	2.967	expectation_mouse_trajectory	775	605	Rivalry of superior versus inferior	beach	Text	task-narratives/Narrative8Situation8.mp3
189.416	10.125	narrative_presentation	n/a	n/a	Ambition	hospital	Text	task-narratives/Narrative8Situation9.mp3
199.541	2.55	rating_feeling	944	625	Ambition	hospital	Text	task-narratives/Narrative8Situation9.mp3
200.157	1.933	feeling_mouse_trajectory	944	625	Ambition	hospital	Text	task-narratives/Narrative8Situation9.mp3
203.568	2.783	rating_expectation	775	605	Ambition	hospital	Text	task-narratives/Narrative8Situation9.mp3
203.985	2.367	expectation_mouse_trajectory	775	605	Ambition	hospital	Text	task-narratives/Narrative8Situation9.mp3
209.623	54.281	narrative_presentation	n/a	n/a	Deliverance	prison	Text	task-narratives/Narrative7Situation1.mp3
263.904	3.05	rating_feeling	944	625	Deliverance	prison	Text	task-narratives/Narrative7Situation1.mp3
265.537	1.417	feeling_mouse_trajectory	944	625	Deliverance	prison	Text	task-narratives/Narrative7Situation1.mp3
267.929	3.633	rating_expectation	775	605	Deliverance	prison	Text	task-narratives/Narrative7Situation1.mp3
268.629	2.933	expectation_mouse_trajectory	775	605	Deliverance	prison	Text	task-narratives/Narrative7Situation1.mp3
274.982	5.941	narrative_presentation	n/a	n/a	Abduction	town	Text	task-narratives/Narrative7Situation2.mp3
280.923	3.017	rating_feeling	944	625	Abduction	town	Text	task-narratives/Narrative7Situation2.mp3
281.606	2.333	feeling_mouse_trajectory	944	625	Abduction	town	Text	task-narratives/Narrative7Situation2.mp3
284.949	2.7	rating_expectation	775	605	Abduction	town	Text	task-narratives/Narrative7Situation2.mp3
285.282	2.367	expectation_mouse_trajectory	775	605	Abduction	town	Text	task-narratives/Narrative7Situation2.mp3
297.022	7.444	narrative_presentation	n/a	n/a	Pursuit	prison	Text	task-narratives/Narrative7Situation3.mp3
304.466	2.267	rating_feeling	944	625	Pursuit	prison	Text	task-narratives/Narrative7Situation3.mp3
305.999	0.733	feeling_mouse_trajectory	944	625	Pursuit	prison	Text	task-narratives/Narrative7Situation3.mp3
308.496	3.9	rating_expectation	775	605	Pursuit	prison	Text	task-narratives/Narrative7Situation3.mp3
311.562	0.833	expectation_mouse_trajectory	775	605	Pursuit	prison	Text	task-narratives/Narrative7Situation3.mp3
315.564	11.475	narrative_presentation	n/a	n/a	Obtaining	city	Text	task-narratives/Narrative7Situation4.mp3
327.04	3.717	rating_feeling	944	625	Obtaining	city	Text	task-narratives/Narrative7Situation4.mp3
327.523	3.233	feeling_mouse_trajectory	944	625	Obtaining	city	Text	task-narratives/Narrative7Situation4.mp3
331.066	3.933	rating_expectation	775	605	Obtaining	city	Text	task-narratives/Narrative7Situation4.mp3
332.766	2.233	expectation_mouse_trajectory	775	605	Obtaining	city	Text	task-narratives/Narrative7Situation4.mp3
340.122	7.981	narrative_presentation	n/a	n/a	Recovery of a lost one	park	Text	task-narratives/Narrative7Situation5.mp3
348.102	3.3	rating_feeling	944	625	Recovery of a lost one	park	Text	task-narratives/Narrative7Situation5.mp3
349.486	1.917	feeling_mouse_trajectory	944	625	Recovery of a lost one	park	Text	task-narratives/Narrative7Situation5.mp3
352.129	2.567	rating_expectation	775	605	Recovery of a lost one	park	Text	task-narratives/Narrative7Situation5.mp3
352.596	2.1	expectation_mouse_trajectory	775	605	Recovery of a lost one	park	Text	task-narratives/Narrative7Situation5.mp3
359.199	8.777	narrative_presentation	n/a	n/a	Rivalry of kin	city	Text	task-narratives/Narrative7Situation6.mp3
367.975	3.983	rating_feeling	944	625	Rivalry of kin	city	Text	task-narratives/Narrative7Situation6.mp3
371.259	0.7	feeling_mouse_trajectory	944	625	Rivalry of kin	city	Text	task-narratives/Narrative7Situation6.mp3
371.997	2.1	rating_expectation	775	605	Rivalry of kin	city	Text	task-narratives/Narrative7Situation6.mp3
372.031	2.067	expectation_mouse_trajectory	775	605	Rivalry of kin	city	Text	task-narratives/Narrative7Situation6.mp3
381.054	16.652	narrative_presentation	n/a	n/a	Involuntary crimes of love	hospital	Text	task-narratives/Narrative7Situation7.mp3
397.706	1.55	rating_feeling	944	625	Involuntary crimes of love	hospital	Text	task-narratives/Narrative7Situation7.mp3
398.139	1.117	feeling_mouse_trajectory	944	625	Involuntary crimes of love	hospital	Text	task-narratives/Narrative7Situation7.mp3
401.729	1.1	rating_expectation	775	605	Involuntary crimes of love	hospital	Text	task-narratives/Narrative7Situation7.mp3
401.963	0.867	expectation_mouse_trajectory	775	605	Involuntary crimes of love	hospital	Text	task-narratives/Narrative7Situation7.mp3
407.781	8.778	narrative_presentation	n/a	n/a	Rivalry of superior versus inferior	beach	Text	task-narratives/Narrative7Situation8.mp3
416.559	3.983	rating_feeling	944	625	Rivalry of superior versus inferior	beach	Text	task-narratives/Narrative7Situation8.mp3
417.376	3.167	feeling_mouse_trajectory	944	625	Rivalry of superior versus inferior	beach	Text	task-narratives/Narrative7Situation8.mp3
420.583	3.9	rating_expectation	775	605	Rivalry of superior versus inferior	beach	Text	task-narratives/Narrative7Situation8.mp3
420.633	3.85	expectation_mouse_trajectory	775	605	Rivalry of superior versus inferior	beach	Text	task-narratives/Narrative7Situation8.mp3
426.637	7.989	narrative_presentation	n/a	n/a	Ambition	hospital	Text	task-narratives/Narrative7Situation9.mp3
434.625	1.417	rating_feeling	944	625	Ambition	hospital	Text	task-narratives/Narrative7Situation9.mp3
434.975	1.067	feeling_mouse_trajectory	944	625	Ambition	hospital	Text	task-narratives/Narrative7Situation9.mp3
438.662	2.683	rating_expectation	775	605	Ambition	hospital	Text	task-narratives/Narrative7Situation9.mp3
439.779	1.567	expectation_mouse_trajectory	775	605	Ambition	hospital	Text	task-narratives/Narrative7Situation9.mp3
