onset	duration	trial_type	response_x	response_y	situation	context	modality	stim_file
4.828	25.987	narrative_presentation	n/a	n/a	Enmity of kin	prison	Text	task-narratives/Narrative6Situation1.mp3
30.815	3.967	rating_feeling	1046	659	Enmity of kin	prison	Text	task-narratives/Narrative6Situation1.mp3
31.298	3.483	feeling_mouse_trajectory	1046	659	Enmity of kin	prison	Text	task-narratives/Narrative6Situation1.mp3
34.871	3.85	rating_expectation	647	530	Enmity of kin	prison	Text	task-narratives/Narrative6Situation1.mp3
34.904	3.817	expectation_mouse_trajectory	647	530	Enmity of kin	prison	Text	task-narratives/Narrative6Situation1.mp3
41.924	27.967	narrative_presentation	n/a	n/a	The enigma	town	Text	task-narratives/Narrative6Situation2.mp3
69.891	2.783	rating_feeling	1046	659	The enigma	town	Text	task-narratives/Narrative6Situation2.mp3
70.358	2.317	feeling_mouse_trajectory	1046	659	The enigma	town	Text	task-narratives/Narrative6Situation2.mp3
73.917	3.683	rating_expectation	647	530	The enigma	town	Text	task-narratives/Narrative6Situation2.mp3
74.417	3.183	expectation_mouse_trajectory	647	530	The enigma	town	Text	task-narratives/Narrative6Situation2.mp3
82.973	11.974	narrative_presentation	n/a	n/a	Discovery of dishonour of loved one	prison	Text	task-narratives/Narrative6Situation3.mp3
94.947	3.983	rating_feeling	1046	659	Discovery of dishonour of loved one	prison	Text	task-narratives/Narrative6Situation3.mp3
97.314	1.617	feeling_mouse_trajectory	1046	659	Discovery of dishonour of loved one	prison	Text	task-narratives/Narrative6Situation3.mp3
98.984	3.4	rating_expectation	647	530	Discovery of dishonour of loved one	prison	Text	task-narratives/Narrative6Situation3.mp3
99.05	3.333	expectation_mouse_trajectory	647	530	Discovery of dishonour of loved one	prison	Text	task-narratives/Narrative6Situation3.mp3
105.064	11.978	narrative_presentation	n/a	n/a	Loss of loved one	swamp	Text	task-narratives/Narrative6Situation4.mp3
117.042	3.967	rating_feeling	1046	659	Loss of loved one	swamp	Text	task-narratives/Narrative6Situation4.mp3
117.376	3.633	feeling_mouse_trajectory	1046	659	Loss of loved one	swamp	Text	task-narratives/Narrative6Situation4.mp3
121.068	3.7	rating_expectation	647	530	Loss of loved one	swamp	Text	task-narratives/Narrative6Situation4.mp3
122.652	2.117	expectation_mouse_trajectory	647	530	Loss of loved one	swamp	Text	task-narratives/Narrative6Situation4.mp3
127.123	7.32	narrative_presentation	n/a	n/a	Necessity of sacrificing loved ones	park	Text	task-narratives/Narrative6Situation5.mp3
134.443	2.517	rating_feeling	1046	659	Necessity of sacrificing loved ones	park	Text	task-narratives/Narrative6Situation5.mp3
135.077	1.883	feeling_mouse_trajectory	1046	659	Necessity of sacrificing loved ones	park	Text	task-narratives/Narrative6Situation5.mp3
138.475	1.967	rating_expectation	647	530	Necessity of sacrificing loved ones	park	Text	task-narratives/Narrative6Situation5.mp3
138.825	1.617	expectation_mouse_trajectory	647	530	Necessity of sacrificing loved ones	park	Text	task-narratives/Narrative6Situation5.mp3
144.529	10.813	narrative_presentation	n/a	n/a	Daring Enterprise	swamp	Text	task-narratives/Narrative6Situation6.mp3
155.342	1.733	rating_feeling	1046	659	Daring Enterprise	swamp	Text	task-narratives/Narrative6Situation6.mp3
155.759	1.317	feeling_mouse_trajectory	1046	659	Daring Enterprise	swamp	Text	task-narratives/Narrative6Situation6.mp3
159.367	1.517	rating_expectation	647	530	Daring Enterprise	swamp	Text	task-narratives/Narrative6Situation6.mp3
159.867	1.017	expectation_mouse_trajectory	647	530	Daring Enterprise	swamp	Text	task-narratives/Narrative6Situation6.mp3
168.422	23.269	narrative_presentation	n/a	n/a	Revolt	beach	Text	task-narratives/Narrative6Situation7.mp3
191.691	2.95	rating_feeling	1046	659	Revolt	beach	Text	task-narratives/Narrative6Situation7.mp3
192.041	2.6	feeling_mouse_trajectory	1046	659	Revolt	beach	Text	task-narratives/Narrative6Situation7.mp3
195.717	0.9	rating_expectation	647	530	Revolt	beach	Text	task-narratives/Narrative6Situation7.mp3
196.05	0.567	expectation_mouse_trajectory	647	530	Revolt	beach	Text	task-narratives/Narrative6Situation7.mp3
204.769	5.293	narrative_presentation	n/a	n/a	Falling prey to misfortune	city	Text	task-narratives/Narrative6Situation8.mp3
210.062	3.633	rating_feeling	1046	659	Falling prey to misfortune	city	Text	task-narratives/Narrative6Situation8.mp3
212.412	1.283	feeling_mouse_trajectory	1046	659	Falling prey to misfortune	city	Text	task-narratives/Narrative6Situation8.mp3
214.086	1.767	rating_expectation	647	530	Falling prey to misfortune	city	Text	task-narratives/Narrative6Situation8.mp3
214.203	1.65	expectation_mouse_trajectory	647	530	Falling prey to misfortune	city	Text	task-narratives/Narrative6Situation8.mp3
222.142	9.308	narrative_presentation	n/a	n/a	Mistaken jealousy	beach	Text	task-narratives/Narrative6Situation9.mp3
231.451	3.983	rating_feeling	1046	659	Mistaken jealousy	beach	Text	task-narratives/Narrative6Situation9.mp3
231.684	3.75	feeling_mouse_trajectory	1046	659	Mistaken jealousy	beach	Text	task-narratives/Narrative6Situation9.mp3
235.484	2.3	rating_expectation	647	530	Mistaken jealousy	beach	Text	task-narratives/Narrative6Situation9.mp3
235.517	2.267	expectation_mouse_trajectory	647	530	Mistaken jealousy	beach	Text	task-narratives/Narrative6Situation9.mp3
244.568	12.642	narrative_presentation	n/a	n/a	Enmity of kin	prison	Text	task-narratives/Narrative5Situation1.mp3
257.21	3.767	rating_feeling	1046	659	Enmity of kin	prison	Text	task-narratives/Narrative5Situation1.mp3
258.477	2.5	feeling_mouse_trajectory	1046	659	Enmity of kin	prison	Text	task-narratives/Narrative5Situation1.mp3
261.237	2.717	rating_expectation	647	530	Enmity of kin	prison	Text	task-narratives/Narrative5Situation1.mp3
261.27	2.683	expectation_mouse_trajectory	647	530	Enmity of kin	prison	Text	task-narratives/Narrative5Situation1.mp3
268.292	28.117	narrative_presentation	n/a	n/a	The enigma	town	Text	task-narratives/Narrative5Situation2.mp3
296.409	2.45	rating_feeling	1046	659	The enigma	town	Text	task-narratives/Narrative5Situation2.mp3
297.559	1.3	feeling_mouse_trajectory	1046	659	The enigma	town	Text	task-narratives/Narrative5Situation2.mp3
300.435	3.433	rating_expectation	647	530	The enigma	town	Text	task-narratives/Narrative5Situation2.mp3
302.202	1.667	expectation_mouse_trajectory	647	530	The enigma	town	Text	task-narratives/Narrative5Situation2.mp3
307.49	13.311	narrative_presentation	n/a	n/a	Discovery of dishonour of loved one	prison	Text	task-narratives/Narrative5Situation3.mp3
320.801	3.033	rating_feeling	1046	659	Discovery of dishonour of loved one	prison	Text	task-narratives/Narrative5Situation3.mp3
321.684	2.15	feeling_mouse_trajectory	1046	659	Discovery of dishonour of loved one	prison	Text	task-narratives/Narrative5Situation3.mp3
324.834	2.033	rating_expectation	647	530	Discovery of dishonour of loved one	prison	Text	task-narratives/Narrative5Situation3.mp3
325.317	1.55	expectation_mouse_trajectory	647	530	Discovery of dishonour of loved one	prison	Text	task-narratives/Narrative5Situation3.mp3
329.916	20.16	narrative_presentation	n/a	n/a	Loss of loved one	swamp	Text	task-narratives/Narrative5Situation4.mp3
350.076	3.533	rating_feeling	1046	659	Loss of loved one	swamp	Text	task-narratives/Narrative5Situation4.mp3
351.876	1.733	feeling_mouse_trajectory	1046	659	Loss of loved one	swamp	Text	task-narratives/Narrative5Situation4.mp3
354.105	2.367	rating_expectation	647	530	Loss of loved one	swamp	Text	task-narratives/Narrative5Situation4.mp3
355.255	1.217	expectation_mouse_trajectory	647	530	Loss of loved one	swamp	Text	task-narratives/Narrative5Situation4.mp3
363.162	14.116	narrative_presentation	n/a	n/a	Necessity of sacrificing loved ones	park	Text	task-narratives/Narrative5Situation5.mp3
377.278	3.467	rating_feeling	1046	659	Necessity of sacrificing loved ones	park	Text	task-narratives/Narrative5Situation5.mp3
379.611	1.133	feeling_mouse_trajectory	1046	659	Necessity of sacrificing loved ones	park	Text	task-narratives/Narrative5Situation5.mp3
381.3	2.017	rating_expectation	647	530	Necessity of sacrificing loved ones	park	Text	task-narratives/Narrative5Situation5.mp3
382.134	1.183	expectation_mouse_trajectory	647	530	Necessity of sacrificing loved ones	park	Text	task-narratives/Narrative5Situation5.mp3
388.353	5.482	narrative_presentation	n/a	n/a	Daring Enterprise	swamp	Text	task-narratives/Narrative5Situation6.mp3
393.835	2.533	rating_feeling	1046	659	Daring Enterprise	swamp	Text	task-narratives/Narrative5Situation6.mp3
393.885	2.483	feeling_mouse_trajectory	1046	659	Daring Enterprise	swamp	Text	task-narratives/Narrative5Situation6.mp3
397.855	2.45	rating_expectation	647	530	Daring Enterprise	swamp	Text	task-narratives/Narrative5Situation6.mp3
399.121	1.183	expectation_mouse_trajectory	647	530	Daring Enterprise	swamp	Text	task-narratives/Narrative5Situation6.mp3
405.909	20.822	narrative_presentation	n/a	n/a	Revolt	beach	Text	task-narratives/Narrative5Situation7.mp3
426.732	1.433	rating_feeling	1046	659	Revolt	beach	Text	task-narratives/Narrative5Situation7.mp3
427.432	0.733	feeling_mouse_trajectory	1046	659	Revolt	beach	Text	task-narratives/Narrative5Situation7.mp3
430.75	3.983	rating_expectation	647	530	Revolt	beach	Text	task-narratives/Narrative5Situation7.mp3
432.067	2.667	expectation_mouse_trajectory	647	530	Revolt	beach	Text	task-narratives/Narrative5Situation7.mp3
437.805	7.29	narrative_presentation	n/a	n/a	Falling prey to misfortune	city	Text	task-narratives/Narrative5Situation8.mp3
445.095	1.2	rating_feeling	1046	659	Falling prey to misfortune	city	Text	task-narratives/Narrative5Situation8.mp3
445.461	0.833	feeling_mouse_trajectory	1046	659	Falling prey to misfortune	city	Text	task-narratives/Narrative5Situation8.mp3
449.124	2.35	rating_expectation	647	530	Falling prey to misfortune	city	Text	task-narratives/Narrative5Situation8.mp3
449.957	1.517	expectation_mouse_trajectory	647	530	Falling prey to misfortune	city	Text	task-narratives/Narrative5Situation8.mp3
456.195	37.951	narrative_presentation	n/a	n/a	Mistaken jealousy	beach	Text	task-narratives/Narrative5Situation9.mp3
494.147	3.667	rating_feeling	1046	659	Mistaken jealousy	beach	Text	task-narratives/Narrative5Situation9.mp3
494.564	3.25	feeling_mouse_trajectory	1046	659	Mistaken jealousy	beach	Text	task-narratives/Narrative5Situation9.mp3
498.183	2.367	rating_expectation	647	530	Mistaken jealousy	beach	Text	task-narratives/Narrative5Situation9.mp3
499.267	1.283	expectation_mouse_trajectory	647	530	Mistaken jealousy	beach	Text	task-narratives/Narrative5Situation9.mp3
