onset	duration	subtask_type	event_type	response_accuracy	cue_location	target_location	button_press	trial_index
7.065	0.2	posner	invalid_cue	correct	left	n/a	n/a	1
7.298	0.601	posner	target_response	correct	left	right	right	1
10.716	0.2	posner	valid_cue	correct	right	n/a	n/a	2
10.916	0.342	posner	target_response	correct	right	right	right	2
13.801	0.2	posner	valid_cue	correct	right	n/a	n/a	3
14.001	0.421	posner	target_response	correct	right	right	right	3
16.985	0.2	posner	valid_cue	correct	left	n/a	n/a	4
17.185	0.518	posner	target_response	correct	left	left	left	4
20.253	0.2	posner	invalid_cue	correct	left	n/a	n/a	5
20.453	0.471	posner	target_response	correct	left	right	right	5
23.754	0.2	posner	invalid_cue	correct	right	n/a	n/a	6
23.954	0.407	posner	target_response	correct	right	left	left	6
31.224	0.2	posner	valid_cue	correct	left	n/a	n/a	7
31.424	0.427	posner	target_response	correct	left	left	left	7
36.392	0.2	posner	valid_cue	correct	left	n/a	n/a	8
36.593	0.28	posner	target_response	correct	left	left	left	8
39.46	0.2	posner	valid_cue	correct	right	n/a	n/a	9
39.66	0.262	posner	target_response	correct	right	right	right	9
46.93	0.2	posner	valid_cue	correct	right	n/a	n/a	10
47.13	0.209	posner	target_response	correct	right	right	right	10
50.598	0.2	posner	valid_cue	correct	right	n/a	n/a	11
50.798	0.471	posner	target_response	correct	right	right	right	11
54.766	0.2	posner	invalid_cue	correct	left	n/a	n/a	12
54.966	0.513	posner	target_response	correct	left	right	right	12
62.235	0.2	posner	valid_cue	correct	right	n/a	n/a	13
62.435	0.434	posner	target_response	correct	right	right	right	13
65.303	0.2	posner	invalid_cue	correct	right	n/a	n/a	14
65.503	0.514	posner	target_response	correct	right	left	left	14
68.471	0.2	posner	valid_cue	correct	left	n/a	n/a	15
68.671	0.402	posner	target_response	correct	left	left	left	15
71.539	0.2	posner	valid_cue	correct	left	n/a	n/a	16
71.739	0.455	posner	target_response	correct	left	left	left	16
77.208	0.2	posner	valid_cue	correct	left	n/a	n/a	17
77.408	0.459	posner	target_response	correct	left	left	left	17
80.275	0.2	posner	invalid_cue	correct	left	n/a	n/a	18
80.476	0.42	posner	target_response	correct	left	right	right	18
87.745	0.2	posner	valid_cue	correct	right	n/a	n/a	19
87.945	0.377	posner	target_response	correct	right	right	right	19
95.198	0.2	posner	valid_cue	correct	left	n/a	n/a	20
95.398	0.412	posner	target_response	correct	left	left	left	20
98.566	0.2	posner	valid_cue	correct	left	n/a	n/a	21
98.766	0.35	posner	target_response	correct	left	left	left	21
101.733	0.2	posner	valid_cue	correct	left	n/a	n/a	22
101.934	0.319	posner	target_response	correct	left	left	left	22
104.801	0.2	posner	valid_cue	correct	left	n/a	n/a	23
105.001	0.291	posner	target_response	correct	left	left	left	23
113.871	0.2	posner	valid_cue	correct	left	n/a	n/a	24
114.071	0.362	posner	target_response	correct	left	left	left	24
118.64	0.2	posner	invalid_cue	correct	right	n/a	n/a	25
118.84	0.472	posner	target_response	correct	right	left	left	25
126.109	0.2	posner	invalid_cue	correct	right	n/a	n/a	26
126.309	0.507	posner	target_response	correct	right	left	left	26
132.078	0.2	posner	invalid_cue	correct	right	n/a	n/a	27
132.278	0.398	posner	target_response	correct	right	left	left	27
139.548	0.2	posner	invalid_cue	correct	left	n/a	n/a	28
139.748	0.487	posner	target_response	correct	left	right	right	28
143.516	0.2	posner	invalid_cue	correct	right	n/a	n/a	29
143.716	0.381	posner	target_response	correct	right	left	left	29
147.384	0.2	posner	valid_cue	correct	left	n/a	n/a	30
147.584	0.327	posner	target_response	correct	left	left	left	30
153.053	0.2	posner	valid_cue	correct	left	n/a	n/a	31
153.253	0.327	posner	target_response	correct	left	left	left	31
160.522	0.2	posner	invalid_cue	correct	right	n/a	n/a	32
160.722	0.418	posner	target_response	correct	right	left	left	32
164.69	0.2	posner	valid_cue	correct	right	n/a	n/a	33
164.89	0.454	posner	target_response	correct	right	right	right	33
168.658	0.2	posner	valid_cue	correct	right	n/a	n/a	34
168.858	0.395	posner	target_response	correct	right	right	right	34
174.827	0.2	posner	valid_cue	correct	left	n/a	n/a	35
175.027	0.367	posner	target_response	correct	left	left	left	35
180.996	0.2	posner	valid_cue	correct	right	n/a	n/a	36
181.196	0.356	posner	target_response	correct	right	right	right	36
189.566	0.2	posner	valid_cue	correct	right	n/a	n/a	37
189.766	0.357	posner	target_response	correct	right	right	right	37
193.534	0.2	posner	invalid_cue	correct	right	n/a	n/a	38
193.734	0.392	posner	target_response	correct	right	left	left	38
201.004	0.2	posner	invalid_cue	correct	right	n/a	n/a	39
201.204	0.406	posner	target_response	correct	right	left	left	39
204.372	0.2	posner	invalid_cue	correct	right	n/a	n/a	40
204.572	0.43	posner	target_response	correct	right	left	left	40
208.54	0.2	posner	valid_cue	correct	right	n/a	n/a	41
208.74	0.36	posner	target_response	correct	right	right	right	41
214.009	0.2	posner	invalid_cue	correct	right	n/a	n/a	42
214.209	0.451	posner	target_response	correct	right	left	left	42
217.977	0.2	posner	valid_cue	correct	right	n/a	n/a	43
218.177	0.376	posner	target_response	correct	right	right	right	43
221.945	0.2	posner	invalid_cue	correct	left	n/a	n/a	44
222.145	0.433	posner	target_response	correct	left	right	right	44
225.013	0.2	posner	valid_cue	correct	right	n/a	n/a	45
225.213	0.37	posner	target_response	correct	right	right	right	45
228.081	0.2	posner	valid_cue	correct	left	n/a	n/a	46
228.281	0.317	posner	target_response	correct	left	left	left	46
232.149	0.2	posner	valid_cue	correct	left	n/a	n/a	47
232.349	0.397	posner	target_response	correct	left	left	left	47
241.219	0.2	posner	invalid_cue	correct	left	n/a	n/a	48
241.419	0.428	posner	target_response	correct	left	right	right	48
246.888	0.2	posner	valid_cue	correct	right	n/a	n/a	49
247.088	0.444	posner	target_response	correct	right	right	right	49
252.156	0.2	posner	valid_cue	correct	right	n/a	n/a	50
252.356	0.41	posner	target_response	correct	right	right	right	50
256.925	0.2	posner	invalid_cue	correct	left	n/a	n/a	51
257.125	0.438	posner	target_response	correct	left	right	right	51
261.793	0.2	posner	valid_cue	correct	left	n/a	n/a	52
261.993	0.372	posner	target_response	correct	left	left	left	52
269.263	0.2	posner	valid_cue	correct	left	n/a	n/a	53
269.463	0.421	posner	target_response	correct	left	left	left	53
274.931	0.2	posner	valid_cue	correct	left	n/a	n/a	54
275.131	0.37	posner	target_response	correct	left	left	left	54
278.599	0.2	posner	invalid_cue	correct	right	n/a	n/a	55
278.799	0.402	posner	target_response	correct	right	left	left	55
281.667	0.2	posner	valid_cue	correct	right	n/a	n/a	56
281.867	0.421	posner	target_response	correct	right	right	right	56
285.135	0.2	posner	invalid_cue	correct	right	n/a	n/a	57
285.335	0.54	posner	target_response	correct	right	left	left	57
288.703	0.2	posner	invalid_cue	correct	left	n/a	n/a	58
288.903	0.45	posner	target_response	correct	left	right	right	58
292.071	0.2	posner	valid_cue	correct	right	n/a	n/a	59
292.271	0.487	posner	target_response	correct	right	right	right	59
298.74	0.2	posner	invalid_cue	correct	right	n/a	n/a	60
298.94	0.391	posner	target_response	correct	right	left	left	60
305.91	0.2	posner	invalid_cue	correct	left	n/a	n/a	61
306.11	0.375	posner	target_response	correct	left	right	right	61
309.578	0.2	posner	invalid_cue	correct	left	n/a	n/a	62
309.778	0.37	posner	target_response	correct	left	right	right	62
313.546	0.2	posner	invalid_cue	correct	left	n/a	n/a	63
313.746	0.362	posner	target_response	correct	left	right	right	63
317.214	0.2	posner	valid_cue	correct	left	n/a	n/a	64
317.414	0.35	posner	target_response	correct	left	left	left	64
324.383	0.2	posner	invalid_cue	correct	right	n/a	n/a	65
324.583	0.437	posner	target_response	correct	right	left	left	65
327.851	0.2	posner	invalid_cue	correct	left	n/a	n/a	66
328.051	0.452	posner	target_response	correct	left	right	right	66
331.419	0.2	posner	valid_cue	correct	left	n/a	n/a	67
331.619	0.314	posner	target_response	correct	left	left	left	67
335.087	0.2	posner	valid_cue	correct	left	n/a	n/a	68
335.287	0.362	posner	target_response	correct	left	left	left	68
340.356	0.2	posner	valid_cue	correct	right	n/a	n/a	69
340.556	0.364	posner	target_response	correct	right	right	right	69
344.724	0.2	posner	invalid_cue	correct	left	n/a	n/a	70
344.924	0.442	posner	target_response	correct	left	right	right	70
349.893	0.2	posner	invalid_cue	correct	left	n/a	n/a	71
350.093	0.401	posner	target_response	correct	left	right	right	71
355.061	0.2	posner	invalid_cue	correct	right	n/a	n/a	72
355.261	0.359	posner	target_response	correct	right	left	left	72
364.131	0.2	posner	invalid_cue	correct	left	n/a	n/a	73
364.331	0.418	posner	target_response	correct	left	right	right	73
371.301	0.2	posner	invalid_cue	correct	right	n/a	n/a	74
371.501	0.387	posner	target_response	correct	right	left	left	74
378.77	0.2	posner	invalid_cue	correct	right	n/a	n/a	75
378.97	0.351	posner	target_response	correct	right	left	left	75
383.539	0.2	posner	valid_cue	correct	right	n/a	n/a	76
383.739	0.424	posner	target_response	correct	right	right	right	76
391.008	0.2	posner	valid_cue	correct	right	n/a	n/a	77
391.208	0.371	posner	target_response	correct	right	right	right	77
397.177	0.2	posner	valid_cue	correct	left	n/a	n/a	78
397.377	0.245	posner	target_response	correct	left	left	left	78
400.245	0.2	posner	invalid_cue	correct	left	n/a	n/a	79
400.445	0.428	posner	target_response	correct	left	right	right	79
403.713	0.2	posner	invalid_cue	correct	right	n/a	n/a	80
403.913	0.475	posner	target_response	correct	right	left	left	80
408.281	0.2	posner	valid_cue	correct	right	n/a	n/a	81
408.481	0.353	posner	target_response	correct	right	right	right	81
411.849	0.2	posner	invalid_cue	correct	left	n/a	n/a	82
412.049	0.491	posner	target_response	correct	left	right	right	82
416.918	0.2	posner	invalid_cue	correct	left	n/a	n/a	83
417.118	0.465	posner	target_response	correct	left	right	right	83
423.487	0.2	posner	valid_cue	correct	right	n/a	n/a	84
423.687	0.397	posner	target_response	correct	right	right	right	84
430.956	0.2	posner	valid_cue	correct	right	n/a	n/a	85
431.156	0.39	posner	target_response	correct	right	right	right	85
434.524	0.2	posner	valid_cue	correct	right	n/a	n/a	86
434.724	0.409	posner	target_response	correct	right	right	right	86
441.994	0.2	posner	valid_cue	correct	right	n/a	n/a	87
442.194	0.344	posner	target_response	correct	right	right	right	87
450.864	0.2	posner	invalid_cue	correct	left	n/a	n/a	88
451.064	0.427	posner	target_response	correct	left	right	right	88
455.532	0.2	posner	invalid_cue	correct	left	n/a	n/a	89
455.732	0.434	posner	target_response	correct	left	right	right	89
463.002	0.2	posner	invalid_cue	correct	left	n/a	n/a	90
463.202	0.371	posner	target_response	correct	left	right	right	90
466.87	0.2	posner	invalid_cue	correct	right	n/a	n/a	91
467.07	0.393	posner	target_response	correct	right	left	left	91
470.838	0.2	posner	valid_cue	correct	right	n/a	n/a	92
471.038	0.374	posner	target_response	correct	right	right	right	92
474.006	0.2	posner	valid_cue	correct	left	n/a	n/a	93
474.206	0.39	posner	target_response	correct	left	left	left	93
478.174	0.2	posner	invalid_cue	correct	right	n/a	n/a	94
478.374	0.416	posner	target_response	correct	right	left	left	94
481.242	0.2	posner	valid_cue	correct	left	n/a	n/a	95
481.442	0.402	posner	target_response	correct	left	left	left	95
488.711	0.2	posner	valid_cue	correct	right	n/a	n/a	96
488.911	0.375	posner	target_response	correct	right	right	right	96
496.081	0.2	posner	invalid_cue	correct	right	n/a	n/a	97
496.281	0.43	posner	target_response	correct	right	left	left	97
499.749	0.2	posner	invalid_cue	correct	left	n/a	n/a	98
499.949	0.394	posner	target_response	correct	left	right	right	98
505.918	0.2	posner	valid_cue	correct	left	n/a	n/a	99
506.118	0.373	posner	target_response	correct	left	left	left	99
509.886	0.2	posner	valid_cue	correct	right	n/a	n/a	100
510.086	0.364	posner	target_response	correct	right	right	right	100
516.355	0.2	posner	valid_cue	correct	left	n/a	n/a	101
516.555	0.332	posner	target_response	correct	left	left	left	101
523.824	0.2	posner	valid_cue	correct	left	n/a	n/a	102
524.024	0.428	posner	target_response	correct	left	left	left	102
527.292	0.2	posner	valid_cue	correct	left	n/a	n/a	103
527.492	0.4	posner	target_response	correct	left	left	left	103
530.76	0.2	posner	valid_cue	correct	right	n/a	n/a	104
530.96	0.394	posner	target_response	correct	right	right	right	104
534.228	0.2	posner	invalid_cue	correct	left	n/a	n/a	105
534.428	0.491	posner	target_response	correct	left	right	right	105
539.397	0.2	posner	invalid_cue	correct	left	n/a	n/a	106
539.597	0.423	posner	target_response	correct	left	right	right	106
542.765	0.2	posner	invalid_cue	correct	right	n/a	n/a	107
542.965	0.4	posner	target_response	correct	right	left	left	107
546.833	0.2	posner	invalid_cue	correct	right	n/a	n/a	108
547.033	0.475	posner	target_response	correct	right	left	left	108
552.101	0.2	posner	invalid_cue	correct	right	n/a	n/a	109
552.301	0.394	posner	target_response	correct	right	left	left	109
556.67	0.2	posner	invalid_cue	correct	left	n/a	n/a	110
556.87	0.413	posner	target_response	correct	left	right	right	110
559.838	0.2	posner	valid_cue	correct	right	n/a	n/a	111
560.038	0.427	posner	target_response	correct	right	right	right	111
563.406	0.2	posner	invalid_cue	correct	right	n/a	n/a	112
563.606	0.372	posner	target_response	correct	right	left	left	112
566.774	0.2	posner	valid_cue	correct	left	n/a	n/a	113
566.974	0.385	posner	target_response	correct	left	left	left	113
573.143	0.2	posner	invalid_cue	correct	left	n/a	n/a	114
573.343	0.392	posner	target_response	correct	left	right	right	114
580.612	0.2	posner	invalid_cue	correct	left	n/a	n/a	115
580.812	0.397	posner	target_response	correct	left	right	right	115
583.78	0.2	posner	invalid_cue	correct	right	n/a	n/a	116
583.98	0.448	posner	target_response	correct	right	left	left	116
587.248	0.2	posner	invalid_cue	correct	left	n/a	n/a	117
587.448	0.372	posner	target_response	correct	left	right	right	117
590.316	0.2	posner	valid_cue	correct	left	n/a	n/a	118
590.516	0.397	posner	target_response	correct	left	left	left	118
595.984	0.2	posner	invalid_cue	correct	right	n/a	n/a	119
596.185	0.358	posner	target_response	correct	right	left	left	119
599.552	0.2	posner	invalid_cue	correct	right	n/a	n/a	120
599.753	0.393	posner	target_response	correct	right	left	left	120
