onset	duration	run_type	trial_type	trial_index	cue	stimulusintensity	rating_value	rating_glmslabel	rating_value_fillna	rating_glmslabel_fillna	rating_mouseonset	rating_mousedur	stim_file_TODO	pain_onset_ttl1	pain_onset_ttl2	pain_onset_ttl3	pain_onset_ttl4	pain_stimulus_delivery_success	cognitive_correct_response	cognitive_participant_response	cognitive_response_accuracy
7.9	0.98	cognitive	cue	1	high_cue	n/a	n/a	n/a	n/a	n/a	n/a	n/a	task-social/cue/runtype-cognitive/sch/h008.png	n/a	n/a	n/a	n/a	n/a	n/a	n/a	n/a
10.12	0.92	cognitive	expectrating	1	high_cue	n/a	77.47	Very Strong	77.47	Very Strong	0.25	0.67	task-social/cue/runtype-cognitive/sch/h008.png	n/a	n/a	n/a	n/a	n/a	n/a	n/a	n/a
20.8	5.0	cognitive	stimulus	1	high_cue	low_stim	n/a	n/a	n/a	n/a	n/a	n/a	task-social/stim/runtype-cognitive/5_50.jpg	n/a	n/a	n/a	n/a	n/a	same	same	True
33.01	1.28	cognitive	outcomerating	1	high_cue	low_stim	47.29	Strong	47.29	Strong	0.25	0.67	task-social/outcomerating/task-cognitive_scale.png	n/a	n/a	n/a	n/a	n/a	n/a	n/a	n/a
37.59	0.99	cognitive	cue	2	low_cue	n/a	n/a	n/a	n/a	n/a	n/a	n/a	task-social/cue/runtype-cognitive/scl/l011.png	n/a	n/a	n/a	n/a	n/a	n/a	n/a	n/a
39.99	2.39	cognitive	expectrating	2	low_cue	n/a	26.36	Moderate	26.36	Moderate	0.42	1.98	task-social/cue/runtype-cognitive/scl/l011.png	n/a	n/a	n/a	n/a	n/a	n/a	n/a	n/a
47.4	5.0	cognitive	stimulus	2	low_cue	med_stim	n/a	n/a	n/a	n/a	n/a	n/a	task-social/stim/runtype-cognitive/5_100_R.jpg	n/a	n/a	n/a	n/a	n/a	diff	diff	True
57.5	1.0	cognitive	outcomerating	2	low_cue	med_stim	58.92	Strong	58.92	Strong	0.42	1.98	task-social/outcomerating/task-cognitive_scale.png	n/a	n/a	n/a	n/a	n/a	n/a	n/a	n/a
66.69	0.99	cognitive	cue	3	high_cue	n/a	n/a	n/a	n/a	n/a	n/a	n/a	task-social/cue/runtype-cognitive/sch/h024.png	n/a	n/a	n/a	n/a	n/a	n/a	n/a	n/a
68.91	1.05	cognitive	expectrating	3	high_cue	n/a	93.15	Very Strong	93.15	Very Strong	0.28	0.77	task-social/cue/runtype-cognitive/sch/h024.png	n/a	n/a	n/a	n/a	n/a	n/a	n/a	n/a
81.89	5.0	cognitive	stimulus	3	high_cue	low_stim	n/a	n/a	n/a	n/a	n/a	n/a	task-social/stim/runtype-cognitive/42_50.jpg	n/a	n/a	n/a	n/a	n/a	same	same	True
90.4	2.09	cognitive	outcomerating	3	high_cue	low_stim	13.53	Moderate	13.53	Moderate	0.28	0.77	task-social/outcomerating/task-cognitive_scale.png	n/a	n/a	n/a	n/a	n/a	n/a	n/a	n/a
95.5	0.98	cognitive	cue	4	low_cue	n/a	n/a	n/a	n/a	n/a	n/a	n/a	task-social/cue/runtype-cognitive/scl/l038.png	n/a	n/a	n/a	n/a	n/a	n/a	n/a	n/a
99.0	2.85	cognitive	expectrating	4	low_cue	n/a	36.4	Strong	36.4	Strong	0.32	2.54	task-social/cue/runtype-cognitive/scl/l038.png	n/a	n/a	n/a	n/a	n/a	n/a	n/a	n/a
107.6	5.0	cognitive	stimulus	4	low_cue	med_stim	n/a	n/a	n/a	n/a	n/a	n/a	task-social/stim/runtype-cognitive/38_100_R.jpg	n/a	n/a	n/a	n/a	n/a	diff	diff	True
120.79	1.58	cognitive	outcomerating	4	low_cue	med_stim	70.69	Very Strong	70.69	Very Strong	0.32	2.54	task-social/outcomerating/task-cognitive_scale.png	n/a	n/a	n/a	n/a	n/a	n/a	n/a	n/a
125.89	0.99	cognitive	cue	5	high_cue	n/a	n/a	n/a	n/a	n/a	n/a	n/a	task-social/cue/runtype-cognitive/sch/h047.png	n/a	n/a	n/a	n/a	n/a	n/a	n/a	n/a
127.59	2.41	cognitive	expectrating	5	high_cue	n/a	76.58	Very Strong	76.58	Very Strong	0.05	2.36	task-social/cue/runtype-cognitive/sch/h047.png	n/a	n/a	n/a	n/a	n/a	n/a	n/a	n/a
134.2	5.0	cognitive	stimulus	5	high_cue	high_stim	n/a	n/a	n/a	n/a	n/a	n/a	task-social/stim/runtype-cognitive/27_150_R.jpg	n/a	n/a	n/a	n/a	n/a	diff	diff	True
147.4	2.02	cognitive	outcomerating	5	high_cue	high_stim	109.82	Strongest sensation of any kind	109.82	Strongest sensation of any kind	0.05	2.36	task-social/outcomerating/task-cognitive_scale.png	n/a	n/a	n/a	n/a	n/a	n/a	n/a	n/a
152.0	0.98	cognitive	cue	6	low_cue	n/a	n/a	n/a	n/a	n/a	n/a	n/a	task-social/cue/runtype-cognitive/scl/l016.png	n/a	n/a	n/a	n/a	n/a	n/a	n/a	n/a
155.5	1.65	cognitive	expectrating	6	low_cue	n/a	25.63	Moderate	25.63	Moderate	0.12	1.53	task-social/cue/runtype-cognitive/scl/l016.png	n/a	n/a	n/a	n/a	n/a	n/a	n/a	n/a
169.69	5.0	cognitive	stimulus	6	low_cue	low_stim	n/a	n/a	n/a	n/a	n/a	n/a	task-social/stim/runtype-cognitive/43_50.jpg	n/a	n/a	n/a	n/a	n/a	same	same	True
181.9	2.12	cognitive	outcomerating	6	low_cue	low_stim	38.48	Strong	38.48	Strong	0.12	1.53	task-social/outcomerating/task-cognitive_scale.png	n/a	n/a	n/a	n/a	n/a	n/a	n/a	n/a
187.5	0.98	cognitive	cue	7	low_cue	n/a	n/a	n/a	n/a	n/a	n/a	n/a	task-social/cue/runtype-cognitive/scl/l042.png	n/a	n/a	n/a	n/a	n/a	n/a	n/a	n/a
189.7	2.0	cognitive	expectrating	7	low_cue	n/a	5.78	Weak	5.78	Weak	0.37	1.64	task-social/cue/runtype-cognitive/scl/l042.png	n/a	n/a	n/a	n/a	n/a	n/a	n/a	n/a
203.91	5.0	cognitive	stimulus	7	low_cue	high_stim	n/a	n/a	n/a	n/a	n/a	n/a	task-social/stim/runtype-cognitive/44_150_R.jpg	n/a	n/a	n/a	n/a	n/a	diff	diff	True
217.19	1.26	cognitive	outcomerating	7	low_cue	high_stim	13.47	Moderate	13.47	Moderate	0.37	1.64	task-social/outcomerating/task-cognitive_scale.png	n/a	n/a	n/a	n/a	n/a	n/a	n/a	n/a
223.4	0.99	cognitive	cue	8	low_cue	n/a	n/a	n/a	n/a	n/a	n/a	n/a	task-social/cue/runtype-cognitive/scl/l009.png	n/a	n/a	n/a	n/a	n/a	n/a	n/a	n/a
225.6	1.07	cognitive	expectrating	8	low_cue	n/a	14.26	Moderate	14.26	Moderate	0.33	0.74	task-social/cue/runtype-cognitive/scl/l009.png	n/a	n/a	n/a	n/a	n/a	n/a	n/a	n/a
232.2	5.0	cognitive	stimulus	8	low_cue	low_stim	n/a	n/a	n/a	n/a	n/a	n/a	task-social/stim/runtype-cognitive/38_50_R.jpg	n/a	n/a	n/a	n/a	n/a	diff	diff	True
245.5	2.57	cognitive	outcomerating	8	low_cue	low_stim	12.79	Moderate	12.79	Moderate	0.33	0.74	task-social/outcomerating/task-cognitive_scale.png	n/a	n/a	n/a	n/a	n/a	n/a	n/a	n/a
259.29	0.99	cognitive	cue	9	high_cue	n/a	n/a	n/a	n/a	n/a	n/a	n/a	task-social/cue/runtype-cognitive/sch/h025.png	n/a	n/a	n/a	n/a	n/a	n/a	n/a	n/a
262.81	1.17	cognitive	expectrating	9	high_cue	n/a	90.71	Very Strong	90.71	Very Strong	0.05	1.12	task-social/cue/runtype-cognitive/sch/h025.png	n/a	n/a	n/a	n/a	n/a	n/a	n/a	n/a
271.4	5.0	cognitive	stimulus	9	high_cue	high_stim	n/a	n/a	n/a	n/a	n/a	n/a	task-social/stim/runtype-cognitive/43_150_R.jpg	n/a	n/a	n/a	n/a	n/a	diff	diff	True
281.5	2.45	cognitive	outcomerating	9	high_cue	high_stim	108.58	Strongest sensation of any kind	108.58	Strongest sensation of any kind	0.05	1.12	task-social/outcomerating/task-cognitive_scale.png	n/a	n/a	n/a	n/a	n/a	n/a	n/a	n/a
291.69	0.99	cognitive	cue	10	low_cue	n/a	n/a	n/a	n/a	n/a	n/a	n/a	task-social/cue/runtype-cognitive/scl/l043.png	n/a	n/a	n/a	n/a	n/a	n/a	n/a	n/a
294.09	1.0	cognitive	expectrating	10	low_cue	n/a	18.0	Moderate	18.0	Moderate	0.3	0.7	task-social/cue/runtype-cognitive/scl/l043.png	n/a	n/a	n/a	n/a	n/a	n/a	n/a	n/a
301.69	5.0	cognitive	stimulus	10	low_cue	high_stim	n/a	n/a	n/a	n/a	n/a	n/a	task-social/stim/runtype-cognitive/43_150.jpg	n/a	n/a	n/a	n/a	n/a	same	same	True
310.2	2.53	cognitive	outcomerating	10	low_cue	high_stim	132.21	Strongest sensation of any kind	132.21	Strongest sensation of any kind	0.3	0.7	task-social/outcomerating/task-cognitive_scale.png	n/a	n/a	n/a	n/a	n/a	n/a	n/a	n/a
328.7	0.98	cognitive	cue	11	high_cue	n/a	n/a	n/a	n/a	n/a	n/a	n/a	task-social/cue/runtype-cognitive/sch/h028.png	n/a	n/a	n/a	n/a	n/a	n/a	n/a	n/a
331.1	1.58	cognitive	expectrating	11	high_cue	n/a	91.64	Very Strong	91.64	Very Strong	0.25	1.33	task-social/cue/runtype-cognitive/sch/h028.png	n/a	n/a	n/a	n/a	n/a	n/a	n/a	n/a
346.79	5.0	cognitive	stimulus	11	high_cue	med_stim	n/a	n/a	n/a	n/a	n/a	n/a	task-social/stim/runtype-cognitive/29_100.jpg	n/a	n/a	n/a	n/a	n/a	same	same	True
359.8	1.31	cognitive	outcomerating	11	high_cue	med_stim	26.77	Moderate	26.77	Moderate	0.25	1.33	task-social/outcomerating/task-cognitive_scale.png	n/a	n/a	n/a	n/a	n/a	n/a	n/a	n/a
369.6	0.98	cognitive	cue	12	high_cue	n/a	n/a	n/a	n/a	n/a	n/a	n/a	task-social/cue/runtype-cognitive/sch/h021.png	n/a	n/a	n/a	n/a	n/a	n/a	n/a	n/a
371.6	1.27	cognitive	expectrating	12	high_cue	n/a	105.56	Strongest sensation of any kind	105.56	Strongest sensation of any kind	0.38	0.89	task-social/cue/runtype-cognitive/sch/h021.png	n/a	n/a	n/a	n/a	n/a	n/a	n/a	n/a
384.59	5.0	cognitive	stimulus	12	high_cue	med_stim	n/a	n/a	n/a	n/a	n/a	n/a	task-social/stim/runtype-cognitive/35_100.jpg	n/a	n/a	n/a	n/a	n/a	same	diff	False
394.79	1.48	cognitive	outcomerating	12	high_cue	med_stim	138.77	Strongest sensation of any kind	138.77	Strongest sensation of any kind	0.38	0.89	task-social/outcomerating/task-cognitive_scale.png	n/a	n/a	n/a	n/a	n/a	n/a	n/a	n/a
