onset	duration	run_type	trial_type	trial_index	cue	stimulusintensity	rating_value	rating_glmslabel	rating_value_fillna	rating_glmslabel_fillna	rating_mouseonset	rating_mousedur	stim_file	pain_onset_ttl1	pain_onset_ttl2	pain_onset_ttl3	pain_onset_ttl4	pain_stimulus_delivery_success	cognitive_correct_response	cognitive_participant_response	cognitive_response_accuracy
8.01	0.98	vicarious	cue	1	low_cue	n/a	n/a	n/a	n/a	n/a	n/a	n/a	task-social/cue/runtype-vicarious/scl/l044.png	n/a	n/a	n/a	n/a	n/a	n/a	n/a	n/a
11.21	1.1	vicarious	expectrating	1	low_cue	n/a	68.33	Very-Strong	68.33	Very-Strong	0.2	0.9	task-social/cue/runtype-vicarious/scl/l044.png	n/a	n/a	n/a	n/a	n/a	n/a	n/a	n/a
21.29	5.0	vicarious	stimulus	1	low_cue	med_stim	n/a	n/a	n/a	n/a	n/a	n/a	task-social/stim/runtype-vicarious/jh043t2aeunaff_M.mp4	n/a	n/a	n/a	n/a	n/a	n/a	n/a	n/a
33.42	1.77	vicarious	outcomerating	1	low_cue	med_stim	64.57	Very-Strong	64.57	Very-Strong	0.2	0.9	task-social/outcomerating/task-vicarious_scale.png	n/a	n/a	n/a	n/a	n/a	n/a	n/a	n/a
40.7	0.99	vicarious	cue	2	high_cue	n/a	n/a	n/a	n/a	n/a	n/a	n/a	task-social/cue/runtype-vicarious/sch/h032.png	n/a	n/a	n/a	n/a	n/a	n/a	n/a	n/a
43.6	2.02	vicarious	expectrating	2	high_cue	n/a	118.33	Strongest-sensation-of-any-kind	118.33	Strongest-sensation-of-any-kind	0.45	1.57	task-social/cue/runtype-vicarious/sch/h032.png	n/a	n/a	n/a	n/a	n/a	n/a	n/a	n/a
53.69	5.0	vicarious	stimulus	2	high_cue	low_stim	n/a	n/a	n/a	n/a	n/a	n/a	task-social/stim/runtype-vicarious/jh043t2aaunaff_L.mp4	n/a	n/a	n/a	n/a	n/a	n/a	n/a	n/a
61.61	1.43	vicarious	outcomerating	2	high_cue	low_stim	41.71	Strong	41.71	Strong	0.45	1.57	task-social/outcomerating/task-vicarious_scale.png	n/a	n/a	n/a	n/a	n/a	n/a	n/a	n/a
70.8	0.99	vicarious	cue	3	high_cue	n/a	n/a	n/a	n/a	n/a	n/a	n/a	task-social/cue/runtype-vicarious/sch/h015.png	n/a	n/a	n/a	n/a	n/a	n/a	n/a	n/a
73.7	0.72	vicarious	expectrating	3	high_cue	n/a	56.05	Strong	56.05	Strong	0.05	0.67	task-social/cue/runtype-vicarious/sch/h015.png	n/a	n/a	n/a	n/a	n/a	n/a	n/a	n/a
90.89	5.0	vicarious	stimulus	3	high_cue	high_stim	n/a	n/a	n/a	n/a	n/a	n/a	task-social/stim/runtype-vicarious/vw121t1aaaff_H.mp4	n/a	n/a	n/a	n/a	n/a	n/a	n/a	n/a
102.91	2.05	vicarious	outcomerating	3	high_cue	high_stim	143.13	Strongest-sensation-of-any-kind	143.13	Strongest-sensation-of-any-kind	0.05	0.67	task-social/outcomerating/task-vicarious_scale.png	n/a	n/a	n/a	n/a	n/a	n/a	n/a	n/a
108.79	0.99	vicarious	cue	4	low_cue	n/a	n/a	n/a	n/a	n/a	n/a	n/a	task-social/cue/runtype-vicarious/scl/l036.png	n/a	n/a	n/a	n/a	n/a	n/a	n/a	n/a
111.61	1.85	vicarious	expectrating	4	low_cue	n/a	70.18	Very-Strong	70.18	Very-Strong	0.05	1.8	task-social/cue/runtype-vicarious/scl/l036.png	n/a	n/a	n/a	n/a	n/a	n/a	n/a	n/a
119.29	5.0	vicarious	stimulus	4	low_cue	med_stim	n/a	n/a	n/a	n/a	n/a	n/a	task-social/stim/runtype-vicarious/vw121t1aiaff_M.mp4	n/a	n/a	n/a	n/a	n/a	n/a	n/a	n/a
126.82	1.93	vicarious	outcomerating	4	low_cue	med_stim	36.68	Strong	36.68	Strong	0.05	1.8	task-social/outcomerating/task-vicarious_scale.png	n/a	n/a	n/a	n/a	n/a	n/a	n/a	n/a
134.1	0.99	vicarious	cue	5	high_cue	n/a	n/a	n/a	n/a	n/a	n/a	n/a	task-social/cue/runtype-vicarious/sch/h022.png	n/a	n/a	n/a	n/a	n/a	n/a	n/a	n/a
135.7	1.09	vicarious	expectrating	5	high_cue	n/a	109.96	Strongest-sensation-of-any-kind	109.96	Strongest-sensation-of-any-kind	0.4	0.69	task-social/cue/runtype-vicarious/sch/h022.png	n/a	n/a	n/a	n/a	n/a	n/a	n/a	n/a
145.8	5.0	vicarious	stimulus	5	high_cue	low_stim	n/a	n/a	n/a	n/a	n/a	n/a	task-social/stim/runtype-vicarious/hs107t2aeunaff_L.mp4	n/a	n/a	n/a	n/a	n/a	n/a	n/a	n/a
153.41	0.92	vicarious	outcomerating	5	high_cue	low_stim	94.15	Very-Strong	94.15	Very-Strong	0.4	0.69	task-social/outcomerating/task-vicarious_scale.png	n/a	n/a	n/a	n/a	n/a	n/a	n/a	n/a
164.6	0.99	vicarious	cue	6	low_cue	n/a	n/a	n/a	n/a	n/a	n/a	n/a	task-social/cue/runtype-vicarious/scl/l052.png	n/a	n/a	n/a	n/a	n/a	n/a	n/a	n/a
166.9	1.77	vicarious	expectrating	6	low_cue	n/a	64.73	Very-Strong	64.73	Very-Strong	0.4	1.37	task-social/cue/runtype-vicarious/scl/l052.png	n/a	n/a	n/a	n/a	n/a	n/a	n/a	n/a
173.89	5.0	vicarious	stimulus	6	low_cue	high_stim	n/a	n/a	n/a	n/a	n/a	n/a	task-social/stim/runtype-vicarious/hs107t1afaff_H.mp4	n/a	n/a	n/a	n/a	n/a	n/a	n/a	n/a
189.71	1.87	vicarious	outcomerating	6	low_cue	high_stim	148.31	Strongest-sensation-of-any-kind	148.31	Strongest-sensation-of-any-kind	0.4	1.37	task-social/outcomerating/task-vicarious_scale.png	n/a	n/a	n/a	n/a	n/a	n/a	n/a	n/a
196.99	0.99	vicarious	cue	7	low_cue	n/a	n/a	n/a	n/a	n/a	n/a	n/a	task-social/cue/runtype-vicarious/scl/l013.png	n/a	n/a	n/a	n/a	n/a	n/a	n/a	n/a
199.01	1.98	vicarious	expectrating	7	low_cue	n/a	97.38	Very-Strong	97.38	Very-Strong	0.67	1.32	task-social/cue/runtype-vicarious/scl/l013.png	n/a	n/a	n/a	n/a	n/a	n/a	n/a	n/a
208.49	5.0	vicarious	stimulus	7	low_cue	low_stim	n/a	n/a	n/a	n/a	n/a	n/a	task-social/stim/runtype-vicarious/dn124t1aaunaff_L.mp4	n/a	n/a	n/a	n/a	n/a	n/a	n/a	n/a
220.72	1.57	vicarious	outcomerating	7	low_cue	low_stim	57.6	Strong	57.6	Strong	0.67	1.32	task-social/outcomerating/task-vicarious_scale.png	n/a	n/a	n/a	n/a	n/a	n/a	n/a	n/a
225.5	0.98	vicarious	cue	8	high_cue	n/a	n/a	n/a	n/a	n/a	n/a	n/a	task-social/cue/runtype-vicarious/sch/h010.png	n/a	n/a	n/a	n/a	n/a	n/a	n/a	n/a
227.91	1.81	vicarious	expectrating	8	high_cue	n/a	127.47	Strongest-sensation-of-any-kind	127.47	Strongest-sensation-of-any-kind	0.57	1.24	task-social/cue/runtype-vicarious/sch/h010.png	n/a	n/a	n/a	n/a	n/a	n/a	n/a	n/a
237.39	5.0	vicarious	stimulus	8	high_cue	med_stim	n/a	n/a	n/a	n/a	n/a	n/a	task-social/stim/runtype-vicarious/ak064t1aiaff_M.mp4	n/a	n/a	n/a	n/a	n/a	n/a	n/a	n/a
247.51	1.23	vicarious	outcomerating	8	high_cue	med_stim	72.86	Very-Strong	72.86	Very-Strong	0.57	1.24	task-social/outcomerating/task-vicarious_scale.png	n/a	n/a	n/a	n/a	n/a	n/a	n/a	n/a
255.1	0.99	vicarious	cue	9	low_cue	n/a	n/a	n/a	n/a	n/a	n/a	n/a	task-social/cue/runtype-vicarious/scl/l025.png	n/a	n/a	n/a	n/a	n/a	n/a	n/a	n/a
257.1	1.72	vicarious	expectrating	9	low_cue	n/a	77.42	Very-Strong	77.42	Very-Strong	0.05	1.67	task-social/cue/runtype-vicarious/scl/l025.png	n/a	n/a	n/a	n/a	n/a	n/a	n/a	n/a
264.79	5.0	vicarious	stimulus	9	low_cue	high_stim	n/a	n/a	n/a	n/a	n/a	n/a	task-social/stim/runtype-vicarious/jh043t2aeaff_H.mp4	n/a	n/a	n/a	n/a	n/a	n/a	n/a	n/a
278.31	1.55	vicarious	outcomerating	9	low_cue	high_stim	168.74	Strongest-sensation-of-any-kind	168.74	Strongest-sensation-of-any-kind	0.05	1.67	task-social/outcomerating/task-vicarious_scale.png	n/a	n/a	n/a	n/a	n/a	n/a	n/a	n/a
288.59	0.99	vicarious	cue	10	high_cue	n/a	n/a	n/a	n/a	n/a	n/a	n/a	task-social/cue/runtype-vicarious/sch/h033.png	n/a	n/a	n/a	n/a	n/a	n/a	n/a	n/a
291.51	1.32	vicarious	expectrating	10	high_cue	n/a	144.3	Strongest-sensation-of-any-kind	144.3	Strongest-sensation-of-any-kind	0.45	0.87	task-social/cue/runtype-vicarious/sch/h033.png	n/a	n/a	n/a	n/a	n/a	n/a	n/a	n/a
301.69	5.0	vicarious	stimulus	10	high_cue	med_stim	n/a	n/a	n/a	n/a	n/a	n/a	task-social/stim/runtype-vicarious/hs107t2aaaff_M.mp4	n/a	n/a	n/a	n/a	n/a	n/a	n/a	n/a
311.9	1.74	vicarious	outcomerating	10	high_cue	med_stim	166.47	Strongest-sensation-of-any-kind	166.47	Strongest-sensation-of-any-kind	0.45	0.87	task-social/outcomerating/task-vicarious_scale.png	n/a	n/a	n/a	n/a	n/a	n/a	n/a	n/a
319.21	0.98	vicarious	cue	11	low_cue	n/a	n/a	n/a	n/a	n/a	n/a	n/a	task-social/cue/runtype-vicarious/scl/l005.png	n/a	n/a	n/a	n/a	n/a	n/a	n/a	n/a
322.01	1.75	vicarious	expectrating	11	low_cue	n/a	82.87	Very-Strong	82.87	Very-Strong	0.05	1.7	task-social/cue/runtype-vicarious/scl/l005.png	n/a	n/a	n/a	n/a	n/a	n/a	n/a	n/a
332.19	5.0	vicarious	stimulus	11	low_cue	low_stim	n/a	n/a	n/a	n/a	n/a	n/a	task-social/stim/runtype-vicarious/kz120t2aaunaff_L.mp4	n/a	n/a	n/a	n/a	n/a	n/a	n/a	n/a
348.02	1.8	vicarious	outcomerating	11	low_cue	low_stim	47.33	Strong	47.33	Strong	0.05	1.7	task-social/outcomerating/task-vicarious_scale.png	n/a	n/a	n/a	n/a	n/a	n/a	n/a	n/a
362.51	0.98	vicarious	cue	12	high_cue	n/a	n/a	n/a	n/a	n/a	n/a	n/a	task-social/cue/runtype-vicarious/sch/h044.png	n/a	n/a	n/a	n/a	n/a	n/a	n/a	n/a
364.91	1.47	vicarious	expectrating	12	high_cue	n/a	103.8	Strongest-sensation-of-any-kind	103.8	Strongest-sensation-of-any-kind	0.45	1.02	task-social/cue/runtype-vicarious/sch/h044.png	n/a	n/a	n/a	n/a	n/a	n/a	n/a	n/a
381.59	5.0	vicarious	stimulus	12	high_cue	high_stim	n/a	n/a	n/a	n/a	n/a	n/a	task-social/stim/runtype-vicarious/jh123t1aeaff_H.mp4	n/a	n/a	n/a	n/a	n/a	n/a	n/a	n/a
394.82	2.38	vicarious	outcomerating	12	high_cue	high_stim	157.34	Strongest-sensation-of-any-kind	157.34	Strongest-sensation-of-any-kind	0.45	1.02	task-social/outcomerating/task-vicarious_scale.png	n/a	n/a	n/a	n/a	n/a	n/a	n/a	n/a
