onset	duration	run_type	trial_type	trial_index	cue	stimulusintensity	rating_value	rating_glmslabel	rating_value_fillna	rating_glmslabel_fillna	rating_mouseonset	rating_mousedur	stim_file_TODO	pain_onset_ttl1	pain_onset_ttl2	pain_onset_ttl3	pain_onset_ttl4	pain_stimulus_delivery_success	cognitive_correct_response	cognitive_participant_response	cognitive_response_accuracy
11.01	1.0	pain	cue	1	low_cue	n/a	n/a	n/a	n/a	n/a	n/a	n/a	task-social/cue/runtype-pain/scl/l032.png	n/a	n/a	n/a	n/a	n/a	n/a	n/a	n/a
14.32	1.85	pain	expectrating	1	low_cue	n/a	7.64	Weak	7.64	Weak	0.05	1.8	task-social/cue/runtype-pain/scl/l032.png	n/a	n/a	n/a	n/a	n/a	n/a	n/a	n/a
30.54	12.369999999999997	pain	stimulus	1	low_cue	med_stim	n/a	n/a	n/a	n/a	n/a	n/a	n/a	30.54	34.3	39.3	42.91	success	n/a	n/a	n/a
45.31	1.55	pain	outcomerating	1	low_cue	med_stim	53.8	Strong	53.8	Strong	0.05	1.8	task-social/outcomerating/task-pain_scale.png	n/a	n/a	n/a	n/a	success	n/a	n/a	n/a
51.51	1.0	pain	cue	2	low_cue	n/a	n/a	n/a	n/a	n/a	n/a	n/a	task-social/cue/runtype-pain/scl/l044.png	n/a	n/a	n/a	n/a	n/a	n/a	n/a	n/a
53.71	3.37	pain	expectrating	2	low_cue	n/a	6.93	Weak	6.93	Weak	0.33	3.03	task-social/cue/runtype-pain/scl/l044.png	n/a	n/a	n/a	n/a	n/a	n/a	n/a	n/a
60.45	12.819999999999993	pain	stimulus	2	low_cue	high_stim	n/a	n/a	n/a	n/a	n/a	n/a	n/a	60.45	64.46	69.46	73.27	success	n/a	n/a	n/a
75.21	2.6	pain	outcomerating	2	low_cue	high_stim	67.04	Very Strong	67.04	Very Strong	0.33	3.03	task-social/outcomerating/task-pain_scale.png	n/a	n/a	n/a	n/a	success	n/a	n/a	n/a
83.01	1.0	pain	cue	3	high_cue	n/a	n/a	n/a	n/a	n/a	n/a	n/a	task-social/cue/runtype-pain/sch/h001.png	n/a	n/a	n/a	n/a	n/a	n/a	n/a	n/a
85.81	1.38	pain	expectrating	3	high_cue	n/a	99.35	Strongest sensation of any kind	99.35	Strongest sensation of any kind	0.4	0.98	task-social/cue/runtype-pain/sch/h001.png	n/a	n/a	n/a	n/a	n/a	n/a	n/a	n/a
90.53	11.900000000000006	pain	stimulus	3	high_cue	low_stim	n/a	n/a	n/a	n/a	n/a	n/a	n/a	90.53	94.03	99.03	102.43	success	n/a	n/a	n/a
100.41	2.82	pain	outcomerating	3	high_cue	low_stim	34.84	Strong	34.84	Strong	0.4	0.98	task-social/outcomerating/task-pain_scale.png	n/a	n/a	n/a	n/a	success	n/a	n/a	n/a
117.2	1.0	pain	cue	4	high_cue	n/a	n/a	n/a	n/a	n/a	n/a	n/a	task-social/cue/runtype-pain/sch/h036.png	n/a	n/a	n/a	n/a	n/a	n/a	n/a	n/a
119.31	1.92	pain	expectrating	4	high_cue	n/a	71.04	Very Strong	71.04	Very Strong	0.35	1.57	task-social/cue/runtype-pain/sch/h036.png	n/a	n/a	n/a	n/a	n/a	n/a	n/a	n/a
130.85	12.360000000000014	pain	stimulus	4	high_cue	med_stim	n/a	n/a	n/a	n/a	n/a	n/a	n/a	130.85	134.61	139.61	143.22	success	n/a	n/a	n/a
145.62	2.68	pain	outcomerating	4	high_cue	med_stim	38.16	Strong	38.16	Strong	0.35	1.57	task-social/outcomerating/task-pain_scale.png	n/a	n/a	n/a	n/a	success	n/a	n/a	n/a
150.52	0.98	pain	cue	5	high_cue	n/a	n/a	n/a	n/a	n/a	n/a	n/a	task-social/cue/runtype-pain/sch/h031.png	n/a	n/a	n/a	n/a	n/a	n/a	n/a	n/a
152.72	2.39	pain	expectrating	5	high_cue	n/a	94.67	Very Strong	94.67	Very Strong	0.62	1.78	task-social/cue/runtype-pain/sch/h031.png	n/a	n/a	n/a	n/a	n/a	n/a	n/a	n/a
168.95	12.820000000000022	pain	stimulus	5	high_cue	high_stim	n/a	n/a	n/a	n/a	n/a	n/a	n/a	168.95	172.96	177.96	181.77	success	n/a	n/a	n/a
179.61	2.93	pain	outcomerating	5	high_cue	high_stim	97.66	Very Strong	97.66	Very Strong	0.62	1.78	task-social/outcomerating/task-pain_scale.png	n/a	n/a	n/a	n/a	success	n/a	n/a	n/a
185.11	1.0	pain	cue	6	low_cue	n/a	n/a	n/a	n/a	n/a	n/a	n/a	task-social/cue/runtype-pain/scl/l053.png	n/a	n/a	n/a	n/a	n/a	n/a	n/a	n/a
187.11	1.83	pain	expectrating	6	low_cue	n/a	48.42	Strong	48.42	Strong	0.52	1.32	task-social/cue/runtype-pain/scl/l053.png	n/a	n/a	n/a	n/a	n/a	n/a	n/a	n/a
193.64	12.820000000000022	pain	stimulus	6	low_cue	high_stim	n/a	n/a	n/a	n/a	n/a	n/a	n/a	193.64	197.65	202.65	206.46	success	n/a	n/a	n/a
204.32	3.07	pain	outcomerating	6	low_cue	high_stim	78.64	Very Strong	78.64	Very Strong	0.52	1.32	task-social/outcomerating/task-pain_scale.png	n/a	n/a	n/a	n/a	success	n/a	n/a	n/a
213.21	1.0	pain	cue	7	low_cue	n/a	n/a	n/a	n/a	n/a	n/a	n/a	task-social/cue/runtype-pain/scl/l026.png	n/a	n/a	n/a	n/a	n/a	n/a	n/a	n/a
216.51	1.48	pain	expectrating	7	low_cue	n/a	37.79	Strong	37.79	Strong	0.12	1.37	task-social/cue/runtype-pain/scl/l026.png	n/a	n/a	n/a	n/a	n/a	n/a	n/a	n/a
223.04	11.909999999999997	pain	stimulus	7	low_cue	low_stim	n/a	n/a	n/a	n/a	n/a	n/a	n/a	223.04	226.54	231.54	234.94	success	n/a	n/a	n/a
238.12	1.45	pain	outcomerating	7	low_cue	low_stim	16.9	Moderate	16.9	Moderate	0.12	1.37	task-social/outcomerating/task-pain_scale.png	n/a	n/a	n/a	n/a	success	n/a	n/a	n/a
244.3	1.0	pain	cue	8	high_cue	n/a	n/a	n/a	n/a	n/a	n/a	n/a	task-social/cue/runtype-pain/sch/h003.png	n/a	n/a	n/a	n/a	n/a	n/a	n/a	n/a
247.32	1.64	pain	expectrating	8	high_cue	n/a	81.38	Very Strong	81.38	Very Strong	0.23	1.41	task-social/cue/runtype-pain/sch/h003.png	n/a	n/a	n/a	n/a	n/a	n/a	n/a	n/a
252.04	12.820000000000022	pain	stimulus	8	high_cue	high_stim	n/a	n/a	n/a	n/a	n/a	n/a	n/a	252.04	256.05	261.05	264.86	success	n/a	n/a	n/a
263.01	3.57	pain	outcomerating	8	high_cue	high_stim	77.08	Very Strong	77.08	Very Strong	0.23	1.41	task-social/outcomerating/task-pain_scale.png	n/a	n/a	n/a	n/a	success	n/a	n/a	n/a
270.41	1.0	pain	cue	9	high_cue	n/a	n/a	n/a	n/a	n/a	n/a	n/a	task-social/cue/runtype-pain/sch/h016.png	n/a	n/a	n/a	n/a	n/a	n/a	n/a	n/a
272.41	2.3	pain	expectrating	9	high_cue	n/a	88.31	Very Strong	88.31	Very Strong	0.38	1.92	task-social/cue/runtype-pain/sch/h016.png	n/a	n/a	n/a	n/a	n/a	n/a	n/a	n/a
279.73	11.899999999999977	pain	stimulus	9	high_cue	low_stim	n/a	n/a	n/a	n/a	n/a	n/a	n/a	279.73	283.23	288.23	291.63	success	n/a	n/a	n/a
298.61	3.54	pain	outcomerating	9	high_cue	low_stim	16.68	Moderate	16.68	Moderate	0.38	1.92	task-social/outcomerating/task-pain_scale.png	n/a	n/a	n/a	n/a	success	n/a	n/a	n/a
304.11	1.0	pain	cue	10	low_cue	n/a	n/a	n/a	n/a	n/a	n/a	n/a	task-social/cue/runtype-pain/scl/l005.png	n/a	n/a	n/a	n/a	n/a	n/a	n/a	n/a
306.31	1.87	pain	expectrating	10	low_cue	n/a	29.23	Strong	29.23	Strong	0.52	1.35	task-social/cue/runtype-pain/scl/l005.png	n/a	n/a	n/a	n/a	n/a	n/a	n/a	n/a
311.64	12.360000000000014	pain	stimulus	10	low_cue	med_stim	n/a	n/a	n/a	n/a	n/a	n/a	n/a	311.64	315.4	320.4	324.01	success	n/a	n/a	n/a
329.82	1.9	pain	outcomerating	10	low_cue	med_stim	40.2	Strong	40.2	Strong	0.52	1.35	task-social/outcomerating/task-pain_scale.png	n/a	n/a	n/a	n/a	success	n/a	n/a	n/a
338.1	1.0	pain	cue	11	low_cue	n/a	n/a	n/a	n/a	n/a	n/a	n/a	task-social/cue/runtype-pain/scl/l030.png	n/a	n/a	n/a	n/a	n/a	n/a	n/a	n/a
340.32	1.54	pain	expectrating	11	low_cue	n/a	22.11	Moderate	22.11	Moderate	0.32	1.22	task-social/cue/runtype-pain/scl/l030.png	n/a	n/a	n/a	n/a	n/a	n/a	n/a	n/a
350.23	11.909999999999968	pain	stimulus	11	low_cue	low_stim	n/a	n/a	n/a	n/a	n/a	n/a	n/a	350.23	353.73	358.73	362.13	success	n/a	n/a	n/a
363.91	2.72	pain	outcomerating	11	low_cue	low_stim	20.99	Moderate	20.99	Moderate	0.32	1.22	task-social/outcomerating/task-pain_scale.png	n/a	n/a	n/a	n/a	success	n/a	n/a	n/a
376.1	1.0	pain	cue	12	high_cue	n/a	n/a	n/a	n/a	n/a	n/a	n/a	task-social/cue/runtype-pain/sch/h024.png	n/a	n/a	n/a	n/a	n/a	n/a	n/a	n/a
378.92	2.03	pain	expectrating	12	high_cue	n/a	81.71	Very Strong	81.71	Very Strong	0.45	1.58	task-social/cue/runtype-pain/sch/h024.png	n/a	n/a	n/a	n/a	n/a	n/a	n/a	n/a
385.43	12.370000000000005	pain	stimulus	12	high_cue	med_stim	n/a	n/a	n/a	n/a	n/a	n/a	n/a	385.43	389.19	394.19	397.8	success	n/a	n/a	n/a
395.01	n/a	pain	outcomerating	12	high_cue	med_stim	n/a	n/a	44.14	Strong	0.45	1.58	task-social/outcomerating/task-pain_scale.png	n/a	n/a	n/a	n/a	success	n/a	n/a	n/a
