onset	duration	trial_type	response_x	response_y	situation	context	modality	stim_file
7.809	15.335	narrative_presentation	n/a	n/a	Deliverance	prison	Text	task-narratives/Narrative8Situation1.mp3
23.144	n/a	rating_feeling	n/a	n/a	Deliverance	prison	Text	task-narratives/Narrative8Situation1.mp3
n/a	n/a	feeling_mouse_trajectory	n/a	n/a	Deliverance	prison	Text	task-narratives/Narrative8Situation1.mp3
27.182	3.7	rating_expectation	833	505	Deliverance	prison	Text	task-narratives/Narrative8Situation1.mp3
29.299	1.583	expectation_mouse_trajectory	833	505	Deliverance	prison	Text	task-narratives/Narrative8Situation1.mp3
34.382	8.779	narrative_presentation	n/a	n/a	Abduction	town	Text	task-narratives/Narrative8Situation2.mp3
43.16	2.151	rating_feeling	n/a	n/a	Abduction	town	Text	task-narratives/Narrative8Situation2.mp3
43.577	1.734	feeling_mouse_trajectory	n/a	n/a	Abduction	town	Text	task-narratives/Narrative8Situation2.mp3
47.184	3.218	rating_expectation	833	505	Abduction	town	Text	task-narratives/Narrative8Situation2.mp3
47.901	2.502	expectation_mouse_trajectory	833	505	Abduction	town	Text	task-narratives/Narrative8Situation2.mp3
55.256	22.153	narrative_presentation	n/a	n/a	Pursuit	prison	Text	task-narratives/Narrative8Situation3.mp3
77.41	3.605	rating_feeling	n/a	n/a	Pursuit	prison	Text	task-narratives/Narrative8Situation3.mp3
77.443	3.571	feeling_mouse_trajectory	n/a	n/a	Pursuit	prison	Text	task-narratives/Narrative8Situation3.mp3
81.451	2.12	rating_expectation	833	505	Pursuit	prison	Text	task-narratives/Narrative8Situation3.mp3
82.318	1.253	expectation_mouse_trajectory	833	505	Pursuit	prison	Text	task-narratives/Narrative8Situation3.mp3
88.536	12.614	narrative_presentation	n/a	n/a	Obtaining	city	Text	task-narratives/Narrative8Situation4.mp3
101.149	3.768	rating_feeling	n/a	n/a	Obtaining	city	Text	task-narratives/Narrative8Situation4.mp3
101.666	3.252	feeling_mouse_trajectory	n/a	n/a	Obtaining	city	Text	task-narratives/Narrative8Situation4.mp3
105.173	3.917	rating_expectation	833	505	Obtaining	city	Text	task-narratives/Narrative8Situation4.mp3
106.54	2.55	expectation_mouse_trajectory	833	505	Obtaining	city	Text	task-narratives/Narrative8Situation4.mp3
111.256	6.62	narrative_presentation	n/a	n/a	Recovery of a lost one	park	Text	task-narratives/Narrative8Situation5.mp3
117.876	3.983	rating_feeling	n/a	n/a	Recovery of a lost one	park	Text	task-narratives/Narrative8Situation5.mp3
118.526	3.333	feeling_mouse_trajectory	n/a	n/a	Recovery of a lost one	park	Text	task-narratives/Narrative8Situation5.mp3
121.902	2.721	rating_expectation	833	505	Recovery of a lost one	park	Text	task-narratives/Narrative8Situation5.mp3
121.985	2.637	expectation_mouse_trajectory	833	505	Recovery of a lost one	park	Text	task-narratives/Narrative8Situation5.mp3
128.002	5.972	narrative_presentation	n/a	n/a	Rivalry of kin	city	Text	task-narratives/Narrative8Situation6.mp3
133.974	2.484	rating_feeling	n/a	n/a	Rivalry of kin	city	Text	task-narratives/Narrative8Situation6.mp3
134.524	1.934	feeling_mouse_trajectory	n/a	n/a	Rivalry of kin	city	Text	task-narratives/Narrative8Situation6.mp3
138.002	2.368	rating_expectation	833	505	Rivalry of kin	city	Text	task-narratives/Narrative8Situation6.mp3
138.702	1.668	expectation_mouse_trajectory	833	505	Rivalry of kin	city	Text	task-narratives/Narrative8Situation6.mp3
145.058	10.776	narrative_presentation	n/a	n/a	Involuntary crimes of love	hospital	Text	task-narratives/Narrative8Situation7.mp3
155.834	2.791	rating_feeling	n/a	n/a	Involuntary crimes of love	hospital	Text	task-narratives/Narrative8Situation7.mp3
156.001	2.625	feeling_mouse_trajectory	n/a	n/a	Involuntary crimes of love	hospital	Text	task-narratives/Narrative8Situation7.mp3
159.866	2.49	rating_expectation	833	505	Involuntary crimes of love	hospital	Text	task-narratives/Narrative8Situation7.mp3
160.4	1.956	expectation_mouse_trajectory	833	505	Involuntary crimes of love	hospital	Text	task-narratives/Narrative8Situation7.mp3
166.932	11.277	narrative_presentation	n/a	n/a	Rivalry of superior versus inferior	beach	Text	task-narratives/Narrative8Situation8.mp3
178.21	2.901	rating_feeling	n/a	n/a	Rivalry of superior versus inferior	beach	Text	task-narratives/Narrative8Situation8.mp3
178.626	2.485	feeling_mouse_trajectory	n/a	n/a	Rivalry of superior versus inferior	beach	Text	task-narratives/Narrative8Situation8.mp3
182.235	2.201	rating_expectation	833	505	Rivalry of superior versus inferior	beach	Text	task-narratives/Narrative8Situation8.mp3
182.302	2.134	expectation_mouse_trajectory	833	505	Rivalry of superior versus inferior	beach	Text	task-narratives/Narrative8Situation8.mp3
189.291	10.118	narrative_presentation	n/a	n/a	Ambition	hospital	Text	task-narratives/Narrative8Situation9.mp3
199.409	3.975	rating_feeling	n/a	n/a	Ambition	hospital	Text	task-narratives/Narrative8Situation9.mp3
200.443	2.942	feeling_mouse_trajectory	n/a	n/a	Ambition	hospital	Text	task-narratives/Narrative8Situation9.mp3
203.45	2.19	rating_expectation	833	505	Ambition	hospital	Text	task-narratives/Narrative8Situation9.mp3
203.967	1.674	expectation_mouse_trajectory	833	505	Ambition	hospital	Text	task-narratives/Narrative8Situation9.mp3
209.532	54.28	narrative_presentation	n/a	n/a	Deliverance	prison	Text	task-narratives/Narrative7Situation1.mp3
263.811	2.501	rating_feeling	n/a	n/a	Deliverance	prison	Text	task-narratives/Narrative7Situation1.mp3
264.445	1.868	feeling_mouse_trajectory	n/a	n/a	Deliverance	prison	Text	task-narratives/Narrative7Situation1.mp3
267.835	1.818	rating_expectation	833	505	Deliverance	prison	Text	task-narratives/Narrative7Situation1.mp3
268.152	1.501	expectation_mouse_trajectory	833	505	Deliverance	prison	Text	task-narratives/Narrative7Situation1.mp3
274.89	5.943	narrative_presentation	n/a	n/a	Abduction	town	Text	task-narratives/Narrative7Situation2.mp3
280.833	3.983	rating_feeling	n/a	n/a	Abduction	town	Text	task-narratives/Narrative7Situation2.mp3
284.533	0.283	feeling_mouse_trajectory	n/a	n/a	Abduction	town	Text	task-narratives/Narrative7Situation2.mp3
284.859	1.584	rating_expectation	833	505	Abduction	town	Text	task-narratives/Narrative7Situation2.mp3
284.892	1.551	expectation_mouse_trajectory	833	505	Abduction	town	Text	task-narratives/Narrative7Situation2.mp3
296.904	7.438	narrative_presentation	n/a	n/a	Pursuit	prison	Text	task-narratives/Narrative7Situation3.mp3
304.343	2.853	rating_feeling	n/a	n/a	Pursuit	prison	Text	task-narratives/Narrative7Situation3.mp3
305.676	1.519	feeling_mouse_trajectory	n/a	n/a	Pursuit	prison	Text	task-narratives/Narrative7Situation3.mp3
308.368	1.901	rating_expectation	833	505	Pursuit	prison	Text	task-narratives/Narrative7Situation3.mp3
308.685	1.585	expectation_mouse_trajectory	833	505	Pursuit	prison	Text	task-narratives/Narrative7Situation3.mp3
315.422	11.479	narrative_presentation	n/a	n/a	Obtaining	city	Text	task-narratives/Narrative7Situation4.mp3
326.902	3.752	rating_feeling	n/a	n/a	Obtaining	city	Text	task-narratives/Narrative7Situation4.mp3
327.352	3.302	feeling_mouse_trajectory	n/a	n/a	Obtaining	city	Text	task-narratives/Narrative7Situation4.mp3
330.926	2.46	rating_expectation	833	505	Obtaining	city	Text	task-narratives/Narrative7Situation4.mp3
331.593	1.793	expectation_mouse_trajectory	833	505	Obtaining	city	Text	task-narratives/Narrative7Situation4.mp3
339.982	7.978	narrative_presentation	n/a	n/a	Recovery of a lost one	park	Text	task-narratives/Narrative7Situation5.mp3
347.96	2.97	rating_feeling	n/a	n/a	Recovery of a lost one	park	Text	task-narratives/Narrative7Situation5.mp3
348.493	2.436	feeling_mouse_trajectory	n/a	n/a	Recovery of a lost one	park	Text	task-narratives/Narrative7Situation5.mp3
351.986	2.702	rating_expectation	833	505	Recovery of a lost one	park	Text	task-narratives/Narrative7Situation5.mp3
352.586	2.102	expectation_mouse_trajectory	833	505	Recovery of a lost one	park	Text	task-narratives/Narrative7Situation5.mp3
359.039	8.78	narrative_presentation	n/a	n/a	Rivalry of kin	city	Text	task-narratives/Narrative7Situation6.mp3
367.819	3.101	rating_feeling	n/a	n/a	Rivalry of kin	city	Text	task-narratives/Narrative7Situation6.mp3
368.136	2.785	feeling_mouse_trajectory	n/a	n/a	Rivalry of kin	city	Text	task-narratives/Narrative7Situation6.mp3
371.842	1.734	rating_expectation	833	505	Rivalry of kin	city	Text	task-narratives/Narrative7Situation6.mp3
372.375	1.201	expectation_mouse_trajectory	833	505	Rivalry of kin	city	Text	task-narratives/Narrative7Situation6.mp3
380.899	16.648	narrative_presentation	n/a	n/a	Involuntary crimes of love	hospital	Text	task-narratives/Narrative7Situation7.mp3
397.547	2.818	rating_feeling	n/a	n/a	Involuntary crimes of love	hospital	Text	task-narratives/Narrative7Situation7.mp3
398.114	2.251	feeling_mouse_trajectory	n/a	n/a	Involuntary crimes of love	hospital	Text	task-narratives/Narrative7Situation7.mp3
401.57	2.384	rating_expectation	833	505	Involuntary crimes of love	hospital	Text	task-narratives/Narrative7Situation7.mp3
402.12	1.834	expectation_mouse_trajectory	833	505	Involuntary crimes of love	hospital	Text	task-narratives/Narrative7Situation7.mp3
407.625	8.775	narrative_presentation	n/a	n/a	Rivalry of superior versus inferior	beach	Text	task-narratives/Narrative7Situation8.mp3
416.4	2.268	rating_feeling	n/a	n/a	Rivalry of superior versus inferior	beach	Text	task-narratives/Narrative7Situation8.mp3
416.916	1.751	feeling_mouse_trajectory	n/a	n/a	Rivalry of superior versus inferior	beach	Text	task-narratives/Narrative7Situation8.mp3
420.428	1.793	rating_expectation	833	505	Rivalry of superior versus inferior	beach	Text	task-narratives/Narrative7Situation8.mp3
420.461	1.759	expectation_mouse_trajectory	833	505	Rivalry of superior versus inferior	beach	Text	task-narratives/Narrative7Situation8.mp3
426.482	7.988	narrative_presentation	n/a	n/a	Ambition	hospital	Text	task-narratives/Narrative7Situation9.mp3
434.47	3.088	rating_feeling	n/a	n/a	Ambition	hospital	Text	task-narratives/Narrative7Situation9.mp3
434.854	2.704	feeling_mouse_trajectory	n/a	n/a	Ambition	hospital	Text	task-narratives/Narrative7Situation9.mp3
438.503	2.703	rating_expectation	833	505	Ambition	hospital	Text	task-narratives/Narrative7Situation9.mp3
438.92	2.286	expectation_mouse_trajectory	833	505	Ambition	hospital	Text	task-narratives/Narrative7Situation9.mp3
