onset	duration	trial_type	response_x	response_y	situation	context	modality	stim_file
11.814	22.116	narrative_presentation	n/a	n/a	An enemy loved	forest	Text	task-narratives/Narrative2Situation1.txt
33.93	3.97	rating_feeling	962.0	533.0	An enemy loved	forest	Text	n/a
34.496	3.404	feeling_mouse_trajectory	962.0	533.0	An enemy loved	forest	Text	n/a
37.994	0.019	rating_expectation	960.0	707.0	An enemy loved	forest	Text	n/a
38.044	-0.031	expectation_mouse_trajectory	960.0	707.0	An enemy loved	forest	Text	n/a
44.059	36.186	narrative_presentation	n/a	n/a	Enmity of kin	forest	Text	task-narratives/Narrative2Situation2.txt
80.245	3.853	rating_feeling	761.0	568.0	Enmity of kin	forest	Text	n/a
81.662	2.436	feeling_mouse_trajectory	761.0	568.0	Enmity of kin	forest	Text	n/a
84.261	2.435	rating_expectation	700.0	551.0	Enmity of kin	forest	Text	n/a
84.777	1.918	expectation_mouse_trajectory	700.0	551.0	Enmity of kin	forest	Text	n/a
92.327	9.372	narrative_presentation	n/a	n/a	Necessity of sacrificing loved ones	forest	Text	task-narratives/Narrative2Situation3.txt
101.699	2.635	rating_feeling	794.0	604.0	Necessity of sacrificing loved ones	forest	Text	n/a
102.282	2.051	feeling_mouse_trajectory	794.0	604.0	Necessity of sacrificing loved ones	forest	Text	n/a
105.717	3.45	rating_expectation	745.0	608.0	Necessity of sacrificing loved ones	forest	Text	n/a
105.95	3.217	expectation_mouse_trajectory	745.0	608.0	Necessity of sacrificing loved ones	forest	Text	n/a
112.802	18.427	narrative_presentation	n/a	n/a	Murderous adultury	town	Text	task-narratives/Narrative2Situation4.txt
131.228	3.985	rating_feeling	721.0	569.0	Murderous adultury	town	Text	n/a
132.112	3.102	feeling_mouse_trajectory	721.0	569.0	Murderous adultury	town	Text	n/a
135.247	0.017	rating_expectation	960.0	707.0	Murderous adultury	town	Text	n/a
135.297	-0.033	expectation_mouse_trajectory	960.0	707.0	Murderous adultury	town	Text	n/a
142.313	16.741	narrative_presentation	n/a	n/a	Daring Enterprise	town	Text	task-narratives/Narrative2Situation5.txt
159.054	3.983	rating_feeling	822.0	503.0	Daring Enterprise	town	Text	n/a
161.937	1.1	feeling_mouse_trajectory	822.0	503.0	Daring Enterprise	town	Text	n/a
163.077	2.372	rating_expectation	695.0	539.0	Daring Enterprise	town	Text	n/a
163.144	2.306	expectation_mouse_trajectory	695.0	539.0	Daring Enterprise	town	Text	n/a
169.14	5.689	narrative_presentation	n/a	n/a	Ambition	town	Text	task-narratives/Narrative2Situation6.txt
174.828	2.168	rating_feeling	766.0	606.0	Ambition	town	Text	n/a
175.312	1.685	feeling_mouse_trajectory	766.0	606.0	Ambition	town	Text	n/a
178.845	2.334	rating_expectation	747.0	546.0	Ambition	town	Text	n/a
179.245	1.934	expectation_mouse_trajectory	747.0	546.0	Ambition	town	Text	n/a
183.912	19.092	narrative_presentation	n/a	n/a	Mistaken jealousy	hospital	Text	task-narratives/Narrative2Situation7.txt
203.004	2.324	rating_feeling	847.0	521.0	Mistaken jealousy	hospital	Text	n/a
203.904	1.424	feeling_mouse_trajectory	847.0	521.0	Mistaken jealousy	hospital	Text	n/a
207.023	2.806	rating_expectation	715.0	569.0	Mistaken jealousy	hospital	Text	n/a
207.439	2.389	expectation_mouse_trajectory	715.0	569.0	Mistaken jealousy	hospital	Text	n/a
214.09	18.093	narrative_presentation	n/a	n/a	Discovery of dishonour of loved one	hospital	Text	task-narratives/Narrative2Situation8.txt
232.183	3.983	rating_feeling	905.0	640.0	Discovery of dishonour of loved one	hospital	Text	n/a
234.716	1.45	feeling_mouse_trajectory	905.0	640.0	Discovery of dishonour of loved one	hospital	Text	n/a
236.2	1.434	rating_expectation	741.0	644.0	Discovery of dishonour of loved one	hospital	Text	n/a
236.233	1.401	expectation_mouse_trajectory	741.0	644.0	Discovery of dishonour of loved one	hospital	Text	n/a
243.268	15.411	narrative_presentation	n/a	n/a	Self-sacrifice for an ideal	hospital	Text	task-narratives/Narrative2Situation9.txt
258.679	2.903	rating_feeling	1220.0	589.0	Self-sacrifice for an ideal	hospital	Text	n/a
259.812	1.77	feeling_mouse_trajectory	1220.0	589.0	Self-sacrifice for an ideal	hospital	Text	n/a
262.695	1.785	rating_expectation	967.0	595.0	Self-sacrifice for an ideal	hospital	Text	n/a
263.512	0.968	expectation_mouse_trajectory	967.0	595.0	Self-sacrifice for an ideal	hospital	Text	n/a
269.761	10.389	narrative_presentation	n/a	n/a	Supplication	hospital	Text	task-narratives/Narrative1Situation1.txt
280.15	3.752	rating_feeling	951.0	584.0	Supplication	hospital	Text	n/a
280.934	2.968	feeling_mouse_trajectory	951.0	584.0	Supplication	hospital	Text	n/a
284.168	3.867	rating_expectation	949.0	680.0	Supplication	hospital	Text	n/a
287.652	0.383	expectation_mouse_trajectory	949.0	680.0	Supplication	hospital	Text	n/a
290.236	14.41	narrative_presentation	n/a	n/a	Madness	hospital	Text	task-narratives/Narrative1Situation2.txt
304.646	3.603	rating_feeling	870.0	575.0	Madness	hospital	Text	n/a
304.696	3.553	feeling_mouse_trajectory	870.0	575.0	Madness	hospital	Text	n/a
308.662	3.735	rating_expectation	903.0	567.0	Madness	hospital	Text	n/a
309.179	3.218	expectation_mouse_trajectory	903.0	567.0	Madness	hospital	Text	n/a
313.728	20.777	narrative_presentation	n/a	n/a	Murderous adultury	hospital	Text	task-narratives/Narrative1Situation3.txt
334.505	3.467	rating_feeling	853.0	638.0	Murderous adultury	hospital	Text	n/a
336.738	1.233	feeling_mouse_trajectory	853.0	638.0	Murderous adultury	hospital	Text	n/a
338.529	0.184	rating_expectation	960.0	707.0	Murderous adultury	hospital	Text	n/a
338.745	-0.033	expectation_mouse_trajectory	960.0	707.0	Murderous adultury	hospital	Text	n/a
345.623	18.426	narrative_presentation	n/a	n/a	Recovery of a lost one	town	Text	task-narratives/Narrative1Situation4.txt
364.049	3.7	rating_feeling	793.0	646.0	Recovery of a lost one	town	Text	n/a
366.132	1.617	feeling_mouse_trajectory	793.0	646.0	Recovery of a lost one	town	Text	n/a
368.066	0.15	rating_expectation	960.0	707.0	Recovery of a lost one	town	Text	n/a
368.25	-0.033	expectation_mouse_trajectory	960.0	707.0	Recovery of a lost one	town	Text	n/a
375.134	11.057	narrative_presentation	n/a	n/a	Slaying of kin unrecognized	town	Text	task-narratives/Narrative1Situation5.txt
386.191	2.389	rating_feeling	769.0	651.0	Slaying of kin unrecognized	town	Text	n/a
387.158	1.422	feeling_mouse_trajectory	769.0	651.0	Slaying of kin unrecognized	town	Text	n/a
390.212	2.388	rating_expectation	842.0	619.0	Slaying of kin unrecognized	town	Text	n/a
390.796	1.804	expectation_mouse_trajectory	842.0	619.0	Slaying of kin unrecognized	town	Text	n/a
395.275	25.128	narrative_presentation	n/a	n/a	An enemy loved	town	Text	task-narratives/Narrative1Situation6.txt
420.403	n/a	rating_feeling	n/a	n/a	An enemy loved	town	Text	n/a
424.429	2.084	rating_expectation	872.0	601.0	An enemy loved	town	Text	n/a
424.679	1.834	expectation_mouse_trajectory	872.0	601.0	An enemy loved	town	Text	n/a
431.506	22.11	narrative_presentation	n/a	n/a	Fatal imprudence	prison	Text	task-narratives/Narrative1Situation7.txt
453.616	2.917	rating_feeling	961.0	707.0	Fatal imprudence	prison	Text	n/a
456.533	0.0	feeling_mouse_trajectory	961.0	707.0	Fatal imprudence	prison	Text	n/a
457.634	n/a	rating_expectation	n/a	n/a	Fatal imprudence	prison	Text	n/a
462.701	12.39	narrative_presentation	n/a	n/a	Discovery of dishonour of loved one	prison	Text	task-narratives/Narrative1Situation8.txt
475.091	n/a	rating_feeling	n/a	n/a	Discovery of dishonour of loved one	prison	Text	n/a
479.113	3.967	rating_expectation	800.0	576.0	Discovery of dishonour of loved one	prison	Text	n/a
481.263	1.817	expectation_mouse_trajectory	800.0	576.0	Discovery of dishonour of loved one	prison	Text	n/a
491.179	29.478	narrative_presentation	n/a	n/a	Abduction	prison	Text	task-narratives/Narrative1Situation9.txt
520.657	1.506	rating_feeling	720.0	522.0	Abduction	prison	Text	n/a
521.14	1.022	feeling_mouse_trajectory	720.0	522.0	Abduction	prison	Text	n/a
524.681	1.504	rating_expectation	766.0	555.0	Abduction	prison	Text	n/a
525.381	0.804	expectation_mouse_trajectory	766.0	555.0	Abduction	prison	Text	n/a
