onset	duration	subtask_type	question	event_type	participant_response	normative_response	response_accuracy	stim_file	trial_index
0.074	2.034	tomspunt	smiling?	block_question_presentation	n/a	n/a	n/a	n/a	0
0.074	0.3	tomspunt	smiling?	block_question_presentation	n/a	n/a	n/a	n/a	1
0.074	0.3	tomspunt	smiling?	block_question_presentation	n/a	n/a	n/a	n/a	2
0.074	0.3	tomspunt	smiling?	block_question_presentation	n/a	n/a	n/a	n/a	3
0.074	0.3	tomspunt	smiling?	block_question_presentation	n/a	n/a	n/a	n/a	4
0.074	0.3	tomspunt	smiling?	block_question_presentation	n/a	n/a	n/a	n/a	5
0.074	0.3	tomspunt	smiling?	block_question_presentation	n/a	n/a	n/a	n/a	6
0.074	0.3	tomspunt	smiling?	block_question_presentation	n/a	n/a	n/a	n/a	7
5.018	0.947	tomspunt	smiling?	how_face	yes	yes	correct	task-tomspunt/F_759.jpg	0
6.269	0.719	tomspunt	smiling?	how_face	no	no	correct	task-tomspunt/F_412.jpg	1
7.302	0.919	tomspunt	smiling?	how_face	yes	yes	correct	task-tomspunt/F_593.jpg	2
8.536	1.495	tomspunt	smiling?	how_face	no	no	correct	task-tomspunt/F_712.jpg	3
10.337	0.838	tomspunt	smiling?	how_face	yes	yes	correct	task-tomspunt/F_695.jpg	4
11.487	0.594	tomspunt	smiling?	how_face	yes	yes	correct	task-tomspunt/F_139.jpg	5
12.387	0.56	tomspunt	smiling?	how_face	yes	yes	correct	task-tomspunt/F_083.jpg	6
13.254	0.642	tomspunt	smiling?	how_face	no	no	correct	task-tomspunt/F_758.jpg	7
19.114	2.101	tomspunt	admiring?	block_question_presentation	n/a	n/a	n/a	n/a	8
19.114	0.3	tomspunt	admiring?	block_question_presentation	n/a	n/a	n/a	n/a	9
19.114	0.3	tomspunt	admiring?	block_question_presentation	n/a	n/a	n/a	n/a	10
19.114	0.3	tomspunt	admiring?	block_question_presentation	n/a	n/a	n/a	n/a	11
19.114	0.3	tomspunt	admiring?	block_question_presentation	n/a	n/a	n/a	n/a	12
19.114	0.3	tomspunt	admiring?	block_question_presentation	n/a	n/a	n/a	n/a	13
19.114	0.3	tomspunt	admiring?	block_question_presentation	n/a	n/a	n/a	n/a	14
19.114	0.3	tomspunt	admiring?	block_question_presentation	n/a	n/a	n/a	n/a	15
24.125	0.936	tomspunt	admiring?	why_face	yes	yes	correct	task-tomspunt/F_593.jpg	8
25.376	0.855	tomspunt	admiring?	why_face	no	no	correct	task-tomspunt/F_129.jpg	9
26.543	1.021	tomspunt	admiring?	why_face	yes	yes	correct	task-tomspunt/F_759.jpg	10
27.877	0.735	tomspunt	admiring?	why_face	no	no	correct	task-tomspunt/F_692.jpg	11
28.927	0.751	tomspunt	admiring?	why_face	yes	yes	correct	task-tomspunt/F_779.jpg	12
29.994	0.785	tomspunt	admiring?	why_face	yes	yes	correct	task-tomspunt/F_590.jpg	13
31.094	0.803	tomspunt	admiring?	why_face	yes	yes	correct	task-tomspunt/F_648.jpg	14
32.212	0.619	tomspunt	admiring?	why_face	no	no	correct	task-tomspunt/F_110.jpg	15
38.171	2.101	tomspunt	competing?	block_question_presentation	n/a	n/a	n/a	n/a	16
38.171	0.3	tomspunt	competing?	block_question_presentation	n/a	n/a	n/a	n/a	17
38.171	0.3	tomspunt	competing?	block_question_presentation	n/a	n/a	n/a	n/a	18
38.171	0.3	tomspunt	competing?	block_question_presentation	n/a	n/a	n/a	n/a	19
38.171	0.3	tomspunt	competing?	block_question_presentation	n/a	n/a	n/a	n/a	20
38.171	0.3	tomspunt	competing?	block_question_presentation	n/a	n/a	n/a	n/a	21
38.171	0.3	tomspunt	competing?	block_question_presentation	n/a	n/a	n/a	n/a	22
38.171	0.3	tomspunt	competing?	block_question_presentation	n/a	n/a	n/a	n/a	23
43.182	0.752	tomspunt	competing?	why_hand	yes	yes	correct	task-tomspunt/H_261.jpg	16
44.249	1.286	tomspunt	competing?	why_hand	no	yes	incorrect	task-tomspunt/H_170.jpg	17
45.85	0.902	tomspunt	competing?	why_hand	no	no	correct	task-tomspunt/H_483.jpg	18
47.067	0.985	tomspunt	competing?	why_hand	yes	yes	correct	task-tomspunt/H_132.jpg	19
48.368	1.119	tomspunt	competing?	why_hand	yes	yes	correct	task-tomspunt/H_136.jpg	20
49.801	0.913	tomspunt	competing?	why_hand	yes	yes	correct	task-tomspunt/H_003.jpg	21
51.019	0.912	tomspunt	competing?	why_hand	no	no	correct	task-tomspunt/H_126.jpg	22
52.236	1.145	tomspunt	competing?	why_hand	no	no	correct	task-tomspunt/H_502.jpg	23
60.663	2.101	tomspunt	reaching?	block_question_presentation	n/a	n/a	n/a	n/a	24
60.663	0.3	tomspunt	reaching?	block_question_presentation	n/a	n/a	n/a	n/a	25
60.663	0.3	tomspunt	reaching?	block_question_presentation	n/a	n/a	n/a	n/a	26
60.663	0.3	tomspunt	reaching?	block_question_presentation	n/a	n/a	n/a	n/a	27
60.663	0.3	tomspunt	reaching?	block_question_presentation	n/a	n/a	n/a	n/a	28
60.663	0.3	tomspunt	reaching?	block_question_presentation	n/a	n/a	n/a	n/a	29
60.663	0.3	tomspunt	reaching?	block_question_presentation	n/a	n/a	n/a	n/a	30
60.663	0.3	tomspunt	reaching?	block_question_presentation	n/a	n/a	n/a	n/a	31
65.674	1.306	tomspunt	reaching?	how_hand	yes	yes	correct	task-tomspunt/H_003.jpg	24
67.291	0.855	tomspunt	reaching?	how_hand	yes	yes	correct	task-tomspunt/H_364.jpg	25
68.458	0.952	tomspunt	reaching?	how_hand	no	no	correct	task-tomspunt/H_532.jpg	26
69.726	0.888	tomspunt	reaching?	how_hand	yes	yes	correct	task-tomspunt/H_006.jpg	27
70.926	1.354	tomspunt	reaching?	how_hand	no	no	correct	task-tomspunt/H_438.jpg	28
72.593	0.888	tomspunt	reaching?	how_hand	yes	yes	correct	task-tomspunt/H_007.jpg	29
73.794	n/a	tomspunt	reaching?	how_hand	n/a	yes	incorrect	task-tomspunt/H_474.jpg	30
75.828	1.003	tomspunt	reaching?	how_hand	no	no	correct	task-tomspunt/H_132.jpg	31
79.77	2.101	tomspunt	open mouth?	block_question_presentation	n/a	n/a	n/a	n/a	32
79.77	0.3	tomspunt	open mouth?	block_question_presentation	n/a	n/a	n/a	n/a	33
79.77	0.3	tomspunt	open mouth?	block_question_presentation	n/a	n/a	n/a	n/a	34
79.77	0.3	tomspunt	open mouth?	block_question_presentation	n/a	n/a	n/a	n/a	35
79.77	0.3	tomspunt	open mouth?	block_question_presentation	n/a	n/a	n/a	n/a	36
79.77	0.3	tomspunt	open mouth?	block_question_presentation	n/a	n/a	n/a	n/a	37
79.77	0.3	tomspunt	open mouth?	block_question_presentation	n/a	n/a	n/a	n/a	38
79.77	0.3	tomspunt	open mouth?	block_question_presentation	n/a	n/a	n/a	n/a	39
84.781	1.202	tomspunt	open mouth?	how_face	yes	yes	correct	task-tomspunt/F_403.jpg	32
86.298	0.785	tomspunt	open mouth?	how_face	no	no	correct	task-tomspunt/F_648.jpg	33
87.399	0.635	tomspunt	open mouth?	how_face	yes	yes	correct	task-tomspunt/F_776.jpg	34
88.349	0.685	tomspunt	open mouth?	how_face	no	no	correct	task-tomspunt/F_584.jpg	35
89.35	0.668	tomspunt	open mouth?	how_face	yes	yes	correct	task-tomspunt/F_844.jpg	36
90.333	0.818	tomspunt	open mouth?	how_face	yes	yes	correct	task-tomspunt/F_692.jpg	37
91.467	0.735	tomspunt	open mouth?	how_face	yes	yes	correct	task-tomspunt/F_086.jpg	38
92.517	1.002	tomspunt	open mouth?	how_face	no	no	correct	task-tomspunt/F_544.jpg	39
101.245	2.101	tomspunt	argument?	block_question_presentation	n/a	n/a	n/a	n/a	40
101.245	0.3	tomspunt	argument?	block_question_presentation	n/a	n/a	n/a	n/a	41
101.245	0.3	tomspunt	argument?	block_question_presentation	n/a	n/a	n/a	n/a	42
101.245	0.3	tomspunt	argument?	block_question_presentation	n/a	n/a	n/a	n/a	43
101.245	0.3	tomspunt	argument?	block_question_presentation	n/a	n/a	n/a	n/a	44
101.245	0.3	tomspunt	argument?	block_question_presentation	n/a	n/a	n/a	n/a	45
101.245	0.3	tomspunt	argument?	block_question_presentation	n/a	n/a	n/a	n/a	46
101.245	0.3	tomspunt	argument?	block_question_presentation	n/a	n/a	n/a	n/a	47
106.256	1.308	tomspunt	argument?	why_face	yes	yes	correct	task-tomspunt/F_403.jpg	40
107.873	0.935	tomspunt	argument?	why_face	no	no	correct	task-tomspunt/F_844.jpg	41
109.124	0.885	tomspunt	argument?	why_face	yes	yes	correct	task-tomspunt/F_712.jpg	42
110.324	1.04	tomspunt	argument?	why_face	yes	yes	correct	task-tomspunt/F_758.jpg	43
111.674	0.906	tomspunt	argument?	why_face	no	no	correct	task-tomspunt/F_433.jpg	44
112.892	1.555	tomspunt	argument?	why_face	yes	yes	correct	task-tomspunt/F_716.jpg	45
114.759	0.788	tomspunt	argument?	why_face	no	no	correct	task-tomspunt/F_139.jpg	46
115.859	1.371	tomspunt	argument?	why_face	yes	yes	correct	task-tomspunt/F_743.jpg	47
123.72	2.101	tomspunt	helping?	block_question_presentation	n/a	n/a	n/a	n/a	48
123.72	0.3	tomspunt	helping?	block_question_presentation	n/a	n/a	n/a	n/a	49
123.72	0.3	tomspunt	helping?	block_question_presentation	n/a	n/a	n/a	n/a	50
123.72	0.3	tomspunt	helping?	block_question_presentation	n/a	n/a	n/a	n/a	51
123.72	0.3	tomspunt	helping?	block_question_presentation	n/a	n/a	n/a	n/a	52
123.72	0.3	tomspunt	helping?	block_question_presentation	n/a	n/a	n/a	n/a	53
123.72	0.3	tomspunt	helping?	block_question_presentation	n/a	n/a	n/a	n/a	54
123.72	0.3	tomspunt	helping?	block_question_presentation	n/a	n/a	n/a	n/a	55
128.731	1.814	tomspunt	helping?	why_hand	yes	yes	correct	task-tomspunt/H_024.jpg	48
130.765	0.916	tomspunt	helping?	why_hand	yes	yes	correct	task-tomspunt/H_349.jpg	49
131.982	1.219	tomspunt	helping?	why_hand	no	yes	incorrect	task-tomspunt/H_077.jpg	50
133.516	1.152	tomspunt	helping?	why_hand	yes	yes	correct	task-tomspunt/H_474.jpg	51
134.983	1.102	tomspunt	helping?	why_hand	no	no	correct	task-tomspunt/H_091.jpg	52
136.4	1.235	tomspunt	helping?	why_hand	yes	no	incorrect	task-tomspunt/H_159.jpg	53
137.951	1.386	tomspunt	helping?	why_hand	no	yes	incorrect	task-tomspunt/H_111.jpg	54
139.652	1.262	tomspunt	helping?	why_hand	no	no	correct	task-tomspunt/H_012.jpg	55
141.26	2.101	tomspunt	both hands?	block_question_presentation	n/a	n/a	n/a	n/a	56
141.26	0.3	tomspunt	both hands?	block_question_presentation	n/a	n/a	n/a	n/a	57
141.26	0.3	tomspunt	both hands?	block_question_presentation	n/a	n/a	n/a	n/a	58
141.26	0.3	tomspunt	both hands?	block_question_presentation	n/a	n/a	n/a	n/a	59
141.26	0.3	tomspunt	both hands?	block_question_presentation	n/a	n/a	n/a	n/a	60
141.26	0.3	tomspunt	both hands?	block_question_presentation	n/a	n/a	n/a	n/a	61
141.26	0.3	tomspunt	both hands?	block_question_presentation	n/a	n/a	n/a	n/a	62
141.26	0.3	tomspunt	both hands?	block_question_presentation	n/a	n/a	n/a	n/a	63
146.271	n/a	tomspunt	both hands?	how_hand	n/a	yes	incorrect	task-tomspunt/H_111.jpg	56
148.305	0.618	tomspunt	both hands?	how_hand	yes	yes	correct	task-tomspunt/H_027.jpg	57
149.239	0.925	tomspunt	both hands?	how_hand	no	no	correct	task-tomspunt/H_091.jpg	58
150.472	1.075	tomspunt	both hands?	how_hand	yes	yes	correct	task-tomspunt/H_167.jpg	59
151.856	0.924	tomspunt	both hands?	how_hand	yes	yes	correct	task-tomspunt/H_581.jpg	60
153.09	0.941	tomspunt	both hands?	how_hand	no	no	correct	task-tomspunt/H_159.jpg	61
154.34	0.823	tomspunt	both hands?	how_hand	yes	yes	correct	task-tomspunt/H_349.jpg	62
155.474	1.073	tomspunt	both hands?	how_hand	no	no	correct	task-tomspunt/H_627.jpg	63
158.783	2.101	tomspunt	healthy?	block_question_presentation	n/a	n/a	n/a	n/a	64
158.783	0.3	tomspunt	healthy?	block_question_presentation	n/a	n/a	n/a	n/a	65
158.783	0.3	tomspunt	healthy?	block_question_presentation	n/a	n/a	n/a	n/a	66
158.783	0.3	tomspunt	healthy?	block_question_presentation	n/a	n/a	n/a	n/a	67
158.783	0.3	tomspunt	healthy?	block_question_presentation	n/a	n/a	n/a	n/a	68
158.783	0.3	tomspunt	healthy?	block_question_presentation	n/a	n/a	n/a	n/a	69
158.783	0.3	tomspunt	healthy?	block_question_presentation	n/a	n/a	n/a	n/a	70
158.783	0.3	tomspunt	healthy?	block_question_presentation	n/a	n/a	n/a	n/a	71
163.794	0.937	tomspunt	healthy?	why_hand	yes	yes	correct	task-tomspunt/H_438.jpg	64
165.044	1.883	tomspunt	healthy?	why_hand	yes	yes	correct	task-tomspunt/H_364.jpg	65
167.079	0.019	tomspunt	healthy?	why_hand	yes	yes	correct	task-tomspunt/H_362.jpg	66
167.412	1.252	tomspunt	healthy?	why_hand	no	no	correct	task-tomspunt/H_019.jpg	67
168.979	1.002	tomspunt	healthy?	why_hand	yes	yes	correct	task-tomspunt/H_167.jpg	68
170.296	1.285	tomspunt	healthy?	why_hand	no	no	correct	task-tomspunt/H_007.jpg	69
171.897	1.185	tomspunt	healthy?	why_hand	yes	yes	correct	task-tomspunt/H_627.jpg	70
173.398	1.218	tomspunt	healthy?	why_hand	no	no	correct	task-tomspunt/H_130.jpg	71
177.457	2.101	tomspunt	pressing button?	block_question_presentation	n/a	n/a	n/a	n/a	72
177.457	0.3	tomspunt	pressing button?	block_question_presentation	n/a	n/a	n/a	n/a	73
177.457	0.3	tomspunt	pressing button?	block_question_presentation	n/a	n/a	n/a	n/a	74
177.457	0.3	tomspunt	pressing button?	block_question_presentation	n/a	n/a	n/a	n/a	75
177.457	0.3	tomspunt	pressing button?	block_question_presentation	n/a	n/a	n/a	n/a	76
177.457	0.3	tomspunt	pressing button?	block_question_presentation	n/a	n/a	n/a	n/a	77
177.457	0.3	tomspunt	pressing button?	block_question_presentation	n/a	n/a	n/a	n/a	78
177.457	0.3	tomspunt	pressing button?	block_question_presentation	n/a	n/a	n/a	n/a	79
182.468	0.818	tomspunt	pressing button?	how_hand	yes	yes	correct	task-tomspunt/H_126.jpg	72
183.601	0.835	tomspunt	pressing button?	how_hand	no	no	correct	task-tomspunt/H_130.jpg	73
184.752	0.885	tomspunt	pressing button?	how_hand	yes	yes	correct	task-tomspunt/H_483.jpg	74
185.952	1.018	tomspunt	pressing button?	how_hand	no	no	correct	task-tomspunt/H_024.jpg	75
187.286	0.944	tomspunt	pressing button?	how_hand	yes	yes	correct	task-tomspunt/H_332.jpg	76
188.536	n/a	tomspunt	pressing button?	how_hand	n/a	yes	incorrect	task-tomspunt/H_019.jpg	77
190.571	n/a	tomspunt	pressing button?	how_hand	n/a	no	incorrect	task-tomspunt/H_261.jpg	78
192.605	n/a	tomspunt	pressing button?	how_hand	n/a	yes	incorrect	task-tomspunt/H_502.jpg	79
198.948	2.101	tomspunt	looking at camera?	block_question_presentation	n/a	n/a	n/a	n/a	80
198.948	0.3	tomspunt	looking at camera?	block_question_presentation	n/a	n/a	n/a	n/a	81
198.948	0.3	tomspunt	looking at camera?	block_question_presentation	n/a	n/a	n/a	n/a	82
198.948	0.3	tomspunt	looking at camera?	block_question_presentation	n/a	n/a	n/a	n/a	83
198.948	0.3	tomspunt	looking at camera?	block_question_presentation	n/a	n/a	n/a	n/a	84
198.948	0.3	tomspunt	looking at camera?	block_question_presentation	n/a	n/a	n/a	n/a	85
198.948	0.3	tomspunt	looking at camera?	block_question_presentation	n/a	n/a	n/a	n/a	86
198.948	0.3	tomspunt	looking at camera?	block_question_presentation	n/a	n/a	n/a	n/a	87
203.959	0.888	tomspunt	looking at camera?	how_face	yes	yes	correct	task-tomspunt/F_618.jpg	80
205.159	0.738	tomspunt	looking at camera?	how_face	no	no	correct	task-tomspunt/F_754.jpg	81
206.21	0.787	tomspunt	looking at camera?	how_face	yes	yes	correct	task-tomspunt/F_129.jpg	82
207.31	0.568	tomspunt	looking at camera?	how_face	yes	yes	correct	task-tomspunt/F_598.jpg	83
208.194	0.77	tomspunt	looking at camera?	how_face	yes	yes	correct	task-tomspunt/F_128.jpg	84
209.278	1.003	tomspunt	looking at camera?	how_face	no	no	correct	task-tomspunt/F_582.jpg	85
210.595	1.152	tomspunt	looking at camera?	how_face	yes	yes	correct	task-tomspunt/F_774.jpg	86
212.062	1.857	tomspunt	looking at camera?	how_face	no	no	correct	task-tomspunt/F_743.jpg	87
217.738	2.101	tomspunt	self-doubt?	block_question_presentation	n/a	n/a	n/a	n/a	88
217.738	0.3	tomspunt	self-doubt?	block_question_presentation	n/a	n/a	n/a	n/a	89
217.738	0.3	tomspunt	self-doubt?	block_question_presentation	n/a	n/a	n/a	n/a	90
217.738	0.3	tomspunt	self-doubt?	block_question_presentation	n/a	n/a	n/a	n/a	91
217.738	0.3	tomspunt	self-doubt?	block_question_presentation	n/a	n/a	n/a	n/a	92
217.738	0.3	tomspunt	self-doubt?	block_question_presentation	n/a	n/a	n/a	n/a	93
217.738	0.3	tomspunt	self-doubt?	block_question_presentation	n/a	n/a	n/a	n/a	94
217.738	0.3	tomspunt	self-doubt?	block_question_presentation	n/a	n/a	n/a	n/a	95
222.749	0.819	tomspunt	self-doubt?	why_face	yes	yes	correct	task-tomspunt/F_798.jpg	88
223.883	1.364	tomspunt	self-doubt?	why_face	no	no	correct	task-tomspunt/F_086.jpg	89
225.55	0.852	tomspunt	self-doubt?	why_face	yes	yes	correct	task-tomspunt/F_544.jpg	90
226.717	0.668	tomspunt	self-doubt?	why_face	yes	yes	correct	task-tomspunt/F_754.jpg	91
227.701	0.763	tomspunt	self-doubt?	why_face	yes	yes	correct	task-tomspunt/F_111.jpg	92
228.768	0.946	tomspunt	self-doubt?	why_face	no	yes	incorrect	task-tomspunt/F_584.jpg	93
230.019	1.419	tomspunt	self-doubt?	why_face	no	no	correct	task-tomspunt/F_128.jpg	94
231.753	0.828	tomspunt	self-doubt?	why_face	yes	no	incorrect	task-tomspunt/F_774.jpg	95
235.262	2.101	tomspunt	self-protection?	block_question_presentation	n/a	n/a	n/a	n/a	96
235.262	0.3	tomspunt	self-protection?	block_question_presentation	n/a	n/a	n/a	n/a	97
235.262	0.3	tomspunt	self-protection?	block_question_presentation	n/a	n/a	n/a	n/a	98
235.262	0.3	tomspunt	self-protection?	block_question_presentation	n/a	n/a	n/a	n/a	99
235.262	0.3	tomspunt	self-protection?	block_question_presentation	n/a	n/a	n/a	n/a	100
235.262	0.3	tomspunt	self-protection?	block_question_presentation	n/a	n/a	n/a	n/a	101
235.262	0.3	tomspunt	self-protection?	block_question_presentation	n/a	n/a	n/a	n/a	102
235.262	0.3	tomspunt	self-protection?	block_question_presentation	n/a	n/a	n/a	n/a	103
240.272	1.352	tomspunt	self-protection?	why_hand	no	yes	incorrect	task-tomspunt/H_581.jpg	96
241.94	1.44	tomspunt	self-protection?	why_hand	no	yes	incorrect	task-tomspunt/H_443.jpg	97
243.69	1.24	tomspunt	self-protection?	why_hand	no	no	correct	task-tomspunt/H_332.jpg	98
245.241	1.372	tomspunt	self-protection?	why_hand	yes	yes	correct	task-tomspunt/H_027.jpg	99
246.925	1.222	tomspunt	self-protection?	why_hand	no	no	correct	task-tomspunt/H_532.jpg	100
248.459	n/a	tomspunt	self-protection?	why_hand	n/a	yes	incorrect	task-tomspunt/H_189.jpg	101
250.493	n/a	tomspunt	self-protection?	why_hand	n/a	no	incorrect	task-tomspunt/H_006.jpg	102
252.527	0.87	tomspunt	self-protection?	why_hand	yes	yes	correct	task-tomspunt/H_038.jpg	103
253.135	2.101	tomspunt	lifting?	block_question_presentation	n/a	n/a	n/a	n/a	104
253.135	0.3	tomspunt	lifting?	block_question_presentation	n/a	n/a	n/a	n/a	105
253.135	0.3	tomspunt	lifting?	block_question_presentation	n/a	n/a	n/a	n/a	106
253.135	0.3	tomspunt	lifting?	block_question_presentation	n/a	n/a	n/a	n/a	107
253.135	0.3	tomspunt	lifting?	block_question_presentation	n/a	n/a	n/a	n/a	108
253.135	0.3	tomspunt	lifting?	block_question_presentation	n/a	n/a	n/a	n/a	109
253.135	0.3	tomspunt	lifting?	block_question_presentation	n/a	n/a	n/a	n/a	110
253.135	0.3	tomspunt	lifting?	block_question_presentation	n/a	n/a	n/a	n/a	111
258.146	1.035	tomspunt	lifting?	how_hand	yes	yes	correct	task-tomspunt/H_443.jpg	104
259.496	1.269	tomspunt	lifting?	how_hand	no	no	correct	task-tomspunt/H_038.jpg	105
261.08	1.069	tomspunt	lifting?	how_hand	yes	yes	correct	task-tomspunt/H_136.jpg	106
262.464	1.202	tomspunt	lifting?	how_hand	no	no	correct	task-tomspunt/H_012.jpg	107
263.981	0.835	tomspunt	lifting?	how_hand	yes	yes	correct	task-tomspunt/H_362.jpg	108
265.132	1.032	tomspunt	lifting?	how_hand	yes	yes	correct	task-tomspunt/H_189.jpg	109
266.466	1.186	tomspunt	lifting?	how_hand	yes	yes	correct	task-tomspunt/H_170.jpg	110
267.966	1.734	tomspunt	lifting?	how_hand	no	no	correct	task-tomspunt/H_077.jpg	111
271.008	2.101	tomspunt	looking to side?	block_question_presentation	n/a	n/a	n/a	n/a	112
271.008	0.3	tomspunt	looking to side?	block_question_presentation	n/a	n/a	n/a	n/a	113
271.008	0.3	tomspunt	looking to side?	block_question_presentation	n/a	n/a	n/a	n/a	114
271.008	0.3	tomspunt	looking to side?	block_question_presentation	n/a	n/a	n/a	n/a	115
271.008	0.3	tomspunt	looking to side?	block_question_presentation	n/a	n/a	n/a	n/a	116
271.008	0.3	tomspunt	looking to side?	block_question_presentation	n/a	n/a	n/a	n/a	117
271.008	0.3	tomspunt	looking to side?	block_question_presentation	n/a	n/a	n/a	n/a	118
271.008	0.3	tomspunt	looking to side?	block_question_presentation	n/a	n/a	n/a	n/a	119
276.019	1.019	tomspunt	looking to side?	how_face	no	yes	incorrect	task-tomspunt/F_716.jpg	112
277.353	1.569	tomspunt	looking to side?	how_face	no	no	correct	task-tomspunt/F_798.jpg	113
279.237	1.544	tomspunt	looking to side?	how_face	yes	yes	correct	task-tomspunt/F_760.jpg	114
281.088	1.226	tomspunt	looking to side?	how_face	yes	yes	correct	task-tomspunt/F_110.jpg	115
282.622	1.035	tomspunt	looking to side?	how_face	yes	no	incorrect	task-tomspunt/F_779.jpg	116
283.972	0.859	tomspunt	looking to side?	how_face	yes	yes	correct	task-tomspunt/F_590.jpg	117
285.139	1.185	tomspunt	looking to side?	how_face	no	no	correct	task-tomspunt/F_111.jpg	118
286.64	0.869	tomspunt	looking to side?	how_face	yes	yes	correct	task-tomspunt/F_433.jpg	119
288.548	2.101	tomspunt	proud?	block_question_presentation	n/a	n/a	n/a	n/a	120
288.548	0.3	tomspunt	proud?	block_question_presentation	n/a	n/a	n/a	n/a	121
288.548	0.3	tomspunt	proud?	block_question_presentation	n/a	n/a	n/a	n/a	122
288.548	0.3	tomspunt	proud?	block_question_presentation	n/a	n/a	n/a	n/a	123
288.548	0.3	tomspunt	proud?	block_question_presentation	n/a	n/a	n/a	n/a	124
288.548	0.3	tomspunt	proud?	block_question_presentation	n/a	n/a	n/a	n/a	125
288.548	0.3	tomspunt	proud?	block_question_presentation	n/a	n/a	n/a	n/a	126
288.548	0.3	tomspunt	proud?	block_question_presentation	n/a	n/a	n/a	n/a	127
293.559	n/a	tomspunt	proud?	why_face	n/a	yes	incorrect	task-tomspunt/F_083.jpg	120
295.593	n/a	tomspunt	proud?	why_face	n/a	yes	incorrect	task-tomspunt/F_582.jpg	121
297.627	0.886	tomspunt	proud?	why_face	yes	yes	correct	task-tomspunt/F_618.jpg	122
298.828	1.336	tomspunt	proud?	why_face	no	no	correct	task-tomspunt/F_776.jpg	123
300.478	1.585	tomspunt	proud?	why_face	yes	yes	correct	task-tomspunt/F_598.jpg	124
302.379	1.452	tomspunt	proud?	why_face	no	no	correct	task-tomspunt/F_760.jpg	125
304.146	1.235	tomspunt	proud?	why_face	no	no	correct	task-tomspunt/F_412.jpg	126
305.697	1.218	tomspunt	proud?	why_face	yes	yes	correct	task-tomspunt/F_695.jpg	127
306.338	2.101	tomspunt	smiling?	block_question_presentation	n/a	n/a	n/a	n/a	128
306.338	0.3	tomspunt	smiling?	block_question_presentation	n/a	n/a	n/a	n/a	129
306.338	0.3	tomspunt	smiling?	block_question_presentation	n/a	n/a	n/a	n/a	130
306.338	0.3	tomspunt	smiling?	block_question_presentation	n/a	n/a	n/a	n/a	131
306.338	0.3	tomspunt	smiling?	block_question_presentation	n/a	n/a	n/a	n/a	132
306.338	0.3	tomspunt	smiling?	block_question_presentation	n/a	n/a	n/a	n/a	133
306.338	0.3	tomspunt	smiling?	block_question_presentation	n/a	n/a	n/a	n/a	134
306.338	0.3	tomspunt	smiling?	block_question_presentation	n/a	n/a	n/a	n/a	135
311.349	n/a	tomspunt	smiling?	how_face	n/a	yes	incorrect	task-tomspunt/F_695.jpg	128
313.383	1.002	tomspunt	smiling?	how_face	yes	no	incorrect	task-tomspunt/F_412.jpg	129
314.7	1.035	tomspunt	smiling?	how_face	no	yes	incorrect	task-tomspunt/F_593.jpg	130
316.051	0.619	tomspunt	smiling?	how_face	yes	yes	correct	task-tomspunt/F_139.jpg	131
316.984	0.83	tomspunt	smiling?	how_face	no	no	correct	task-tomspunt/F_712.jpg	132
318.118	0.735	tomspunt	smiling?	how_face	yes	yes	correct	task-tomspunt/F_759.jpg	133
319.169	0.785	tomspunt	smiling?	how_face	no	no	correct	task-tomspunt/F_758.jpg	134
320.269	0.685	tomspunt	smiling?	how_face	yes	yes	correct	task-tomspunt/F_083.jpg	135
325.379	2.101	tomspunt	admiring?	block_question_presentation	n/a	n/a	n/a	n/a	136
325.379	0.3	tomspunt	admiring?	block_question_presentation	n/a	n/a	n/a	n/a	137
325.379	0.3	tomspunt	admiring?	block_question_presentation	n/a	n/a	n/a	n/a	138
325.379	0.3	tomspunt	admiring?	block_question_presentation	n/a	n/a	n/a	n/a	139
325.379	0.3	tomspunt	admiring?	block_question_presentation	n/a	n/a	n/a	n/a	140
325.379	0.3	tomspunt	admiring?	block_question_presentation	n/a	n/a	n/a	n/a	141
325.379	0.3	tomspunt	admiring?	block_question_presentation	n/a	n/a	n/a	n/a	142
325.379	0.3	tomspunt	admiring?	block_question_presentation	n/a	n/a	n/a	n/a	143
330.389	0.785	tomspunt	admiring?	why_face	yes	yes	correct	task-tomspunt/F_779.jpg	136
331.49	0.79	tomspunt	admiring?	why_face	no	no	correct	task-tomspunt/F_110.jpg	137
332.59	0.84	tomspunt	admiring?	why_face	yes	yes	correct	task-tomspunt/F_590.jpg	138
333.741	0.785	tomspunt	admiring?	why_face	yes	yes	correct	task-tomspunt/F_648.jpg	139
334.841	0.823	tomspunt	admiring?	why_face	yes	yes	correct	task-tomspunt/F_759.jpg	140
335.975	1.389	tomspunt	admiring?	why_face	no	no	correct	task-tomspunt/F_129.jpg	141
337.675	1.271	tomspunt	admiring?	why_face	yes	yes	correct	task-tomspunt/F_593.jpg	142
339.259	1.035	tomspunt	admiring?	why_face	no	no	correct	task-tomspunt/F_692.jpg	143
343.452	2.101	tomspunt	healthy?	block_question_presentation	n/a	n/a	n/a	n/a	144
343.452	0.3	tomspunt	healthy?	block_question_presentation	n/a	n/a	n/a	n/a	145
343.452	0.3	tomspunt	healthy?	block_question_presentation	n/a	n/a	n/a	n/a	146
343.452	0.3	tomspunt	healthy?	block_question_presentation	n/a	n/a	n/a	n/a	147
343.452	0.3	tomspunt	healthy?	block_question_presentation	n/a	n/a	n/a	n/a	148
343.452	0.3	tomspunt	healthy?	block_question_presentation	n/a	n/a	n/a	n/a	149
343.452	0.3	tomspunt	healthy?	block_question_presentation	n/a	n/a	n/a	n/a	150
343.452	0.3	tomspunt	healthy?	block_question_presentation	n/a	n/a	n/a	n/a	151
348.463	n/a	tomspunt	healthy?	why_hand	n/a	yes	incorrect	task-tomspunt/H_364.jpg	144
350.497	1.119	tomspunt	healthy?	why_hand	no	no	correct	task-tomspunt/H_007.jpg	145
351.931	0.802	tomspunt	healthy?	why_hand	yes	yes	correct	task-tomspunt/H_167.jpg	146
353.048	0.935	tomspunt	healthy?	why_hand	no	no	correct	task-tomspunt/H_130.jpg	147
354.298	0.952	tomspunt	healthy?	why_hand	yes	yes	correct	task-tomspunt/H_438.jpg	148
355.565	0.982	tomspunt	healthy?	why_hand	no	no	correct	task-tomspunt/H_019.jpg	149
356.849	0.935	tomspunt	healthy?	why_hand	yes	yes	correct	task-tomspunt/H_362.jpg	150
358.1	1.285	tomspunt	healthy?	why_hand	no	yes	incorrect	task-tomspunt/H_627.jpg	151
360.975	2.101	tomspunt	pressing button?	block_question_presentation	n/a	n/a	n/a	n/a	152
360.975	0.3	tomspunt	pressing button?	block_question_presentation	n/a	n/a	n/a	n/a	153
360.975	0.3	tomspunt	pressing button?	block_question_presentation	n/a	n/a	n/a	n/a	154
360.975	0.3	tomspunt	pressing button?	block_question_presentation	n/a	n/a	n/a	n/a	155
360.975	0.3	tomspunt	pressing button?	block_question_presentation	n/a	n/a	n/a	n/a	156
360.975	0.3	tomspunt	pressing button?	block_question_presentation	n/a	n/a	n/a	n/a	157
360.975	0.3	tomspunt	pressing button?	block_question_presentation	n/a	n/a	n/a	n/a	158
360.975	0.3	tomspunt	pressing button?	block_question_presentation	n/a	n/a	n/a	n/a	159
365.986	1.261	tomspunt	pressing button?	how_hand	yes	yes	correct	task-tomspunt/H_126.jpg	152
367.553	0.96	tomspunt	pressing button?	how_hand	yes	yes	correct	task-tomspunt/H_332.jpg	153
368.82	1.252	tomspunt	pressing button?	how_hand	no	no	correct	task-tomspunt/H_261.jpg	154
370.388	1.559	tomspunt	pressing button?	how_hand	yes	no	incorrect	task-tomspunt/H_024.jpg	155
372.255	1.426	tomspunt	pressing button?	how_hand	yes	yes	correct	task-tomspunt/H_502.jpg	156
373.989	n/a	tomspunt	pressing button?	how_hand	n/a	no	incorrect	task-tomspunt/H_130.jpg	157
376.023	0.307	tomspunt	pressing button?	how_hand	yes	yes	correct	task-tomspunt/H_019.jpg	158
376.64	1.402	tomspunt	pressing button?	how_hand	yes	yes	correct	task-tomspunt/H_483.jpg	159
378.865	2.101	tomspunt	looking to side?	block_question_presentation	n/a	n/a	n/a	n/a	160
378.865	0.3	tomspunt	looking to side?	block_question_presentation	n/a	n/a	n/a	n/a	161
378.865	0.3	tomspunt	looking to side?	block_question_presentation	n/a	n/a	n/a	n/a	162
378.865	0.3	tomspunt	looking to side?	block_question_presentation	n/a	n/a	n/a	n/a	163
378.865	0.3	tomspunt	looking to side?	block_question_presentation	n/a	n/a	n/a	n/a	164
378.865	0.3	tomspunt	looking to side?	block_question_presentation	n/a	n/a	n/a	n/a	165
378.865	0.3	tomspunt	looking to side?	block_question_presentation	n/a	n/a	n/a	n/a	166
378.865	0.3	tomspunt	looking to side?	block_question_presentation	n/a	n/a	n/a	n/a	167
383.876	1.521	tomspunt	looking to side?	how_face	yes	yes	correct	task-tomspunt/F_590.jpg	160
385.71	1.618	tomspunt	looking to side?	how_face	yes	yes	correct	task-tomspunt/F_110.jpg	161
387.644	1.536	tomspunt	looking to side?	how_face	no	yes	incorrect	task-tomspunt/F_760.jpg	162
389.495	1.135	tomspunt	looking to side?	how_face	yes	no	incorrect	task-tomspunt/F_779.jpg	163
390.945	0.669	tomspunt	looking to side?	how_face	yes	yes	correct	task-tomspunt/F_433.jpg	164
391.929	1.469	tomspunt	looking to side?	how_face	no	no	correct	task-tomspunt/F_798.jpg	165
393.713	1.068	tomspunt	looking to side?	how_face	yes	yes	correct	task-tomspunt/F_716.jpg	166
395.097	1.469	tomspunt	looking to side?	how_face	no	no	correct	task-tomspunt/F_111.jpg	167
396.705	2.101	tomspunt	argument?	block_question_presentation	n/a	n/a	n/a	n/a	168
396.705	0.3	tomspunt	argument?	block_question_presentation	n/a	n/a	n/a	n/a	169
396.705	0.3	tomspunt	argument?	block_question_presentation	n/a	n/a	n/a	n/a	170
396.705	0.3	tomspunt	argument?	block_question_presentation	n/a	n/a	n/a	n/a	171
396.705	0.3	tomspunt	argument?	block_question_presentation	n/a	n/a	n/a	n/a	172
396.705	0.3	tomspunt	argument?	block_question_presentation	n/a	n/a	n/a	n/a	173
396.705	0.3	tomspunt	argument?	block_question_presentation	n/a	n/a	n/a	n/a	174
396.705	0.3	tomspunt	argument?	block_question_presentation	n/a	n/a	n/a	n/a	175
401.716	1.181	tomspunt	argument?	why_face	yes	yes	correct	task-tomspunt/F_403.jpg	168
403.2	0.985	tomspunt	argument?	why_face	no	no	correct	task-tomspunt/F_139.jpg	169
404.5	n/a	tomspunt	argument?	why_face	n/a	yes	incorrect	task-tomspunt/F_743.jpg	170
406.534	n/a	tomspunt	argument?	why_face	n/a	no	incorrect	task-tomspunt/F_433.jpg	171
408.569	1.385	tomspunt	argument?	why_face	yes	yes	correct	task-tomspunt/F_716.jpg	172
410.269	0.835	tomspunt	argument?	why_face	yes	yes	correct	task-tomspunt/F_758.jpg	173
411.42	0.777	tomspunt	argument?	why_face	no	no	correct	task-tomspunt/F_844.jpg	174
412.503	0.785	tomspunt	argument?	why_face	yes	yes	correct	task-tomspunt/F_712.jpg	175
414.545	2.101	tomspunt	self-protection?	block_question_presentation	n/a	n/a	n/a	n/a	176
414.545	0.3	tomspunt	self-protection?	block_question_presentation	n/a	n/a	n/a	n/a	177
414.545	0.3	tomspunt	self-protection?	block_question_presentation	n/a	n/a	n/a	n/a	178
414.545	0.3	tomspunt	self-protection?	block_question_presentation	n/a	n/a	n/a	n/a	179
414.545	0.3	tomspunt	self-protection?	block_question_presentation	n/a	n/a	n/a	n/a	180
414.545	0.3	tomspunt	self-protection?	block_question_presentation	n/a	n/a	n/a	n/a	181
414.545	0.3	tomspunt	self-protection?	block_question_presentation	n/a	n/a	n/a	n/a	182
414.545	0.3	tomspunt	self-protection?	block_question_presentation	n/a	n/a	n/a	n/a	183
419.556	1.091	tomspunt	self-protection?	why_hand	yes	yes	correct	task-tomspunt/H_189.jpg	176
420.957	1.219	tomspunt	self-protection?	why_hand	no	yes	incorrect	task-tomspunt/H_038.jpg	177
422.49	1.336	tomspunt	self-protection?	why_hand	no	yes	incorrect	task-tomspunt/H_581.jpg	178
424.141	1.039	tomspunt	self-protection?	why_hand	no	no	correct	task-tomspunt/H_006.jpg	179
425.492	1.96	tomspunt	self-protection?	why_hand	yes	yes	correct	task-tomspunt/H_027.jpg	180
427.526	0.022	tomspunt	self-protection?	why_hand	yes	no	incorrect	task-tomspunt/H_332.jpg	181
427.859	0.888	tomspunt	self-protection?	why_hand	no	yes	incorrect	task-tomspunt/H_443.jpg	182
429.06	1.965	tomspunt	self-protection?	why_hand	no	no	correct	task-tomspunt/H_532.jpg	183
432.068	2.084	tomspunt	both hands?	block_question_presentation	n/a	n/a	n/a	n/a	184
432.068	0.3	tomspunt	both hands?	block_question_presentation	n/a	n/a	n/a	n/a	185
432.068	0.3	tomspunt	both hands?	block_question_presentation	n/a	n/a	n/a	n/a	186
432.068	0.3	tomspunt	both hands?	block_question_presentation	n/a	n/a	n/a	n/a	187
432.068	0.3	tomspunt	both hands?	block_question_presentation	n/a	n/a	n/a	n/a	188
432.068	0.3	tomspunt	both hands?	block_question_presentation	n/a	n/a	n/a	n/a	189
432.068	0.3	tomspunt	both hands?	block_question_presentation	n/a	n/a	n/a	n/a	190
432.068	0.3	tomspunt	both hands?	block_question_presentation	n/a	n/a	n/a	n/a	191
437.063	n/a	tomspunt	both hands?	how_hand	n/a	yes	incorrect	task-tomspunt/H_581.jpg	184
439.097	0.985	tomspunt	both hands?	how_hand	yes	yes	correct	task-tomspunt/H_349.jpg	185
440.397	0.952	tomspunt	both hands?	how_hand	no	no	correct	task-tomspunt/H_159.jpg	186
441.664	0.835	tomspunt	both hands?	how_hand	yes	yes	correct	task-tomspunt/H_111.jpg	187
442.815	1.035	tomspunt	both hands?	how_hand	no	no	correct	task-tomspunt/H_627.jpg	188
444.165	n/a	tomspunt	both hands?	how_hand	n/a	yes	incorrect	task-tomspunt/H_167.jpg	189
446.199	n/a	tomspunt	both hands?	how_hand	n/a	yes	incorrect	task-tomspunt/H_027.jpg	190
448.233	1.43	tomspunt	both hands?	how_hand	yes	no	incorrect	task-tomspunt/H_091.jpg	191
449.858	2.084	tomspunt	competing?	block_question_presentation	n/a	n/a	n/a	n/a	192
449.858	0.3	tomspunt	competing?	block_question_presentation	n/a	n/a	n/a	n/a	193
449.858	0.3	tomspunt	competing?	block_question_presentation	n/a	n/a	n/a	n/a	194
449.858	0.3	tomspunt	competing?	block_question_presentation	n/a	n/a	n/a	n/a	195
449.858	0.3	tomspunt	competing?	block_question_presentation	n/a	n/a	n/a	n/a	196
449.858	0.3	tomspunt	competing?	block_question_presentation	n/a	n/a	n/a	n/a	197
449.858	0.3	tomspunt	competing?	block_question_presentation	n/a	n/a	n/a	n/a	198
449.858	0.3	tomspunt	competing?	block_question_presentation	n/a	n/a	n/a	n/a	199
454.852	0.712	tomspunt	competing?	why_hand	yes	yes	correct	task-tomspunt/H_170.jpg	192
455.87	0.761	tomspunt	competing?	why_hand	yes	yes	correct	task-tomspunt/H_132.jpg	193
456.937	0.835	tomspunt	competing?	why_hand	no	no	correct	task-tomspunt/H_126.jpg	194
458.087	n/a	tomspunt	competing?	why_hand	n/a	yes	incorrect	task-tomspunt/H_003.jpg	195
460.121	0.81	tomspunt	competing?	why_hand	no	no	correct	task-tomspunt/H_502.jpg	196
461.238	n/a	tomspunt	competing?	why_hand	n/a	yes	incorrect	task-tomspunt/H_136.jpg	197
463.272	n/a	tomspunt	competing?	why_hand	n/a	no	incorrect	task-tomspunt/H_483.jpg	198
465.306	0.652	tomspunt	competing?	why_hand	yes	yes	correct	task-tomspunt/H_261.jpg	199
467.748	2.084	tomspunt	lifting?	block_question_presentation	n/a	n/a	n/a	n/a	200
467.748	0.3	tomspunt	lifting?	block_question_presentation	n/a	n/a	n/a	n/a	201
467.748	0.3	tomspunt	lifting?	block_question_presentation	n/a	n/a	n/a	n/a	202
467.748	0.3	tomspunt	lifting?	block_question_presentation	n/a	n/a	n/a	n/a	203
467.748	0.3	tomspunt	lifting?	block_question_presentation	n/a	n/a	n/a	n/a	204
467.748	0.3	tomspunt	lifting?	block_question_presentation	n/a	n/a	n/a	n/a	205
467.748	0.3	tomspunt	lifting?	block_question_presentation	n/a	n/a	n/a	n/a	206
467.748	0.3	tomspunt	lifting?	block_question_presentation	n/a	n/a	n/a	n/a	207
472.742	n/a	tomspunt	lifting?	how_hand	n/a	yes	incorrect	task-tomspunt/H_362.jpg	200
474.777	1.17	tomspunt	lifting?	how_hand	no	no	correct	task-tomspunt/H_012.jpg	201
476.26	0.869	tomspunt	lifting?	how_hand	yes	yes	correct	task-tomspunt/H_136.jpg	202
477.444	1.187	tomspunt	lifting?	how_hand	yes	yes	correct	task-tomspunt/H_189.jpg	203
478.945	n/a	tomspunt	lifting?	how_hand	n/a	yes	incorrect	task-tomspunt/H_170.jpg	204
480.979	1.135	tomspunt	lifting?	how_hand	yes	no	incorrect	task-tomspunt/H_077.jpg	205
482.429	1.102	tomspunt	lifting?	how_hand	yes	yes	correct	task-tomspunt/H_443.jpg	206
483.847	1.119	tomspunt	lifting?	how_hand	no	no	correct	task-tomspunt/H_038.jpg	207
485.805	2.101	tomspunt	open mouth?	block_question_presentation	n/a	n/a	n/a	n/a	208
485.805	0.3	tomspunt	open mouth?	block_question_presentation	n/a	n/a	n/a	n/a	209
485.805	0.3	tomspunt	open mouth?	block_question_presentation	n/a	n/a	n/a	n/a	210
485.805	0.3	tomspunt	open mouth?	block_question_presentation	n/a	n/a	n/a	n/a	211
485.805	0.3	tomspunt	open mouth?	block_question_presentation	n/a	n/a	n/a	n/a	212
485.805	0.3	tomspunt	open mouth?	block_question_presentation	n/a	n/a	n/a	n/a	213
485.805	0.3	tomspunt	open mouth?	block_question_presentation	n/a	n/a	n/a	n/a	214
485.805	0.3	tomspunt	open mouth?	block_question_presentation	n/a	n/a	n/a	n/a	215
490.816	n/a	tomspunt	open mouth?	how_face	n/a	yes	incorrect	task-tomspunt/F_403.jpg	208
492.85	n/a	tomspunt	open mouth?	how_face	n/a	yes	incorrect	task-tomspunt/F_086.jpg	209
494.884	0.619	tomspunt	open mouth?	how_face	yes	yes	correct	task-tomspunt/F_844.jpg	210
495.818	0.819	tomspunt	open mouth?	how_face	no	no	correct	task-tomspunt/F_544.jpg	211
496.952	0.919	tomspunt	open mouth?	how_face	yes	yes	correct	task-tomspunt/F_776.jpg	212
498.185	n/a	tomspunt	open mouth?	how_face	n/a	no	incorrect	task-tomspunt/F_648.jpg	213
500.219	n/a	tomspunt	open mouth?	how_face	n/a	yes	incorrect	task-tomspunt/F_692.jpg	214
502.253	n/a	tomspunt	open mouth?	how_face	n/a	no	incorrect	task-tomspunt/F_584.jpg	215
504.029	2.101	tomspunt	proud?	block_question_presentation	n/a	n/a	n/a	n/a	216
504.029	0.3	tomspunt	proud?	block_question_presentation	n/a	n/a	n/a	n/a	217
504.029	0.3	tomspunt	proud?	block_question_presentation	n/a	n/a	n/a	n/a	218
504.029	0.3	tomspunt	proud?	block_question_presentation	n/a	n/a	n/a	n/a	219
504.029	0.3	tomspunt	proud?	block_question_presentation	n/a	n/a	n/a	n/a	220
504.029	0.3	tomspunt	proud?	block_question_presentation	n/a	n/a	n/a	n/a	221
504.029	0.3	tomspunt	proud?	block_question_presentation	n/a	n/a	n/a	n/a	222
504.029	0.3	tomspunt	proud?	block_question_presentation	n/a	n/a	n/a	n/a	223
509.039	0.608	tomspunt	proud?	why_face	yes	yes	correct	task-tomspunt/F_582.jpg	216
509.956	1.518	tomspunt	proud?	why_face	no	no	correct	task-tomspunt/F_776.jpg	217
511.79	1.057	tomspunt	proud?	why_face	yes	yes	correct	task-tomspunt/F_598.jpg	218
513.158	0.839	tomspunt	proud?	why_face	no	no	correct	task-tomspunt/F_412.jpg	219
514.308	0.902	tomspunt	proud?	why_face	yes	yes	correct	task-tomspunt/F_618.jpg	220
515.525	0.922	tomspunt	proud?	why_face	yes	yes	correct	task-tomspunt/F_083.jpg	221
516.759	1.255	tomspunt	proud?	why_face	yes	yes	correct	task-tomspunt/F_695.jpg	222
518.326	n/a	tomspunt	proud?	why_face	n/a	no	incorrect	task-tomspunt/F_760.jpg	223
523.002	2.084	tomspunt	helping?	block_question_presentation	n/a	n/a	n/a	n/a	224
523.002	0.3	tomspunt	helping?	block_question_presentation	n/a	n/a	n/a	n/a	225
523.002	0.3	tomspunt	helping?	block_question_presentation	n/a	n/a	n/a	n/a	226
523.002	0.3	tomspunt	helping?	block_question_presentation	n/a	n/a	n/a	n/a	227
523.002	0.3	tomspunt	helping?	block_question_presentation	n/a	n/a	n/a	n/a	228
523.002	0.3	tomspunt	helping?	block_question_presentation	n/a	n/a	n/a	n/a	229
523.002	0.3	tomspunt	helping?	block_question_presentation	n/a	n/a	n/a	n/a	230
523.002	0.3	tomspunt	helping?	block_question_presentation	n/a	n/a	n/a	n/a	231
527.996	n/a	tomspunt	helping?	why_hand	n/a	yes	incorrect	task-tomspunt/H_024.jpg	224
530.047	n/a	tomspunt	helping?	why_hand	n/a	yes	incorrect	task-tomspunt/H_474.jpg	225
532.081	1.085	tomspunt	helping?	why_hand	yes	yes	correct	task-tomspunt/H_349.jpg	226
533.482	1.269	tomspunt	helping?	why_hand	no	no	correct	task-tomspunt/H_091.jpg	227
535.066	1.202	tomspunt	helping?	why_hand	no	no	correct	task-tomspunt/H_012.jpg	228
536.583	n/a	tomspunt	helping?	why_hand	n/a	yes	incorrect	task-tomspunt/H_077.jpg	229
538.617	n/a	tomspunt	helping?	why_hand	n/a	no	incorrect	task-tomspunt/H_159.jpg	230
540.651	n/a	tomspunt	helping?	why_hand	n/a	yes	incorrect	task-tomspunt/H_111.jpg	231
541.209	2.101	tomspunt	reaching?	block_question_presentation	n/a	n/a	n/a	n/a	232
541.209	0.3	tomspunt	reaching?	block_question_presentation	n/a	n/a	n/a	n/a	233
541.209	0.3	tomspunt	reaching?	block_question_presentation	n/a	n/a	n/a	n/a	234
541.209	0.3	tomspunt	reaching?	block_question_presentation	n/a	n/a	n/a	n/a	235
541.209	0.3	tomspunt	reaching?	block_question_presentation	n/a	n/a	n/a	n/a	236
541.209	0.3	tomspunt	reaching?	block_question_presentation	n/a	n/a	n/a	n/a	237
541.209	0.3	tomspunt	reaching?	block_question_presentation	n/a	n/a	n/a	n/a	238
541.209	0.3	tomspunt	reaching?	block_question_presentation	n/a	n/a	n/a	n/a	239
546.22	n/a	tomspunt	reaching?	how_hand	n/a	yes	incorrect	task-tomspunt/H_474.jpg	232
548.254	0.71	tomspunt	reaching?	how_hand	yes	yes	correct	task-tomspunt/H_003.jpg	233
549.271	1.41	tomspunt	reaching?	how_hand	no	no	correct	task-tomspunt/H_132.jpg	234
550.988	0.886	tomspunt	reaching?	how_hand	yes	yes	correct	task-tomspunt/H_364.jpg	235
552.189	0.858	tomspunt	reaching?	how_hand	yes	yes	correct	task-tomspunt/H_006.jpg	236
553.356	0.919	tomspunt	reaching?	how_hand	no	no	correct	task-tomspunt/H_532.jpg	237
554.59	1.024	tomspunt	reaching?	how_hand	no	no	correct	task-tomspunt/H_438.jpg	238
555.924	1.507	tomspunt	reaching?	how_hand	no	yes	incorrect	task-tomspunt/H_007.jpg	239
560.183	2.101	tomspunt	looking at camera?	block_question_presentation	n/a	n/a	n/a	n/a	240
560.183	0.3	tomspunt	looking at camera?	block_question_presentation	n/a	n/a	n/a	n/a	241
560.183	0.3	tomspunt	looking at camera?	block_question_presentation	n/a	n/a	n/a	n/a	242
560.183	0.3	tomspunt	looking at camera?	block_question_presentation	n/a	n/a	n/a	n/a	243
560.183	0.3	tomspunt	looking at camera?	block_question_presentation	n/a	n/a	n/a	n/a	244
560.183	0.3	tomspunt	looking at camera?	block_question_presentation	n/a	n/a	n/a	n/a	245
560.183	0.3	tomspunt	looking at camera?	block_question_presentation	n/a	n/a	n/a	n/a	246
560.183	0.3	tomspunt	looking at camera?	block_question_presentation	n/a	n/a	n/a	n/a	247
565.194	0.87	tomspunt	looking at camera?	how_face	yes	yes	correct	task-tomspunt/F_618.jpg	240
566.377	0.686	tomspunt	looking at camera?	how_face	no	no	correct	task-tomspunt/F_743.jpg	241
567.378	0.586	tomspunt	looking at camera?	how_face	yes	yes	correct	task-tomspunt/F_598.jpg	242
568.278	0.935	tomspunt	looking at camera?	how_face	yes	yes	correct	task-tomspunt/F_774.jpg	243
569.529	n/a	tomspunt	looking at camera?	how_face	n/a	yes	incorrect	task-tomspunt/F_129.jpg	244
571.563	n/a	tomspunt	looking at camera?	how_face	n/a	yes	incorrect	task-tomspunt/F_128.jpg	245
573.597	n/a	tomspunt	looking at camera?	how_face	n/a	no	incorrect	task-tomspunt/F_582.jpg	246
575.631	n/a	tomspunt	looking at camera?	how_face	n/a	no	incorrect	task-tomspunt/F_754.jpg	247
578.973	2.101	tomspunt	self-doubt?	block_question_presentation	n/a	n/a	n/a	n/a	248
578.973	0.3	tomspunt	self-doubt?	block_question_presentation	n/a	n/a	n/a	n/a	249
578.973	0.3	tomspunt	self-doubt?	block_question_presentation	n/a	n/a	n/a	n/a	250
578.973	0.3	tomspunt	self-doubt?	block_question_presentation	n/a	n/a	n/a	n/a	251
578.973	0.3	tomspunt	self-doubt?	block_question_presentation	n/a	n/a	n/a	n/a	252
578.973	0.3	tomspunt	self-doubt?	block_question_presentation	n/a	n/a	n/a	n/a	253
578.973	0.3	tomspunt	self-doubt?	block_question_presentation	n/a	n/a	n/a	n/a	254
578.973	0.3	tomspunt	self-doubt?	block_question_presentation	n/a	n/a	n/a	n/a	255
583.984	1.943	tomspunt	self-doubt?	why_face	yes	yes	correct	task-tomspunt/F_798.jpg	248
586.018	0.018	tomspunt	self-doubt?	why_face	yes	no	incorrect	task-tomspunt/F_128.jpg	249
586.352	1.046	tomspunt	self-doubt?	why_face	yes	yes	correct	task-tomspunt/F_754.jpg	250
587.702	0.969	tomspunt	self-doubt?	why_face	yes	yes	correct	task-tomspunt/F_544.jpg	251
588.986	0.778	tomspunt	self-doubt?	why_face	no	no	correct	task-tomspunt/F_086.jpg	252
590.07	0.635	tomspunt	self-doubt?	why_face	yes	yes	correct	task-tomspunt/F_111.jpg	253
591.02	0.752	tomspunt	self-doubt?	why_face	no	no	correct	task-tomspunt/F_774.jpg	254
592.087	1.135	tomspunt	self-doubt?	why_face	yes	yes	correct	task-tomspunt/F_584.jpg	255
