onset	duration	run_type	trial_type	trial_index	cue	stimulusintensity	rating_value	rating_glmslabel	rating_value_fillna	rating_glmslabel_fillna	rating_mouseonset	rating_mousedur	stim_file	pain_onset_ttl1	pain_onset_ttl2	pain_onset_ttl3	pain_onset_ttl4	pain_stimulus_delivery_success	cognitive_correct_response	cognitive_participant_response	cognitive_response_accuracy
10.61	0.99	cognitive	cue	1	low_cue	n/a	n/a	n/a	n/a	n/a	n/a	n/a	n/a	n/a	n/a	n/a	n/a	n/a	n/a	n/a	n/a
12.34	1.97	cognitive	expectrating	1	low_cue	n/a	17.92	Moderate	17.92	Moderate	0.93	1.03	task-social/cue/runtype-cognitive/scl/l017.png	n/a	n/a	n/a	n/a	n/a	n/a	n/a	n/a
23.11	5.0	cognitive	stimulus	1	low_cue	low_stim	n/a	n/a	n/a	n/a	n/a	n/a	task-social/stim/runtype-cognitive/24_50_R.jpg	n/a	n/a	n/a	n/a	n/a	diff	diff	True
31.12	2.67	cognitive	outcomerating	1	low_cue	low_stim	16.62	Moderate	16.62	Moderate	0.75	1.92	task-social/outcomerating/task-cognitive_scale.png	n/a	n/a	n/a	n/a	n/a	n/a	n/a	n/a
35.7	0.99	cognitive	cue	2	low_cue	n/a	n/a	n/a	n/a	n/a	n/a	n/a	n/a	n/a	n/a	n/a	n/a	n/a	n/a	n/a	n/a
38.02	1.42	cognitive	expectrating	2	low_cue	n/a	15.98	Moderate	15.98	Moderate	0.45	0.97	task-social/cue/runtype-cognitive/scl/l002.png	n/a	n/a	n/a	n/a	n/a	n/a	n/a	n/a
45.8	5.0	cognitive	stimulus	2	low_cue	med_stim	n/a	n/a	n/a	n/a	n/a	n/a	task-social/stim/runtype-cognitive/45_100_R.jpg	n/a	n/a	n/a	n/a	n/a	diff	n/a	False
56.31	2.13	cognitive	outcomerating	2	low_cue	med_stim	26.78	Moderate	26.78	Moderate	0.98	1.15	task-social/outcomerating/task-cognitive_scale.png	n/a	n/a	n/a	n/a	n/a	n/a	n/a	n/a
61.31	0.99	cognitive	cue	3	low_cue	n/a	n/a	n/a	n/a	n/a	n/a	n/a	n/a	n/a	n/a	n/a	n/a	n/a	n/a	n/a	n/a
64.23	1.75	cognitive	expectrating	3	low_cue	n/a	14.93	Moderate	14.93	Moderate	0.47	1.28	task-social/cue/runtype-cognitive/scl/l006.png	n/a	n/a	n/a	n/a	n/a	n/a	n/a	n/a
74.21	5.0	cognitive	stimulus	3	low_cue	low_stim	n/a	n/a	n/a	n/a	n/a	n/a	task-social/stim/runtype-cognitive/9_50.jpg	n/a	n/a	n/a	n/a	n/a	same	same	True
86.32	2.67	cognitive	outcomerating	3	low_cue	low_stim	18.06	Moderate	18.06	Moderate	0.62	2.06	task-social/outcomerating/task-cognitive_scale.png	n/a	n/a	n/a	n/a	n/a	n/a	n/a	n/a
91.3	0.99	cognitive	cue	4	low_cue	n/a	n/a	n/a	n/a	n/a	n/a	n/a	n/a	n/a	n/a	n/a	n/a	n/a	n/a	n/a	n/a
93.71	2.55	cognitive	expectrating	4	low_cue	n/a	11.22	Moderate	11.22	Moderate	0.48	2.07	task-social/cue/runtype-cognitive/scl/l016.png	n/a	n/a	n/a	n/a	n/a	n/a	n/a	n/a
101.81	5.0	cognitive	stimulus	4	low_cue	high_stim	n/a	n/a	n/a	n/a	n/a	n/a	task-social/stim/runtype-cognitive/9_150.jpg	n/a	n/a	n/a	n/a	n/a	same	diff	False
112.31	n/a	cognitive	outcomerating	4	low_cue	high_stim	n/a	n/a	18.58	Moderate	3.2	0.68	task-social/outcomerating/task-cognitive_scale.png	n/a	n/a	n/a	n/a	n/a	n/a	n/a	n/a
120.01	0.98	cognitive	cue	5	high_cue	n/a	n/a	n/a	n/a	n/a	n/a	n/a	n/a	n/a	n/a	n/a	n/a	n/a	n/a	n/a	n/a
122.92	1.7	cognitive	expectrating	5	high_cue	n/a	44.84	Strong	44.84	Strong	0.53	1.17	task-social/cue/runtype-cognitive/sch/h024.png	n/a	n/a	n/a	n/a	n/a	n/a	n/a	n/a
133.82	5.0	cognitive	stimulus	5	high_cue	med_stim	n/a	n/a	n/a	n/a	n/a	n/a	task-social/stim/runtype-cognitive/45_100.jpg	n/a	n/a	n/a	n/a	n/a	same	same	True
142.81	1.65	cognitive	outcomerating	5	high_cue	med_stim	12.08	Moderate	12.08	Moderate	0.75	0.9	task-social/outcomerating/task-cognitive_scale.png	n/a	n/a	n/a	n/a	n/a	n/a	n/a	n/a
153.91	0.98	cognitive	cue	6	high_cue	n/a	n/a	n/a	n/a	n/a	n/a	n/a	n/a	n/a	n/a	n/a	n/a	n/a	n/a	n/a	n/a
155.81	1.52	cognitive	expectrating	6	high_cue	n/a	50.05	Strong	50.05	Strong	0.5	1.02	task-social/cue/runtype-cognitive/sch/h052.png	n/a	n/a	n/a	n/a	n/a	n/a	n/a	n/a
169.8	5.0	cognitive	stimulus	6	high_cue	high_stim	n/a	n/a	n/a	n/a	n/a	n/a	task-social/stim/runtype-cognitive/24_150.jpg	n/a	n/a	n/a	n/a	n/a	same	diff	False
184.21	2.24	cognitive	outcomerating	6	high_cue	high_stim	44.84	Strong	44.84	Strong	1.05	1.19	task-social/outcomerating/task-cognitive_scale.png	n/a	n/a	n/a	n/a	n/a	n/a	n/a	n/a
194.21	0.99	cognitive	cue	7	high_cue	n/a	n/a	n/a	n/a	n/a	n/a	n/a	n/a	n/a	n/a	n/a	n/a	n/a	n/a	n/a	n/a
197.01	1.27	cognitive	expectrating	7	high_cue	n/a	57.89	Strong	57.89	Strong	0.27	1.0	task-social/cue/runtype-cognitive/sch/h027.png	n/a	n/a	n/a	n/a	n/a	n/a	n/a	n/a
206.21	5.0	cognitive	stimulus	7	high_cue	med_stim	n/a	n/a	n/a	n/a	n/a	n/a	task-social/stim/runtype-cognitive/34_100_R.jpg	n/a	n/a	n/a	n/a	n/a	diff	diff	True
214.22	1.54	cognitive	outcomerating	7	high_cue	med_stim	39.31	Strong	39.31	Strong	0.9	0.64	task-social/outcomerating/task-cognitive_scale.png	n/a	n/a	n/a	n/a	n/a	n/a	n/a	n/a
219.2	0.99	cognitive	cue	8	high_cue	n/a	n/a	n/a	n/a	n/a	n/a	n/a	n/a	n/a	n/a	n/a	n/a	n/a	n/a	n/a	n/a
222.1	1.3	cognitive	expectrating	8	high_cue	n/a	38.44	Strong	38.44	Strong	0.42	0.89	task-social/cue/runtype-cognitive/sch/h037.png	n/a	n/a	n/a	n/a	n/a	n/a	n/a	n/a
234.51	5.0	cognitive	stimulus	8	high_cue	low_stim	n/a	n/a	n/a	n/a	n/a	n/a	task-social/stim/runtype-cognitive/48_50.jpg	n/a	n/a	n/a	n/a	n/a	same	same	True
242.71	1.8	cognitive	outcomerating	8	high_cue	low_stim	41.33	Strong	41.33	Strong	1.22	0.58	task-social/outcomerating/task-cognitive_scale.png	n/a	n/a	n/a	n/a	n/a	n/a	n/a	n/a
251.41	0.98	cognitive	cue	9	high_cue	n/a	n/a	n/a	n/a	n/a	n/a	n/a	n/a	n/a	n/a	n/a	n/a	n/a	n/a	n/a	n/a
253.81	1.45	cognitive	expectrating	9	high_cue	n/a	46.53	Strong	46.53	Strong	0.48	0.97	task-social/cue/runtype-cognitive/sch/h002.png	n/a	n/a	n/a	n/a	n/a	n/a	n/a	n/a
266.7	5.0	cognitive	stimulus	9	high_cue	low_stim	n/a	n/a	n/a	n/a	n/a	n/a	task-social/stim/runtype-cognitive/43_50.jpg	n/a	n/a	n/a	n/a	n/a	same	same	True
280.81	2.88	cognitive	outcomerating	9	high_cue	low_stim	21.98	Moderate	21.98	Moderate	1.07	1.82	task-social/outcomerating/task-cognitive_scale.png	n/a	n/a	n/a	n/a	n/a	n/a	n/a	n/a
285.81	0.98	cognitive	cue	10	high_cue	n/a	n/a	n/a	n/a	n/a	n/a	n/a	n/a	n/a	n/a	n/a	n/a	n/a	n/a	n/a	n/a
289.01	2.5	cognitive	expectrating	10	high_cue	n/a	31.83	Strong	31.83	Strong	0.28	2.22	task-social/cue/runtype-cognitive/sch/h044.png	n/a	n/a	n/a	n/a	n/a	n/a	n/a	n/a
298.01	5.0	cognitive	stimulus	10	high_cue	high_stim	n/a	n/a	n/a	n/a	n/a	n/a	task-social/stim/runtype-cognitive/23_150.jpg	n/a	n/a	n/a	n/a	n/a	same	diff	False
311.3	2.17	cognitive	outcomerating	10	high_cue	high_stim	60.52	Strong	60.52	Strong	1.12	1.06	task-social/outcomerating/task-cognitive_scale.png	n/a	n/a	n/a	n/a	n/a	n/a	n/a	n/a
326.21	0.99	cognitive	cue	11	low_cue	n/a	n/a	n/a	n/a	n/a	n/a	n/a	n/a	n/a	n/a	n/a	n/a	n/a	n/a	n/a	n/a
328.11	2.22	cognitive	expectrating	11	low_cue	n/a	10.86	Moderate	10.86	Moderate	1.02	1.2	task-social/cue/runtype-cognitive/scl/l031.png	n/a	n/a	n/a	n/a	n/a	n/a	n/a	n/a
342.41	5.0	cognitive	stimulus	11	low_cue	med_stim	n/a	n/a	n/a	n/a	n/a	n/a	task-social/stim/runtype-cognitive/34_100.jpg	n/a	n/a	n/a	n/a	n/a	same	same	True
353.32	1.84	cognitive	outcomerating	11	low_cue	med_stim	13.2	Moderate	13.2	Moderate	0.52	1.32	task-social/outcomerating/task-cognitive_scale.png	n/a	n/a	n/a	n/a	n/a	n/a	n/a	n/a
366.41	0.99	cognitive	cue	12	low_cue	n/a	n/a	n/a	n/a	n/a	n/a	n/a	n/a	n/a	n/a	n/a	n/a	n/a	n/a	n/a	n/a
369.21	2.65	cognitive	expectrating	12	low_cue	n/a	12.03	Moderate	12.03	Moderate	0.38	2.27	task-social/cue/runtype-cognitive/scl/l042.png	n/a	n/a	n/a	n/a	n/a	n/a	n/a	n/a
375.81	5.0	cognitive	stimulus	12	low_cue	high_stim	n/a	n/a	n/a	n/a	n/a	n/a	task-social/stim/runtype-cognitive/22_150.jpg	n/a	n/a	n/a	n/a	n/a	same	diff	False
394.82	1.52	cognitive	outcomerating	12	low_cue	high_stim	4.82	Weak	4.82	Weak	0.48	1.04	task-social/outcomerating/task-cognitive_scale.png	n/a	n/a	n/a	n/a	n/a	n/a	n/a	n/a
