onset	duration	run_type	trial_type	trial_index	cue	stimulusintensity	rating_value	rating_glmslabel	rating_value_fillna	rating_glmslabel_fillna	rating_mouseonset	rating_mousedur	stim_file	pain_onset_ttl1	pain_onset_ttl2	pain_onset_ttl3	pain_onset_ttl4	pain_stimulus_delivery_success	cognitive_correct_response	cognitive_participant_response	cognitive_response_accuracy
10.1	0.98	cognitive	cue	1	high_cue	n/a	n/a	n/a	n/a	n/a	n/a	n/a	n/a	n/a	n/a	n/a	n/a	n/a	n/a	n/a	n/a
12.4	2.62	cognitive	expectrating	1	high_cue	n/a	81.25	Very Strong	81.25	Very Strong	0.83	1.78	task-social/cue/runtype-cognitive/sch/h049.png	n/a	n/a	n/a	n/a	n/a	n/a	n/a	n/a
20.21	5.0	cognitive	stimulus	1	high_cue	med_stim	n/a	n/a	n/a	n/a	n/a	n/a	task-social/stim/runtype-cognitive/29_100.jpg	n/a	n/a	n/a	n/a	n/a	same	same	True
31.49	2.83	cognitive	outcomerating	1	high_cue	med_stim	46.3	Strong	46.3	Strong	0.95	1.88	task-social/outcomerating/task-cognitive_scale.png	n/a	n/a	n/a	n/a	n/a	n/a	n/a	n/a
36.3	0.99	cognitive	cue	2	high_cue	n/a	n/a	n/a	n/a	n/a	n/a	n/a	n/a	n/a	n/a	n/a	n/a	n/a	n/a	n/a	n/a
39.2	2.06	cognitive	expectrating	2	high_cue	n/a	55.1	Strong	55.1	Strong	0.58	1.47	task-social/cue/runtype-cognitive/sch/h007.png	n/a	n/a	n/a	n/a	n/a	n/a	n/a	n/a
47.5	5.0	cognitive	stimulus	2	high_cue	low_stim	n/a	n/a	n/a	n/a	n/a	n/a	task-social/stim/runtype-cognitive/39_50_R.jpg	n/a	n/a	n/a	n/a	n/a	diff	diff	True
55.8	2.88	cognitive	outcomerating	2	high_cue	low_stim	31.4	Strong	31.4	Strong	0.77	2.12	task-social/outcomerating/task-cognitive_scale.png	n/a	n/a	n/a	n/a	n/a	n/a	n/a	n/a
68.39	0.99	cognitive	cue	3	low_cue	n/a	n/a	n/a	n/a	n/a	n/a	n/a	n/a	n/a	n/a	n/a	n/a	n/a	n/a	n/a	n/a
71.29	1.58	cognitive	expectrating	3	low_cue	n/a	40.02	Strong	40.02	Strong	0.5	1.08	task-social/cue/runtype-cognitive/scl/l037.png	n/a	n/a	n/a	n/a	n/a	n/a	n/a	n/a
80.5	5.0	cognitive	stimulus	3	low_cue	med_stim	n/a	n/a	n/a	n/a	n/a	n/a	task-social/stim/runtype-cognitive/17_100_R.jpg	n/a	n/a	n/a	n/a	n/a	diff	diff	True
96.4	2.69	cognitive	outcomerating	3	low_cue	med_stim	47.43	Strong	47.43	Strong	0.55	2.14	task-social/outcomerating/task-cognitive_scale.png	n/a	n/a	n/a	n/a	n/a	n/a	n/a	n/a
103.09	0.99	cognitive	cue	4	high_cue	n/a	n/a	n/a	n/a	n/a	n/a	n/a	n/a	n/a	n/a	n/a	n/a	n/a	n/a	n/a	n/a
106.01	1.53	cognitive	expectrating	4	high_cue	n/a	55.92	Strong	55.92	Strong	0.45	1.08	task-social/cue/runtype-cognitive/sch/h030.png	n/a	n/a	n/a	n/a	n/a	n/a	n/a	n/a
115.19	5.0	cognitive	stimulus	4	high_cue	high_stim	n/a	n/a	n/a	n/a	n/a	n/a	task-social/stim/runtype-cognitive/27_150.jpg	n/a	n/a	n/a	n/a	n/a	same	same	True
127.0	2.99	cognitive	outcomerating	4	high_cue	high_stim	84.47	Very Strong	84.47	Very Strong	0.73	2.26	task-social/outcomerating/task-cognitive_scale.png	n/a	n/a	n/a	n/a	n/a	n/a	n/a	n/a
139.6	0.98	cognitive	cue	5	high_cue	n/a	n/a	n/a	n/a	n/a	n/a	n/a	n/a	n/a	n/a	n/a	n/a	n/a	n/a	n/a	n/a
141.7	1.75	cognitive	expectrating	5	high_cue	n/a	50.69	Strong	50.69	Strong	0.5	1.25	task-social/cue/runtype-cognitive/sch/h044.png	n/a	n/a	n/a	n/a	n/a	n/a	n/a	n/a
159.81	5.0	cognitive	stimulus	5	high_cue	high_stim	n/a	n/a	n/a	n/a	n/a	n/a	task-social/stim/runtype-cognitive/8_150_R.jpg	n/a	n/a	n/a	n/a	n/a	diff	diff	True
169.7	2.59	cognitive	outcomerating	5	high_cue	high_stim	28.74	Moderate	28.74	Moderate	0.78	1.81	task-social/outcomerating/task-cognitive_scale.png	n/a	n/a	n/a	n/a	n/a	n/a	n/a	n/a
175.7	0.98	cognitive	cue	6	low_cue	n/a	n/a	n/a	n/a	n/a	n/a	n/a	n/a	n/a	n/a	n/a	n/a	n/a	n/a	n/a	n/a
178.5	n/a	cognitive	expectrating	6	low_cue	n/a	n/a	n/a	6.83	Weak	1.58	3.52	task-social/cue/runtype-cognitive/scl/l036.png	n/a	n/a	n/a	n/a	n/a	n/a	n/a	n/a
187.7	5.0	cognitive	stimulus	6	low_cue	high_stim	n/a	n/a	n/a	n/a	n/a	n/a	task-social/stim/runtype-cognitive/12_150.jpg	n/a	n/a	n/a	n/a	n/a	same	same	True
195.99	2.42	cognitive	outcomerating	6	low_cue	high_stim	7.84	Weak	7.84	Weak	1.02	1.4	task-social/outcomerating/task-cognitive_scale.png	n/a	n/a	n/a	n/a	n/a	n/a	n/a	n/a
203.09	0.99	cognitive	cue	7	high_cue	n/a	n/a	n/a	n/a	n/a	n/a	n/a	n/a	n/a	n/a	n/a	n/a	n/a	n/a	n/a	n/a
205.39	1.95	cognitive	expectrating	7	high_cue	n/a	62.31	Strong	62.31	Strong	0.75	1.2	task-social/cue/runtype-cognitive/sch/h027.png	n/a	n/a	n/a	n/a	n/a	n/a	n/a	n/a
217.6	5.0	cognitive	stimulus	7	high_cue	med_stim	n/a	n/a	n/a	n/a	n/a	n/a	task-social/stim/runtype-cognitive/6_100.jpg	n/a	n/a	n/a	n/a	n/a	same	same	True
230.0	2.42	cognitive	outcomerating	7	high_cue	med_stim	53.31	Strong	53.31	Strong	0.48	1.94	task-social/outcomerating/task-cognitive_scale.png	n/a	n/a	n/a	n/a	n/a	n/a	n/a	n/a
235.79	0.99	cognitive	cue	8	high_cue	n/a	n/a	n/a	n/a	n/a	n/a	n/a	n/a	n/a	n/a	n/a	n/a	n/a	n/a	n/a	n/a
237.8	2.42	cognitive	expectrating	8	high_cue	n/a	66.32	Very Strong	66.32	Very Strong	1.27	1.15	task-social/cue/runtype-cognitive/sch/h047.png	n/a	n/a	n/a	n/a	n/a	n/a	n/a	n/a
245.29	5.0	cognitive	stimulus	8	high_cue	low_stim	n/a	n/a	n/a	n/a	n/a	n/a	task-social/stim/runtype-cognitive/29_50.jpg	n/a	n/a	n/a	n/a	n/a	same	same	True
256.99	2.34	cognitive	outcomerating	8	high_cue	low_stim	17.05	Moderate	17.05	Moderate	0.48	1.86	task-social/outcomerating/task-cognitive_scale.png	n/a	n/a	n/a	n/a	n/a	n/a	n/a	n/a
262.8	0.98	cognitive	cue	9	low_cue	n/a	n/a	n/a	n/a	n/a	n/a	n/a	n/a	n/a	n/a	n/a	n/a	n/a	n/a	n/a	n/a
265.0	1.82	cognitive	expectrating	9	low_cue	n/a	5.5	Weak	5.5	Weak	0.52	1.31	task-social/cue/runtype-cognitive/scl/l018.png	n/a	n/a	n/a	n/a	n/a	n/a	n/a	n/a
272.8	5.0	cognitive	stimulus	9	low_cue	high_stim	n/a	n/a	n/a	n/a	n/a	n/a	task-social/stim/runtype-cognitive/41_150.jpg	n/a	n/a	n/a	n/a	n/a	same	same	True
289.79	3.58	cognitive	outcomerating	9	low_cue	high_stim	17.05	Moderate	17.05	Moderate	0.85	2.73	task-social/outcomerating/task-cognitive_scale.png	n/a	n/a	n/a	n/a	n/a	n/a	n/a	n/a
294.59	0.99	cognitive	cue	10	low_cue	n/a	n/a	n/a	n/a	n/a	n/a	n/a	n/a	n/a	n/a	n/a	n/a	n/a	n/a	n/a	n/a
297.49	1.93	cognitive	expectrating	10	low_cue	n/a	1.39	Barely detectable	1.39	Barely detectable	0.55	1.38	task-social/cue/runtype-cognitive/scl/l043.png	n/a	n/a	n/a	n/a	n/a	n/a	n/a	n/a
308.9	5.0	cognitive	stimulus	10	low_cue	low_stim	n/a	n/a	n/a	n/a	n/a	n/a	task-social/stim/runtype-cognitive/6_50_R.jpg	n/a	n/a	n/a	n/a	n/a	diff	diff	True
318.8	2.87	cognitive	outcomerating	10	low_cue	low_stim	20.99	Moderate	20.99	Moderate	1.13	1.74	task-social/outcomerating/task-cognitive_scale.png	n/a	n/a	n/a	n/a	n/a	n/a	n/a	n/a
332.99	0.99	cognitive	cue	11	low_cue	n/a	n/a	n/a	n/a	n/a	n/a	n/a	n/a	n/a	n/a	n/a	n/a	n/a	n/a	n/a	n/a
335.59	2.0	cognitive	expectrating	11	low_cue	n/a	10.9	Moderate	10.9	Moderate	0.42	1.58	task-social/cue/runtype-cognitive/scl/l001.png	n/a	n/a	n/a	n/a	n/a	n/a	n/a	n/a
353.7	5.0	cognitive	stimulus	11	low_cue	low_stim	n/a	n/a	n/a	n/a	n/a	n/a	task-social/stim/runtype-cognitive/17_50_R.jpg	n/a	n/a	n/a	n/a	n/a	diff	n/a	False
362.0	n/a	cognitive	outcomerating	11	low_cue	low_stim	n/a	n/a	26.35	Moderate	0.05	3.83	task-social/outcomerating/task-cognitive_scale.png	n/a	n/a	n/a	n/a	n/a	n/a	n/a	n/a
372.29	0.99	cognitive	cue	12	low_cue	n/a	n/a	n/a	n/a	n/a	n/a	n/a	n/a	n/a	n/a	n/a	n/a	n/a	n/a	n/a	n/a
374.29	2.28	cognitive	expectrating	12	low_cue	n/a	11.69	Moderate	11.69	Moderate	0.47	1.82	task-social/cue/runtype-cognitive/scl/l047.png	n/a	n/a	n/a	n/a	n/a	n/a	n/a	n/a
381.39	5.0	cognitive	stimulus	12	low_cue	med_stim	n/a	n/a	n/a	n/a	n/a	n/a	task-social/stim/runtype-cognitive/12_100.jpg	n/a	n/a	n/a	n/a	n/a	same	same	True
394.8	2.46	cognitive	outcomerating	12	low_cue	med_stim	11.08	Moderate	11.08	Moderate	0.95	1.51	task-social/outcomerating/task-cognitive_scale.png	n/a	n/a	n/a	n/a	n/a	n/a	n/a	n/a
