onset	duration	subtask_type	question	event_type	participant_response	normative_response	response_accuracy	stim_file	trial_index
0.106	2.001	tomspunt	reaching?	block_question_presentation	n/a	n/a	n/a	n/a	0
0.106	0.3	tomspunt	reaching?	block_question_presentation	n/a	n/a	n/a	n/a	1
0.106	0.3	tomspunt	reaching?	block_question_presentation	n/a	n/a	n/a	n/a	2
0.106	0.3	tomspunt	reaching?	block_question_presentation	n/a	n/a	n/a	n/a	3
0.106	0.3	tomspunt	reaching?	block_question_presentation	n/a	n/a	n/a	n/a	4
0.106	0.3	tomspunt	reaching?	block_question_presentation	n/a	n/a	n/a	n/a	5
0.106	0.3	tomspunt	reaching?	block_question_presentation	n/a	n/a	n/a	n/a	6
0.106	0.3	tomspunt	reaching?	block_question_presentation	n/a	n/a	n/a	n/a	7
5.034	1.212	tomspunt	reaching?	how_hand	yes	yes	correct	task-tomspunt/H_007.jpg	0
6.551	0.954	tomspunt	reaching?	how_hand	no	no	correct	task-tomspunt/H_532.jpg	1
7.818	1.037	tomspunt	reaching?	how_hand	yes	yes	correct	task-tomspunt/H_474.jpg	2
9.169	0.903	tomspunt	reaching?	how_hand	no	no	correct	task-tomspunt/H_438.jpg	3
10.386	0.755	tomspunt	reaching?	how_hand	yes	yes	correct	task-tomspunt/H_364.jpg	4
11.453	0.752	tomspunt	reaching?	how_hand	yes	yes	correct	task-tomspunt/H_006.jpg	5
12.52	0.958	tomspunt	reaching?	how_hand	yes	yes	correct	task-tomspunt/H_003.jpg	6
13.787	0.753	tomspunt	reaching?	how_hand	no	no	correct	task-tomspunt/H_132.jpg	7
17.546	2.101	tomspunt	healthy?	block_question_presentation	n/a	n/a	n/a	n/a	8
17.546	0.3	tomspunt	healthy?	block_question_presentation	n/a	n/a	n/a	n/a	9
17.546	0.3	tomspunt	healthy?	block_question_presentation	n/a	n/a	n/a	n/a	10
17.546	0.3	tomspunt	healthy?	block_question_presentation	n/a	n/a	n/a	n/a	11
17.546	0.3	tomspunt	healthy?	block_question_presentation	n/a	n/a	n/a	n/a	12
17.546	0.3	tomspunt	healthy?	block_question_presentation	n/a	n/a	n/a	n/a	13
17.546	0.3	tomspunt	healthy?	block_question_presentation	n/a	n/a	n/a	n/a	14
17.546	0.3	tomspunt	healthy?	block_question_presentation	n/a	n/a	n/a	n/a	15
22.557	0.855	tomspunt	healthy?	why_hand	yes	yes	correct	task-tomspunt/H_627.jpg	8
23.724	1.005	tomspunt	healthy?	why_hand	yes	yes	correct	task-tomspunt/H_438.jpg	9
25.041	1.219	tomspunt	healthy?	why_hand	yes	yes	correct	task-tomspunt/H_364.jpg	10
26.575	0.87	tomspunt	healthy?	why_hand	no	no	correct	task-tomspunt/H_130.jpg	11
27.759	0.853	tomspunt	healthy?	why_hand	yes	yes	correct	task-tomspunt/H_362.jpg	12
28.926	0.753	tomspunt	healthy?	why_hand	no	no	correct	task-tomspunt/H_007.jpg	13
29.993	0.869	tomspunt	healthy?	why_hand	yes	yes	correct	task-tomspunt/H_167.jpg	14
31.177	0.769	tomspunt	healthy?	why_hand	no	no	correct	task-tomspunt/H_019.jpg	15
36.653	2.101	tomspunt	admiring?	block_question_presentation	n/a	n/a	n/a	n/a	16
36.653	0.3	tomspunt	admiring?	block_question_presentation	n/a	n/a	n/a	n/a	17
36.653	0.3	tomspunt	admiring?	block_question_presentation	n/a	n/a	n/a	n/a	18
36.653	0.3	tomspunt	admiring?	block_question_presentation	n/a	n/a	n/a	n/a	19
36.653	0.3	tomspunt	admiring?	block_question_presentation	n/a	n/a	n/a	n/a	20
36.653	0.3	tomspunt	admiring?	block_question_presentation	n/a	n/a	n/a	n/a	21
36.653	0.3	tomspunt	admiring?	block_question_presentation	n/a	n/a	n/a	n/a	22
36.653	0.3	tomspunt	admiring?	block_question_presentation	n/a	n/a	n/a	n/a	23
41.664	0.719	tomspunt	admiring?	why_face	yes	yes	correct	task-tomspunt/F_779.jpg	16
42.698	0.82	tomspunt	admiring?	why_face	yes	yes	correct	task-tomspunt/F_593.jpg	17
43.832	0.786	tomspunt	admiring?	why_face	no	no	correct	task-tomspunt/F_110.jpg	18
44.932	0.813	tomspunt	admiring?	why_face	yes	yes	correct	task-tomspunt/F_590.jpg	19
46.049	0.946	tomspunt	admiring?	why_face	no	no	correct	task-tomspunt/F_692.jpg	20
47.3	0.786	tomspunt	admiring?	why_face	yes	yes	correct	task-tomspunt/F_759.jpg	21
48.4	0.869	tomspunt	admiring?	why_face	yes	yes	correct	task-tomspunt/F_648.jpg	22
49.584	0.786	tomspunt	admiring?	why_face	no	no	correct	task-tomspunt/F_129.jpg	23
55.61	2.101	tomspunt	smiling?	block_question_presentation	n/a	n/a	n/a	n/a	24
55.61	0.3	tomspunt	smiling?	block_question_presentation	n/a	n/a	n/a	n/a	25
55.61	0.3	tomspunt	smiling?	block_question_presentation	n/a	n/a	n/a	n/a	26
55.61	0.3	tomspunt	smiling?	block_question_presentation	n/a	n/a	n/a	n/a	27
55.61	0.3	tomspunt	smiling?	block_question_presentation	n/a	n/a	n/a	n/a	28
55.61	0.3	tomspunt	smiling?	block_question_presentation	n/a	n/a	n/a	n/a	29
55.61	0.3	tomspunt	smiling?	block_question_presentation	n/a	n/a	n/a	n/a	30
55.61	0.3	tomspunt	smiling?	block_question_presentation	n/a	n/a	n/a	n/a	31
60.621	0.958	tomspunt	smiling?	how_face	yes	yes	correct	task-tomspunt/F_139.jpg	24
61.888	0.707	tomspunt	smiling?	how_face	no	no	correct	task-tomspunt/F_712.jpg	25
62.905	0.623	tomspunt	smiling?	how_face	yes	yes	correct	task-tomspunt/F_695.jpg	26
63.839	0.687	tomspunt	smiling?	how_face	no	no	correct	task-tomspunt/F_758.jpg	27
64.84	0.589	tomspunt	smiling?	how_face	yes	yes	correct	task-tomspunt/F_083.jpg	28
65.74	0.602	tomspunt	smiling?	how_face	yes	yes	correct	task-tomspunt/F_759.jpg	29
66.657	0.538	tomspunt	smiling?	how_face	no	no	correct	task-tomspunt/F_412.jpg	30
67.507	0.622	tomspunt	smiling?	how_face	yes	yes	correct	task-tomspunt/F_593.jpg	31
73.15	2.101	tomspunt	lifting?	block_question_presentation	n/a	n/a	n/a	n/a	32
73.15	0.3	tomspunt	lifting?	block_question_presentation	n/a	n/a	n/a	n/a	33
73.15	0.3	tomspunt	lifting?	block_question_presentation	n/a	n/a	n/a	n/a	34
73.15	0.3	tomspunt	lifting?	block_question_presentation	n/a	n/a	n/a	n/a	35
73.15	0.3	tomspunt	lifting?	block_question_presentation	n/a	n/a	n/a	n/a	36
73.15	0.3	tomspunt	lifting?	block_question_presentation	n/a	n/a	n/a	n/a	37
73.15	0.3	tomspunt	lifting?	block_question_presentation	n/a	n/a	n/a	n/a	38
73.15	0.3	tomspunt	lifting?	block_question_presentation	n/a	n/a	n/a	n/a	39
78.161	0.917	tomspunt	lifting?	how_hand	yes	yes	correct	task-tomspunt/H_136.jpg	32
79.378	0.8	tomspunt	lifting?	how_hand	no	no	correct	task-tomspunt/H_038.jpg	33
80.479	1.319	tomspunt	lifting?	how_hand	yes	yes	correct	task-tomspunt/H_189.jpg	34
82.113	0.886	tomspunt	lifting?	how_hand	no	no	correct	task-tomspunt/H_077.jpg	35
83.313	1.219	tomspunt	lifting?	how_hand	yes	yes	correct	task-tomspunt/H_443.jpg	36
84.847	0.803	tomspunt	lifting?	how_hand	no	no	correct	task-tomspunt/H_012.jpg	37
85.964	0.619	tomspunt	lifting?	how_hand	yes	yes	correct	task-tomspunt/H_362.jpg	38
86.898	1.003	tomspunt	lifting?	how_hand	yes	yes	correct	task-tomspunt/H_170.jpg	39
95.625	2.101	tomspunt	helping?	block_question_presentation	n/a	n/a	n/a	n/a	40
95.625	0.3	tomspunt	helping?	block_question_presentation	n/a	n/a	n/a	n/a	41
95.625	0.3	tomspunt	helping?	block_question_presentation	n/a	n/a	n/a	n/a	42
95.625	0.3	tomspunt	helping?	block_question_presentation	n/a	n/a	n/a	n/a	43
95.625	0.3	tomspunt	helping?	block_question_presentation	n/a	n/a	n/a	n/a	44
95.625	0.3	tomspunt	helping?	block_question_presentation	n/a	n/a	n/a	n/a	45
95.625	0.3	tomspunt	helping?	block_question_presentation	n/a	n/a	n/a	n/a	46
95.625	0.3	tomspunt	helping?	block_question_presentation	n/a	n/a	n/a	n/a	47
100.636	0.776	tomspunt	helping?	why_hand	yes	yes	correct	task-tomspunt/H_077.jpg	40
101.72	0.769	tomspunt	helping?	why_hand	yes	yes	correct	task-tomspunt/H_349.jpg	41
102.804	1.136	tomspunt	helping?	why_hand	yes	yes	correct	task-tomspunt/H_474.jpg	42
104.254	1.224	tomspunt	helping?	why_hand	no	yes	incorrect	task-tomspunt/H_024.jpg	43
105.788	0.941	tomspunt	helping?	why_hand	no	no	correct	task-tomspunt/H_012.jpg	44
107.039	1.107	tomspunt	helping?	why_hand	no	no	correct	task-tomspunt/H_159.jpg	45
108.456	0.973	tomspunt	helping?	why_hand	yes	yes	correct	task-tomspunt/H_111.jpg	46
109.74	0.789	tomspunt	helping?	why_hand	no	no	correct	task-tomspunt/H_091.jpg	47
113.499	2.101	tomspunt	proud?	block_question_presentation	n/a	n/a	n/a	n/a	48
113.499	0.3	tomspunt	proud?	block_question_presentation	n/a	n/a	n/a	n/a	49
113.499	0.3	tomspunt	proud?	block_question_presentation	n/a	n/a	n/a	n/a	50
113.499	0.3	tomspunt	proud?	block_question_presentation	n/a	n/a	n/a	n/a	51
113.499	0.3	tomspunt	proud?	block_question_presentation	n/a	n/a	n/a	n/a	52
113.499	0.3	tomspunt	proud?	block_question_presentation	n/a	n/a	n/a	n/a	53
113.499	0.3	tomspunt	proud?	block_question_presentation	n/a	n/a	n/a	n/a	54
113.499	0.3	tomspunt	proud?	block_question_presentation	n/a	n/a	n/a	n/a	55
118.51	1.019	tomspunt	proud?	why_face	yes	yes	correct	task-tomspunt/F_598.jpg	48
119.843	0.669	tomspunt	proud?	why_face	no	no	correct	task-tomspunt/F_760.jpg	49
120.827	0.752	tomspunt	proud?	why_face	yes	yes	correct	task-tomspunt/F_582.jpg	50
121.894	0.636	tomspunt	proud?	why_face	no	no	correct	task-tomspunt/F_412.jpg	51
122.845	0.852	tomspunt	proud?	why_face	yes	yes	correct	task-tomspunt/F_083.jpg	52
124.012	0.753	tomspunt	proud?	why_face	no	no	correct	task-tomspunt/F_776.jpg	53
125.079	1.0	tomspunt	proud?	why_face	yes	yes	correct	task-tomspunt/F_618.jpg	54
126.379	1.303	tomspunt	proud?	why_face	yes	yes	correct	task-tomspunt/F_695.jpg	55
131.039	2.084	tomspunt	looking to side?	block_question_presentation	n/a	n/a	n/a	n/a	56
131.039	0.3	tomspunt	looking to side?	block_question_presentation	n/a	n/a	n/a	n/a	57
131.039	0.3	tomspunt	looking to side?	block_question_presentation	n/a	n/a	n/a	n/a	58
131.039	0.3	tomspunt	looking to side?	block_question_presentation	n/a	n/a	n/a	n/a	59
131.039	0.3	tomspunt	looking to side?	block_question_presentation	n/a	n/a	n/a	n/a	60
131.039	0.3	tomspunt	looking to side?	block_question_presentation	n/a	n/a	n/a	n/a	61
131.039	0.3	tomspunt	looking to side?	block_question_presentation	n/a	n/a	n/a	n/a	62
131.039	0.3	tomspunt	looking to side?	block_question_presentation	n/a	n/a	n/a	n/a	63
136.033	0.946	tomspunt	looking to side?	how_face	yes	yes	correct	task-tomspunt/F_590.jpg	56
137.283	0.779	tomspunt	looking to side?	how_face	yes	yes	correct	task-tomspunt/F_433.jpg	57
138.367	0.869	tomspunt	looking to side?	how_face	yes	yes	correct	task-tomspunt/F_716.jpg	58
139.551	0.828	tomspunt	looking to side?	how_face	no	no	correct	task-tomspunt/F_779.jpg	59
140.685	1.177	tomspunt	looking to side?	how_face	yes	yes	correct	task-tomspunt/F_760.jpg	60
142.168	1.027	tomspunt	looking to side?	how_face	no	no	correct	task-tomspunt/F_111.jpg	61
143.502	1.46	tomspunt	looking to side?	how_face	yes	yes	correct	task-tomspunt/F_110.jpg	62
145.27	1.126	tomspunt	looking to side?	how_face	no	no	correct	task-tomspunt/F_798.jpg	63
150.146	2.101	tomspunt	argument?	block_question_presentation	n/a	n/a	n/a	n/a	64
150.146	0.3	tomspunt	argument?	block_question_presentation	n/a	n/a	n/a	n/a	65
150.146	0.3	tomspunt	argument?	block_question_presentation	n/a	n/a	n/a	n/a	66
150.146	0.3	tomspunt	argument?	block_question_presentation	n/a	n/a	n/a	n/a	67
150.146	0.3	tomspunt	argument?	block_question_presentation	n/a	n/a	n/a	n/a	68
150.146	0.3	tomspunt	argument?	block_question_presentation	n/a	n/a	n/a	n/a	69
150.146	0.3	tomspunt	argument?	block_question_presentation	n/a	n/a	n/a	n/a	70
150.146	0.3	tomspunt	argument?	block_question_presentation	n/a	n/a	n/a	n/a	71
155.157	0.972	tomspunt	argument?	why_face	yes	yes	correct	task-tomspunt/F_716.jpg	64
156.44	1.138	tomspunt	argument?	why_face	no	no	correct	task-tomspunt/F_139.jpg	65
157.891	0.905	tomspunt	argument?	why_face	yes	yes	correct	task-tomspunt/F_712.jpg	66
159.108	0.737	tomspunt	argument?	why_face	no	no	correct	task-tomspunt/F_433.jpg	67
160.159	0.787	tomspunt	argument?	why_face	yes	yes	correct	task-tomspunt/F_403.jpg	68
161.259	0.77	tomspunt	argument?	why_face	no	no	correct	task-tomspunt/F_844.jpg	69
162.343	0.653	tomspunt	argument?	why_face	yes	yes	correct	task-tomspunt/F_743.jpg	70
163.31	0.836	tomspunt	argument?	why_face	yes	yes	correct	task-tomspunt/F_758.jpg	71
167.986	2.101	tomspunt	open mouth?	block_question_presentation	n/a	n/a	n/a	n/a	72
167.986	0.3	tomspunt	open mouth?	block_question_presentation	n/a	n/a	n/a	n/a	73
167.986	0.3	tomspunt	open mouth?	block_question_presentation	n/a	n/a	n/a	n/a	74
167.986	0.3	tomspunt	open mouth?	block_question_presentation	n/a	n/a	n/a	n/a	75
167.986	0.3	tomspunt	open mouth?	block_question_presentation	n/a	n/a	n/a	n/a	76
167.986	0.3	tomspunt	open mouth?	block_question_presentation	n/a	n/a	n/a	n/a	77
167.986	0.3	tomspunt	open mouth?	block_question_presentation	n/a	n/a	n/a	n/a	78
167.986	0.3	tomspunt	open mouth?	block_question_presentation	n/a	n/a	n/a	n/a	79
172.997	0.619	tomspunt	open mouth?	how_face	yes	yes	correct	task-tomspunt/F_844.jpg	72
173.93	0.52	tomspunt	open mouth?	how_face	yes	yes	correct	task-tomspunt/F_776.jpg	73
174.764	0.569	tomspunt	open mouth?	how_face	no	no	correct	task-tomspunt/F_544.jpg	74
175.648	0.469	tomspunt	open mouth?	how_face	yes	yes	correct	task-tomspunt/F_692.jpg	75
176.431	0.602	tomspunt	open mouth?	how_face	no	no	correct	task-tomspunt/F_584.jpg	76
177.348	0.464	tomspunt	open mouth?	how_face	yes	yes	correct	task-tomspunt/F_403.jpg	77
178.115	0.436	tomspunt	open mouth?	how_face	yes	yes	correct	task-tomspunt/F_086.jpg	78
178.866	0.569	tomspunt	open mouth?	how_face	no	no	correct	task-tomspunt/F_648.jpg	79
185.876	2.101	tomspunt	pressing button?	block_question_presentation	n/a	n/a	n/a	n/a	80
185.876	0.3	tomspunt	pressing button?	block_question_presentation	n/a	n/a	n/a	n/a	81
185.876	0.3	tomspunt	pressing button?	block_question_presentation	n/a	n/a	n/a	n/a	82
185.876	0.3	tomspunt	pressing button?	block_question_presentation	n/a	n/a	n/a	n/a	83
185.876	0.3	tomspunt	pressing button?	block_question_presentation	n/a	n/a	n/a	n/a	84
185.876	0.3	tomspunt	pressing button?	block_question_presentation	n/a	n/a	n/a	n/a	85
185.876	0.3	tomspunt	pressing button?	block_question_presentation	n/a	n/a	n/a	n/a	86
185.876	0.3	tomspunt	pressing button?	block_question_presentation	n/a	n/a	n/a	n/a	87
190.887	0.559	tomspunt	pressing button?	how_hand	yes	yes	correct	task-tomspunt/H_019.jpg	80
191.754	0.842	tomspunt	pressing button?	how_hand	no	no	correct	task-tomspunt/H_024.jpg	81
192.904	0.786	tomspunt	pressing button?	how_hand	no	no	correct	task-tomspunt/H_130.jpg	82
194.005	0.552	tomspunt	pressing button?	how_hand	yes	yes	correct	task-tomspunt/H_502.jpg	83
194.872	0.658	tomspunt	pressing button?	how_hand	no	no	correct	task-tomspunt/H_261.jpg	84
195.839	0.487	tomspunt	pressing button?	how_hand	yes	yes	correct	task-tomspunt/H_332.jpg	85
196.639	0.586	tomspunt	pressing button?	how_hand	yes	yes	correct	task-tomspunt/H_126.jpg	86
197.539	0.79	tomspunt	pressing button?	how_hand	yes	yes	correct	task-tomspunt/H_483.jpg	87
203.666	2.101	tomspunt	competing?	block_question_presentation	n/a	n/a	n/a	n/a	88
203.666	0.3	tomspunt	competing?	block_question_presentation	n/a	n/a	n/a	n/a	89
203.666	0.3	tomspunt	competing?	block_question_presentation	n/a	n/a	n/a	n/a	90
203.666	0.3	tomspunt	competing?	block_question_presentation	n/a	n/a	n/a	n/a	91
203.666	0.3	tomspunt	competing?	block_question_presentation	n/a	n/a	n/a	n/a	92
203.666	0.3	tomspunt	competing?	block_question_presentation	n/a	n/a	n/a	n/a	93
203.666	0.3	tomspunt	competing?	block_question_presentation	n/a	n/a	n/a	n/a	94
203.666	0.3	tomspunt	competing?	block_question_presentation	n/a	n/a	n/a	n/a	95
208.677	1.236	tomspunt	competing?	why_hand	yes	yes	correct	task-tomspunt/H_261.jpg	88
210.227	0.886	tomspunt	competing?	why_hand	no	no	correct	task-tomspunt/H_483.jpg	89
211.428	0.836	tomspunt	competing?	why_hand	yes	yes	correct	task-tomspunt/H_132.jpg	90
212.578	0.869	tomspunt	competing?	why_hand	no	no	correct	task-tomspunt/H_126.jpg	91
213.762	0.752	tomspunt	competing?	why_hand	yes	yes	correct	task-tomspunt/H_136.jpg	92
214.829	1.003	tomspunt	competing?	why_hand	no	no	correct	task-tomspunt/H_502.jpg	93
216.146	0.666	tomspunt	competing?	why_hand	yes	yes	correct	task-tomspunt/H_003.jpg	94
217.113	0.652	tomspunt	competing?	why_hand	yes	yes	correct	task-tomspunt/H_170.jpg	95
221.723	2.101	tomspunt	self-doubt?	block_question_presentation	n/a	n/a	n/a	n/a	96
221.723	0.3	tomspunt	self-doubt?	block_question_presentation	n/a	n/a	n/a	n/a	97
221.723	0.3	tomspunt	self-doubt?	block_question_presentation	n/a	n/a	n/a	n/a	98
221.723	0.3	tomspunt	self-doubt?	block_question_presentation	n/a	n/a	n/a	n/a	99
221.723	0.3	tomspunt	self-doubt?	block_question_presentation	n/a	n/a	n/a	n/a	100
221.723	0.3	tomspunt	self-doubt?	block_question_presentation	n/a	n/a	n/a	n/a	101
221.723	0.3	tomspunt	self-doubt?	block_question_presentation	n/a	n/a	n/a	n/a	102
221.723	0.3	tomspunt	self-doubt?	block_question_presentation	n/a	n/a	n/a	n/a	103
226.733	0.719	tomspunt	self-doubt?	why_face	yes	yes	correct	task-tomspunt/F_544.jpg	96
227.767	0.986	tomspunt	self-doubt?	why_face	no	no	correct	task-tomspunt/F_086.jpg	97
229.068	0.836	tomspunt	self-doubt?	why_face	yes	yes	correct	task-tomspunt/F_798.jpg	98
230.218	0.678	tomspunt	self-doubt?	why_face	yes	yes	correct	task-tomspunt/F_111.jpg	99
231.202	0.594	tomspunt	self-doubt?	why_face	no	no	correct	task-tomspunt/F_774.jpg	100
232.102	0.853	tomspunt	self-doubt?	why_face	yes	yes	correct	task-tomspunt/F_754.jpg	101
233.269	0.819	tomspunt	self-doubt?	why_face	no	no	correct	task-tomspunt/F_128.jpg	102
234.403	1.469	tomspunt	self-doubt?	why_face	no	yes	incorrect	task-tomspunt/F_584.jpg	103
240.78	2.101	tomspunt	looking at camera?	block_question_presentation	n/a	n/a	n/a	n/a	104
240.78	0.3	tomspunt	looking at camera?	block_question_presentation	n/a	n/a	n/a	n/a	105
240.78	0.3	tomspunt	looking at camera?	block_question_presentation	n/a	n/a	n/a	n/a	106
240.78	0.3	tomspunt	looking at camera?	block_question_presentation	n/a	n/a	n/a	n/a	107
240.78	0.3	tomspunt	looking at camera?	block_question_presentation	n/a	n/a	n/a	n/a	108
240.78	0.3	tomspunt	looking at camera?	block_question_presentation	n/a	n/a	n/a	n/a	109
240.78	0.3	tomspunt	looking at camera?	block_question_presentation	n/a	n/a	n/a	n/a	110
240.78	0.3	tomspunt	looking at camera?	block_question_presentation	n/a	n/a	n/a	n/a	111
245.791	0.589	tomspunt	looking at camera?	how_face	yes	yes	correct	task-tomspunt/F_128.jpg	104
246.691	0.554	tomspunt	looking at camera?	how_face	yes	yes	correct	task-tomspunt/F_618.jpg	105
247.558	0.554	tomspunt	looking at camera?	how_face	yes	yes	correct	task-tomspunt/F_598.jpg	106
248.425	0.504	tomspunt	looking at camera?	how_face	no	no	correct	task-tomspunt/F_743.jpg	107
249.242	0.537	tomspunt	looking at camera?	how_face	yes	yes	correct	task-tomspunt/F_774.jpg	108
250.092	0.72	tomspunt	looking at camera?	how_face	no	no	correct	task-tomspunt/F_582.jpg	109
251.126	0.736	tomspunt	looking at camera?	how_face	no	no	correct	task-tomspunt/F_754.jpg	110
252.176	0.653	tomspunt	looking at camera?	how_face	yes	yes	correct	task-tomspunt/F_129.jpg	111
259.57	2.101	tomspunt	both hands?	block_question_presentation	n/a	n/a	n/a	n/a	112
259.57	0.3	tomspunt	both hands?	block_question_presentation	n/a	n/a	n/a	n/a	113
259.57	0.3	tomspunt	both hands?	block_question_presentation	n/a	n/a	n/a	n/a	114
259.57	0.3	tomspunt	both hands?	block_question_presentation	n/a	n/a	n/a	n/a	115
259.57	0.3	tomspunt	both hands?	block_question_presentation	n/a	n/a	n/a	n/a	116
259.57	0.3	tomspunt	both hands?	block_question_presentation	n/a	n/a	n/a	n/a	117
259.57	0.3	tomspunt	both hands?	block_question_presentation	n/a	n/a	n/a	n/a	118
259.57	0.3	tomspunt	both hands?	block_question_presentation	n/a	n/a	n/a	n/a	119
264.581	0.719	tomspunt	both hands?	how_hand	yes	yes	correct	task-tomspunt/H_167.jpg	112
265.615	0.953	tomspunt	both hands?	how_hand	no	no	correct	task-tomspunt/H_091.jpg	113
266.882	0.864	tomspunt	both hands?	how_hand	no	no	correct	task-tomspunt/H_627.jpg	114
268.049	0.663	tomspunt	both hands?	how_hand	yes	yes	correct	task-tomspunt/H_027.jpg	115
269.016	0.82	tomspunt	both hands?	how_hand	yes	yes	correct	task-tomspunt/H_111.jpg	116
270.15	0.986	tomspunt	both hands?	how_hand	no	no	correct	task-tomspunt/H_159.jpg	117
271.45	0.769	tomspunt	both hands?	how_hand	yes	yes	correct	task-tomspunt/H_581.jpg	118
272.534	0.603	tomspunt	both hands?	how_hand	yes	yes	correct	task-tomspunt/H_349.jpg	119
278.36	2.101	tomspunt	self-protection?	block_question_presentation	n/a	n/a	n/a	n/a	120
278.36	0.3	tomspunt	self-protection?	block_question_presentation	n/a	n/a	n/a	n/a	121
278.36	0.3	tomspunt	self-protection?	block_question_presentation	n/a	n/a	n/a	n/a	122
278.36	0.3	tomspunt	self-protection?	block_question_presentation	n/a	n/a	n/a	n/a	123
278.36	0.3	tomspunt	self-protection?	block_question_presentation	n/a	n/a	n/a	n/a	124
278.36	0.3	tomspunt	self-protection?	block_question_presentation	n/a	n/a	n/a	n/a	125
278.36	0.3	tomspunt	self-protection?	block_question_presentation	n/a	n/a	n/a	n/a	126
278.36	0.3	tomspunt	self-protection?	block_question_presentation	n/a	n/a	n/a	n/a	127
283.371	0.591	tomspunt	self-protection?	why_hand	yes	yes	correct	task-tomspunt/H_443.jpg	120
284.272	1.107	tomspunt	self-protection?	why_hand	no	no	correct	task-tomspunt/H_006.jpg	121
285.689	1.14	tomspunt	self-protection?	why_hand	yes	yes	correct	task-tomspunt/H_581.jpg	122
287.139	0.89	tomspunt	self-protection?	why_hand	no	no	correct	task-tomspunt/H_532.jpg	123
288.34	0.773	tomspunt	self-protection?	why_hand	yes	yes	correct	task-tomspunt/H_027.jpg	124
289.424	0.889	tomspunt	self-protection?	why_hand	yes	yes	correct	task-tomspunt/H_038.jpg	125
290.624	0.839	tomspunt	self-protection?	why_hand	no	no	correct	task-tomspunt/H_332.jpg	126
291.774	0.771	tomspunt	self-protection?	why_hand	yes	yes	correct	task-tomspunt/H_189.jpg	127
299.852	2.084	tomspunt	smiling?	block_question_presentation	n/a	n/a	n/a	n/a	128
299.852	0.3	tomspunt	smiling?	block_question_presentation	n/a	n/a	n/a	n/a	129
299.852	0.3	tomspunt	smiling?	block_question_presentation	n/a	n/a	n/a	n/a	130
299.852	0.3	tomspunt	smiling?	block_question_presentation	n/a	n/a	n/a	n/a	131
299.852	0.3	tomspunt	smiling?	block_question_presentation	n/a	n/a	n/a	n/a	132
299.852	0.3	tomspunt	smiling?	block_question_presentation	n/a	n/a	n/a	n/a	133
299.852	0.3	tomspunt	smiling?	block_question_presentation	n/a	n/a	n/a	n/a	134
299.852	0.3	tomspunt	smiling?	block_question_presentation	n/a	n/a	n/a	n/a	135
304.846	0.636	tomspunt	smiling?	how_face	yes	yes	correct	task-tomspunt/F_759.jpg	128
305.796	0.586	tomspunt	smiling?	how_face	no	no	correct	task-tomspunt/F_412.jpg	129
306.697	0.536	tomspunt	smiling?	how_face	yes	yes	correct	task-tomspunt/F_593.jpg	130
307.547	0.669	tomspunt	smiling?	how_face	no	no	correct	task-tomspunt/F_712.jpg	131
308.531	0.599	tomspunt	smiling?	how_face	yes	yes	correct	task-tomspunt/F_695.jpg	132
309.431	0.536	tomspunt	smiling?	how_face	yes	yes	correct	task-tomspunt/F_139.jpg	133
310.281	0.552	tomspunt	smiling?	how_face	yes	yes	correct	task-tomspunt/F_083.jpg	134
311.148	0.619	tomspunt	smiling?	how_face	no	no	correct	task-tomspunt/F_758.jpg	135
317.642	2.084	tomspunt	admiring?	block_question_presentation	n/a	n/a	n/a	n/a	136
317.642	0.3	tomspunt	admiring?	block_question_presentation	n/a	n/a	n/a	n/a	137
317.642	0.3	tomspunt	admiring?	block_question_presentation	n/a	n/a	n/a	n/a	138
317.642	0.3	tomspunt	admiring?	block_question_presentation	n/a	n/a	n/a	n/a	139
317.642	0.3	tomspunt	admiring?	block_question_presentation	n/a	n/a	n/a	n/a	140
317.642	0.3	tomspunt	admiring?	block_question_presentation	n/a	n/a	n/a	n/a	141
317.642	0.3	tomspunt	admiring?	block_question_presentation	n/a	n/a	n/a	n/a	142
317.642	0.3	tomspunt	admiring?	block_question_presentation	n/a	n/a	n/a	n/a	143
322.636	0.602	tomspunt	admiring?	why_face	yes	yes	correct	task-tomspunt/F_593.jpg	136
323.553	0.876	tomspunt	admiring?	why_face	no	no	correct	task-tomspunt/F_129.jpg	137
324.737	0.959	tomspunt	admiring?	why_face	yes	yes	correct	task-tomspunt/F_759.jpg	138
326.004	0.875	tomspunt	admiring?	why_face	no	no	correct	task-tomspunt/F_692.jpg	139
327.188	0.641	tomspunt	admiring?	why_face	yes	yes	correct	task-tomspunt/F_779.jpg	140
328.138	0.869	tomspunt	admiring?	why_face	yes	yes	correct	task-tomspunt/F_590.jpg	141
329.322	0.757	tomspunt	admiring?	why_face	yes	yes	correct	task-tomspunt/F_648.jpg	142
330.389	0.857	tomspunt	admiring?	why_face	no	no	correct	task-tomspunt/F_110.jpg	143
335.532	2.084	tomspunt	competing?	block_question_presentation	n/a	n/a	n/a	n/a	144
335.532	0.3	tomspunt	competing?	block_question_presentation	n/a	n/a	n/a	n/a	145
335.532	0.3	tomspunt	competing?	block_question_presentation	n/a	n/a	n/a	n/a	146
335.532	0.3	tomspunt	competing?	block_question_presentation	n/a	n/a	n/a	n/a	147
335.532	0.3	tomspunt	competing?	block_question_presentation	n/a	n/a	n/a	n/a	148
335.532	0.3	tomspunt	competing?	block_question_presentation	n/a	n/a	n/a	n/a	149
335.532	0.3	tomspunt	competing?	block_question_presentation	n/a	n/a	n/a	n/a	150
335.532	0.3	tomspunt	competing?	block_question_presentation	n/a	n/a	n/a	n/a	151
340.526	0.786	tomspunt	competing?	why_hand	yes	yes	correct	task-tomspunt/H_261.jpg	144
341.626	0.536	tomspunt	competing?	why_hand	yes	yes	correct	task-tomspunt/H_170.jpg	145
342.477	0.886	tomspunt	competing?	why_hand	no	no	correct	task-tomspunt/H_483.jpg	146
343.677	0.686	tomspunt	competing?	why_hand	yes	yes	correct	task-tomspunt/H_132.jpg	147
344.678	0.669	tomspunt	competing?	why_hand	yes	yes	correct	task-tomspunt/H_136.jpg	148
345.661	0.602	tomspunt	competing?	why_hand	yes	yes	correct	task-tomspunt/H_003.jpg	149
346.578	0.653	tomspunt	competing?	why_hand	no	no	correct	task-tomspunt/H_126.jpg	150
347.545	0.87	tomspunt	competing?	why_hand	no	no	correct	task-tomspunt/H_502.jpg	151
357.007	2.101	tomspunt	reaching?	block_question_presentation	n/a	n/a	n/a	n/a	152
357.007	0.3	tomspunt	reaching?	block_question_presentation	n/a	n/a	n/a	n/a	153
357.007	0.3	tomspunt	reaching?	block_question_presentation	n/a	n/a	n/a	n/a	154
357.007	0.3	tomspunt	reaching?	block_question_presentation	n/a	n/a	n/a	n/a	155
357.007	0.3	tomspunt	reaching?	block_question_presentation	n/a	n/a	n/a	n/a	156
357.007	0.3	tomspunt	reaching?	block_question_presentation	n/a	n/a	n/a	n/a	157
357.007	0.3	tomspunt	reaching?	block_question_presentation	n/a	n/a	n/a	n/a	158
357.007	0.3	tomspunt	reaching?	block_question_presentation	n/a	n/a	n/a	n/a	159
362.017	0.619	tomspunt	reaching?	how_hand	yes	yes	correct	task-tomspunt/H_003.jpg	152
362.951	0.736	tomspunt	reaching?	how_hand	yes	yes	correct	task-tomspunt/H_364.jpg	153
364.001	0.869	tomspunt	reaching?	how_hand	no	no	correct	task-tomspunt/H_532.jpg	154
365.185	0.619	tomspunt	reaching?	how_hand	yes	yes	correct	task-tomspunt/H_006.jpg	155
366.119	0.836	tomspunt	reaching?	how_hand	no	no	correct	task-tomspunt/H_438.jpg	156
367.269	0.536	tomspunt	reaching?	how_hand	yes	yes	correct	task-tomspunt/H_007.jpg	157
368.12	0.876	tomspunt	reaching?	how_hand	yes	yes	correct	task-tomspunt/H_474.jpg	158
369.303	0.775	tomspunt	reaching?	how_hand	no	no	correct	task-tomspunt/H_132.jpg	159
374.847	2.101	tomspunt	open mouth?	block_question_presentation	n/a	n/a	n/a	n/a	160
374.847	0.3	tomspunt	open mouth?	block_question_presentation	n/a	n/a	n/a	n/a	161
374.847	0.3	tomspunt	open mouth?	block_question_presentation	n/a	n/a	n/a	n/a	162
374.847	0.3	tomspunt	open mouth?	block_question_presentation	n/a	n/a	n/a	n/a	163
374.847	0.3	tomspunt	open mouth?	block_question_presentation	n/a	n/a	n/a	n/a	164
374.847	0.3	tomspunt	open mouth?	block_question_presentation	n/a	n/a	n/a	n/a	165
374.847	0.3	tomspunt	open mouth?	block_question_presentation	n/a	n/a	n/a	n/a	166
374.847	0.3	tomspunt	open mouth?	block_question_presentation	n/a	n/a	n/a	n/a	167
379.857	0.787	tomspunt	open mouth?	how_face	yes	yes	correct	task-tomspunt/F_403.jpg	160
380.958	0.988	tomspunt	open mouth?	how_face	no	no	correct	task-tomspunt/F_648.jpg	161
382.258	0.537	tomspunt	open mouth?	how_face	yes	yes	correct	task-tomspunt/F_776.jpg	162
383.109	0.586	tomspunt	open mouth?	how_face	no	no	correct	task-tomspunt/F_584.jpg	163
384.009	0.453	tomspunt	open mouth?	how_face	yes	yes	correct	task-tomspunt/F_844.jpg	164
384.776	0.453	tomspunt	open mouth?	how_face	yes	yes	correct	task-tomspunt/F_692.jpg	165
385.543	0.453	tomspunt	open mouth?	how_face	yes	yes	correct	task-tomspunt/F_086.jpg	166
386.31	0.636	tomspunt	open mouth?	how_face	no	no	correct	task-tomspunt/F_544.jpg	167
393.52	2.101	tomspunt	argument?	block_question_presentation	n/a	n/a	n/a	n/a	168
393.52	0.3	tomspunt	argument?	block_question_presentation	n/a	n/a	n/a	n/a	169
393.52	0.3	tomspunt	argument?	block_question_presentation	n/a	n/a	n/a	n/a	170
393.52	0.3	tomspunt	argument?	block_question_presentation	n/a	n/a	n/a	n/a	171
393.52	0.3	tomspunt	argument?	block_question_presentation	n/a	n/a	n/a	n/a	172
393.52	0.3	tomspunt	argument?	block_question_presentation	n/a	n/a	n/a	n/a	173
393.52	0.3	tomspunt	argument?	block_question_presentation	n/a	n/a	n/a	n/a	174
393.52	0.3	tomspunt	argument?	block_question_presentation	n/a	n/a	n/a	n/a	175
398.531	0.936	tomspunt	argument?	why_face	yes	yes	correct	task-tomspunt/F_403.jpg	168
399.782	0.636	tomspunt	argument?	why_face	no	no	correct	task-tomspunt/F_844.jpg	169
400.732	0.62	tomspunt	argument?	why_face	yes	yes	correct	task-tomspunt/F_712.jpg	170
401.666	0.852	tomspunt	argument?	why_face	yes	yes	correct	task-tomspunt/F_758.jpg	171
402.833	0.563	tomspunt	argument?	why_face	no	no	correct	task-tomspunt/F_433.jpg	172
403.7	0.663	tomspunt	argument?	why_face	yes	yes	correct	task-tomspunt/F_716.jpg	173
404.667	0.869	tomspunt	argument?	why_face	no	no	correct	task-tomspunt/F_139.jpg	174
405.85	0.586	tomspunt	argument?	why_face	yes	yes	correct	task-tomspunt/F_743.jpg	175
411.744	2.101	tomspunt	helping?	block_question_presentation	n/a	n/a	n/a	n/a	176
411.744	0.3	tomspunt	helping?	block_question_presentation	n/a	n/a	n/a	n/a	177
411.744	0.3	tomspunt	helping?	block_question_presentation	n/a	n/a	n/a	n/a	178
411.744	0.3	tomspunt	helping?	block_question_presentation	n/a	n/a	n/a	n/a	179
411.744	0.3	tomspunt	helping?	block_question_presentation	n/a	n/a	n/a	n/a	180
411.744	0.3	tomspunt	helping?	block_question_presentation	n/a	n/a	n/a	n/a	181
411.744	0.3	tomspunt	helping?	block_question_presentation	n/a	n/a	n/a	n/a	182
411.744	0.3	tomspunt	helping?	block_question_presentation	n/a	n/a	n/a	n/a	183
416.755	1.141	tomspunt	helping?	why_hand	yes	yes	correct	task-tomspunt/H_024.jpg	176
418.205	1.057	tomspunt	helping?	why_hand	yes	yes	correct	task-tomspunt/H_349.jpg	177
419.572	0.552	tomspunt	helping?	why_hand	yes	yes	correct	task-tomspunt/H_077.jpg	178
420.439	0.774	tomspunt	helping?	why_hand	yes	yes	correct	task-tomspunt/H_474.jpg	179
421.523	0.686	tomspunt	helping?	why_hand	no	no	correct	task-tomspunt/H_091.jpg	180
422.523	0.67	tomspunt	helping?	why_hand	no	no	correct	task-tomspunt/H_159.jpg	181
423.507	0.589	tomspunt	helping?	why_hand	yes	yes	correct	task-tomspunt/H_111.jpg	182
424.407	0.806	tomspunt	helping?	why_hand	no	no	correct	task-tomspunt/H_012.jpg	183
429.817	2.084	tomspunt	both hands?	block_question_presentation	n/a	n/a	n/a	n/a	184
429.817	0.3	tomspunt	both hands?	block_question_presentation	n/a	n/a	n/a	n/a	185
429.817	0.3	tomspunt	both hands?	block_question_presentation	n/a	n/a	n/a	n/a	186
429.817	0.3	tomspunt	both hands?	block_question_presentation	n/a	n/a	n/a	n/a	187
429.817	0.3	tomspunt	both hands?	block_question_presentation	n/a	n/a	n/a	n/a	188
429.817	0.3	tomspunt	both hands?	block_question_presentation	n/a	n/a	n/a	n/a	189
429.817	0.3	tomspunt	both hands?	block_question_presentation	n/a	n/a	n/a	n/a	190
429.817	0.3	tomspunt	both hands?	block_question_presentation	n/a	n/a	n/a	n/a	191
434.811	0.72	tomspunt	both hands?	how_hand	yes	yes	correct	task-tomspunt/H_111.jpg	184
435.845	0.669	tomspunt	both hands?	how_hand	yes	yes	correct	task-tomspunt/H_027.jpg	185
436.829	0.603	tomspunt	both hands?	how_hand	no	no	correct	task-tomspunt/H_091.jpg	186
437.746	0.786	tomspunt	both hands?	how_hand	yes	yes	correct	task-tomspunt/H_167.jpg	187
438.846	0.703	tomspunt	both hands?	how_hand	yes	yes	correct	task-tomspunt/H_581.jpg	188
439.863	0.652	tomspunt	both hands?	how_hand	no	no	correct	task-tomspunt/H_159.jpg	189
440.83	0.619	tomspunt	both hands?	how_hand	yes	yes	correct	task-tomspunt/H_349.jpg	190
441.764	0.67	tomspunt	both hands?	how_hand	no	no	correct	task-tomspunt/H_627.jpg	191
447.324	2.101	tomspunt	healthy?	block_question_presentation	n/a	n/a	n/a	n/a	192
447.324	0.3	tomspunt	healthy?	block_question_presentation	n/a	n/a	n/a	n/a	193
447.324	0.3	tomspunt	healthy?	block_question_presentation	n/a	n/a	n/a	n/a	194
447.324	0.3	tomspunt	healthy?	block_question_presentation	n/a	n/a	n/a	n/a	195
447.324	0.3	tomspunt	healthy?	block_question_presentation	n/a	n/a	n/a	n/a	196
447.324	0.3	tomspunt	healthy?	block_question_presentation	n/a	n/a	n/a	n/a	197
447.324	0.3	tomspunt	healthy?	block_question_presentation	n/a	n/a	n/a	n/a	198
447.324	0.3	tomspunt	healthy?	block_question_presentation	n/a	n/a	n/a	n/a	199
452.335	0.853	tomspunt	healthy?	why_hand	yes	yes	correct	task-tomspunt/H_438.jpg	192
453.502	0.536	tomspunt	healthy?	why_hand	yes	yes	correct	task-tomspunt/H_364.jpg	193
454.352	0.519	tomspunt	healthy?	why_hand	yes	yes	correct	task-tomspunt/H_362.jpg	194
455.186	0.553	tomspunt	healthy?	why_hand	no	no	correct	task-tomspunt/H_019.jpg	195
456.053	0.66	tomspunt	healthy?	why_hand	yes	yes	correct	task-tomspunt/H_167.jpg	196
457.02	0.753	tomspunt	healthy?	why_hand	no	no	correct	task-tomspunt/H_007.jpg	197
458.087	0.709	tomspunt	healthy?	why_hand	yes	yes	correct	task-tomspunt/H_627.jpg	198
459.104	0.609	tomspunt	healthy?	why_hand	no	no	correct	task-tomspunt/H_130.jpg	199
466.381	2.101	tomspunt	pressing button?	block_question_presentation	n/a	n/a	n/a	n/a	200
466.381	0.3	tomspunt	pressing button?	block_question_presentation	n/a	n/a	n/a	n/a	201
466.381	0.3	tomspunt	pressing button?	block_question_presentation	n/a	n/a	n/a	n/a	202
466.381	0.3	tomspunt	pressing button?	block_question_presentation	n/a	n/a	n/a	n/a	203
466.381	0.3	tomspunt	pressing button?	block_question_presentation	n/a	n/a	n/a	n/a	204
466.381	0.3	tomspunt	pressing button?	block_question_presentation	n/a	n/a	n/a	n/a	205
466.381	0.3	tomspunt	pressing button?	block_question_presentation	n/a	n/a	n/a	n/a	206
466.381	0.3	tomspunt	pressing button?	block_question_presentation	n/a	n/a	n/a	n/a	207
471.392	0.654	tomspunt	pressing button?	how_hand	yes	yes	correct	task-tomspunt/H_126.jpg	200
472.359	0.704	tomspunt	pressing button?	how_hand	no	no	correct	task-tomspunt/H_130.jpg	201
473.376	0.52	tomspunt	pressing button?	how_hand	yes	yes	correct	task-tomspunt/H_483.jpg	202
474.209	0.653	tomspunt	pressing button?	how_hand	no	no	correct	task-tomspunt/H_024.jpg	203
475.176	0.469	tomspunt	pressing button?	how_hand	yes	yes	correct	task-tomspunt/H_332.jpg	204
475.96	0.469	tomspunt	pressing button?	how_hand	yes	yes	correct	task-tomspunt/H_019.jpg	205
476.744	0.519	tomspunt	pressing button?	how_hand	no	no	correct	task-tomspunt/H_261.jpg	206
477.577	0.486	tomspunt	pressing button?	how_hand	yes	yes	correct	task-tomspunt/H_502.jpg	207
483.904	2.101	tomspunt	looking at camera?	block_question_presentation	n/a	n/a	n/a	n/a	208
483.904	0.3	tomspunt	looking at camera?	block_question_presentation	n/a	n/a	n/a	n/a	209
483.904	0.3	tomspunt	looking at camera?	block_question_presentation	n/a	n/a	n/a	n/a	210
483.904	0.3	tomspunt	looking at camera?	block_question_presentation	n/a	n/a	n/a	n/a	211
483.904	0.3	tomspunt	looking at camera?	block_question_presentation	n/a	n/a	n/a	n/a	212
483.904	0.3	tomspunt	looking at camera?	block_question_presentation	n/a	n/a	n/a	n/a	213
483.904	0.3	tomspunt	looking at camera?	block_question_presentation	n/a	n/a	n/a	n/a	214
483.904	0.3	tomspunt	looking at camera?	block_question_presentation	n/a	n/a	n/a	n/a	215
488.915	0.486	tomspunt	looking at camera?	how_face	yes	yes	correct	task-tomspunt/F_618.jpg	208
489.715	0.719	tomspunt	looking at camera?	how_face	no	no	correct	task-tomspunt/F_754.jpg	209
490.749	0.519	tomspunt	looking at camera?	how_face	yes	yes	correct	task-tomspunt/F_129.jpg	210
491.583	0.503	tomspunt	looking at camera?	how_face	yes	yes	correct	task-tomspunt/F_598.jpg	211
492.399	0.57	tomspunt	looking at camera?	how_face	yes	yes	correct	task-tomspunt/F_128.jpg	212
493.283	0.536	tomspunt	looking at camera?	how_face	no	no	correct	task-tomspunt/F_582.jpg	213
494.133	0.402	tomspunt	looking at camera?	how_face	yes	yes	correct	task-tomspunt/F_774.jpg	214
494.85	0.579	tomspunt	looking at camera?	how_face	no	no	correct	task-tomspunt/F_743.jpg	215
502.878	2.101	tomspunt	self-doubt?	block_question_presentation	n/a	n/a	n/a	n/a	216
502.878	0.3	tomspunt	self-doubt?	block_question_presentation	n/a	n/a	n/a	n/a	217
502.878	0.3	tomspunt	self-doubt?	block_question_presentation	n/a	n/a	n/a	n/a	218
502.878	0.3	tomspunt	self-doubt?	block_question_presentation	n/a	n/a	n/a	n/a	219
502.878	0.3	tomspunt	self-doubt?	block_question_presentation	n/a	n/a	n/a	n/a	220
502.878	0.3	tomspunt	self-doubt?	block_question_presentation	n/a	n/a	n/a	n/a	221
502.878	0.3	tomspunt	self-doubt?	block_question_presentation	n/a	n/a	n/a	n/a	222
502.878	0.3	tomspunt	self-doubt?	block_question_presentation	n/a	n/a	n/a	n/a	223
507.889	0.64	tomspunt	self-doubt?	why_face	yes	yes	correct	task-tomspunt/F_798.jpg	216
508.839	0.59	tomspunt	self-doubt?	why_face	no	no	correct	task-tomspunt/F_086.jpg	217
509.739	0.636	tomspunt	self-doubt?	why_face	yes	yes	correct	task-tomspunt/F_544.jpg	218
510.69	0.706	tomspunt	self-doubt?	why_face	yes	yes	correct	task-tomspunt/F_754.jpg	219
511.707	0.823	tomspunt	self-doubt?	why_face	yes	yes	correct	task-tomspunt/F_111.jpg	220
512.84	0.855	tomspunt	self-doubt?	why_face	yes	yes	correct	task-tomspunt/F_584.jpg	221
514.008	0.619	tomspunt	self-doubt?	why_face	no	no	correct	task-tomspunt/F_128.jpg	222
514.941	0.588	tomspunt	self-doubt?	why_face	no	no	correct	task-tomspunt/F_774.jpg	223
520.384	2.101	tomspunt	self-protection?	block_question_presentation	n/a	n/a	n/a	n/a	224
520.384	0.3	tomspunt	self-protection?	block_question_presentation	n/a	n/a	n/a	n/a	225
520.384	0.3	tomspunt	self-protection?	block_question_presentation	n/a	n/a	n/a	n/a	226
520.384	0.3	tomspunt	self-protection?	block_question_presentation	n/a	n/a	n/a	n/a	227
520.384	0.3	tomspunt	self-protection?	block_question_presentation	n/a	n/a	n/a	n/a	228
520.384	0.3	tomspunt	self-protection?	block_question_presentation	n/a	n/a	n/a	n/a	229
520.384	0.3	tomspunt	self-protection?	block_question_presentation	n/a	n/a	n/a	n/a	230
520.384	0.3	tomspunt	self-protection?	block_question_presentation	n/a	n/a	n/a	n/a	231
525.395	0.969	tomspunt	self-protection?	why_hand	yes	yes	correct	task-tomspunt/H_581.jpg	224
526.679	0.769	tomspunt	self-protection?	why_hand	yes	yes	correct	task-tomspunt/H_443.jpg	225
527.763	0.752	tomspunt	self-protection?	why_hand	no	no	correct	task-tomspunt/H_332.jpg	226
528.83	0.603	tomspunt	self-protection?	why_hand	yes	yes	correct	task-tomspunt/H_027.jpg	227
529.747	0.736	tomspunt	self-protection?	why_hand	no	no	correct	task-tomspunt/H_532.jpg	228
530.797	0.565	tomspunt	self-protection?	why_hand	yes	yes	correct	task-tomspunt/H_189.jpg	229
531.664	0.648	tomspunt	self-protection?	why_hand	no	no	correct	task-tomspunt/H_006.jpg	230
532.615	0.652	tomspunt	self-protection?	why_hand	yes	yes	correct	task-tomspunt/H_038.jpg	231
538.608	2.101	tomspunt	lifting?	block_question_presentation	n/a	n/a	n/a	n/a	232
538.608	0.3	tomspunt	lifting?	block_question_presentation	n/a	n/a	n/a	n/a	233
538.608	0.3	tomspunt	lifting?	block_question_presentation	n/a	n/a	n/a	n/a	234
538.608	0.3	tomspunt	lifting?	block_question_presentation	n/a	n/a	n/a	n/a	235
538.608	0.3	tomspunt	lifting?	block_question_presentation	n/a	n/a	n/a	n/a	236
538.608	0.3	tomspunt	lifting?	block_question_presentation	n/a	n/a	n/a	n/a	237
538.608	0.3	tomspunt	lifting?	block_question_presentation	n/a	n/a	n/a	n/a	238
538.608	0.3	tomspunt	lifting?	block_question_presentation	n/a	n/a	n/a	n/a	239
543.619	0.57	tomspunt	lifting?	how_hand	yes	yes	correct	task-tomspunt/H_443.jpg	232
544.502	0.944	tomspunt	lifting?	how_hand	no	no	correct	task-tomspunt/H_038.jpg	233
545.753	0.693	tomspunt	lifting?	how_hand	yes	yes	correct	task-tomspunt/H_136.jpg	234
546.753	1.26	tomspunt	lifting?	how_hand	no	no	correct	task-tomspunt/H_012.jpg	235
548.32	0.552	tomspunt	lifting?	how_hand	yes	yes	correct	task-tomspunt/H_362.jpg	236
549.187	1.009	tomspunt	lifting?	how_hand	yes	yes	correct	task-tomspunt/H_189.jpg	237
550.505	0.575	tomspunt	lifting?	how_hand	yes	yes	correct	task-tomspunt/H_170.jpg	238
551.388	0.858	tomspunt	lifting?	how_hand	no	no	correct	task-tomspunt/H_077.jpg	239
556.481	2.101	tomspunt	looking to side?	block_question_presentation	n/a	n/a	n/a	n/a	240
556.481	0.3	tomspunt	looking to side?	block_question_presentation	n/a	n/a	n/a	n/a	241
556.481	0.3	tomspunt	looking to side?	block_question_presentation	n/a	n/a	n/a	n/a	242
556.481	0.3	tomspunt	looking to side?	block_question_presentation	n/a	n/a	n/a	n/a	243
556.481	0.3	tomspunt	looking to side?	block_question_presentation	n/a	n/a	n/a	n/a	244
556.481	0.3	tomspunt	looking to side?	block_question_presentation	n/a	n/a	n/a	n/a	245
556.481	0.3	tomspunt	looking to side?	block_question_presentation	n/a	n/a	n/a	n/a	246
556.481	0.3	tomspunt	looking to side?	block_question_presentation	n/a	n/a	n/a	n/a	247
561.492	0.604	tomspunt	looking to side?	how_face	yes	yes	correct	task-tomspunt/F_716.jpg	240
562.409	0.704	tomspunt	looking to side?	how_face	no	no	correct	task-tomspunt/F_798.jpg	241
563.426	0.753	tomspunt	looking to side?	how_face	yes	yes	correct	task-tomspunt/F_760.jpg	242
564.493	1.103	tomspunt	looking to side?	how_face	yes	yes	correct	task-tomspunt/F_110.jpg	243
565.91	0.936	tomspunt	looking to side?	how_face	no	no	correct	task-tomspunt/F_779.jpg	244
567.161	0.852	tomspunt	looking to side?	how_face	yes	yes	correct	task-tomspunt/F_590.jpg	245
568.328	0.736	tomspunt	looking to side?	how_face	no	no	correct	task-tomspunt/F_111.jpg	246
569.378	0.668	tomspunt	looking to side?	how_face	yes	yes	correct	task-tomspunt/F_433.jpg	247
578.973	2.101	tomspunt	proud?	block_question_presentation	n/a	n/a	n/a	n/a	248
578.973	0.3	tomspunt	proud?	block_question_presentation	n/a	n/a	n/a	n/a	249
578.973	0.3	tomspunt	proud?	block_question_presentation	n/a	n/a	n/a	n/a	250
578.973	0.3	tomspunt	proud?	block_question_presentation	n/a	n/a	n/a	n/a	251
578.973	0.3	tomspunt	proud?	block_question_presentation	n/a	n/a	n/a	n/a	252
578.973	0.3	tomspunt	proud?	block_question_presentation	n/a	n/a	n/a	n/a	253
578.973	0.3	tomspunt	proud?	block_question_presentation	n/a	n/a	n/a	n/a	254
578.973	0.3	tomspunt	proud?	block_question_presentation	n/a	n/a	n/a	n/a	255
583.984	0.62	tomspunt	proud?	why_face	yes	yes	correct	task-tomspunt/F_083.jpg	248
584.917	0.628	tomspunt	proud?	why_face	yes	yes	correct	task-tomspunt/F_582.jpg	249
585.851	0.586	tomspunt	proud?	why_face	yes	yes	correct	task-tomspunt/F_618.jpg	250
586.751	0.536	tomspunt	proud?	why_face	no	no	correct	task-tomspunt/F_776.jpg	251
587.602	0.97	tomspunt	proud?	why_face	yes	yes	correct	task-tomspunt/F_598.jpg	252
588.886	0.619	tomspunt	proud?	why_face	no	no	correct	task-tomspunt/F_760.jpg	253
589.819	0.694	tomspunt	proud?	why_face	no	no	correct	task-tomspunt/F_412.jpg	254
590.82	0.643	tomspunt	proud?	why_face	yes	yes	correct	task-tomspunt/F_695.jpg	255
