onset	duration	run_type	trial_type	trial_index	cue	stimulusintensity	rating_value	rating_glmslabel	rating_value_fillna	rating_glmslabel_fillna	rating_mouseonset	rating_mousedur	stim_file_TODO	pain_onset_ttl1	pain_onset_ttl2	pain_onset_ttl3	pain_onset_ttl4	pain_stimulus_delivery_success	cognitive_correct_response	cognitive_participant_response	cognitive_response_accuracy
9.79	0.99	cognitive	cue	1	high_cue	n/a	n/a	n/a	n/a	n/a	n/a	n/a	task-social/cue/runtype-cognitive/sch/h052.png	n/a	n/a	n/a	n/a	n/a	n/a	n/a	n/a
12.51	3.36	cognitive	expectrating	1	high_cue	n/a	38.3	Strong	38.3	Strong	2.65	0.71	task-social/cue/runtype-cognitive/sch/h052.png	n/a	n/a	n/a	n/a	n/a	n/a	n/a	n/a
20.59	5.0	cognitive	stimulus	1	high_cue	med_stim	n/a	n/a	n/a	n/a	n/a	n/a	task-social/stim/runtype-cognitive/39_100_R.jpg	n/a	n/a	n/a	n/a	n/a	diff	diff	True
29.4	2.05	cognitive	outcomerating	1	high_cue	med_stim	19.31	Moderate	19.31	Moderate	2.65	0.71	task-social/outcomerating/task-cognitive_scale.png	n/a	n/a	n/a	n/a	n/a	n/a	n/a	n/a
34.8	0.98	cognitive	cue	2	high_cue	n/a	n/a	n/a	n/a	n/a	n/a	n/a	task-social/cue/runtype-cognitive/sch/h010.png	n/a	n/a	n/a	n/a	n/a	n/a	n/a	n/a
36.3	2.7	cognitive	expectrating	2	high_cue	n/a	69.44	Very Strong	69.44	Very Strong	0.12	2.58	task-social/cue/runtype-cognitive/sch/h010.png	n/a	n/a	n/a	n/a	n/a	n/a	n/a	n/a
44.4	5.0	cognitive	stimulus	2	high_cue	high_stim	n/a	n/a	n/a	n/a	n/a	n/a	task-social/stim/runtype-cognitive/12_150_R.jpg	n/a	n/a	n/a	n/a	n/a	diff	diff	True
52.79	2.86	cognitive	outcomerating	2	high_cue	high_stim	71.27	Very Strong	71.27	Very Strong	0.12	2.58	task-social/outcomerating/task-cognitive_scale.png	n/a	n/a	n/a	n/a	n/a	n/a	n/a	n/a
60.69	0.99	cognitive	cue	3	low_cue	n/a	n/a	n/a	n/a	n/a	n/a	n/a	task-social/cue/runtype-cognitive/scl/l055.png	n/a	n/a	n/a	n/a	n/a	n/a	n/a	n/a
62.79	2.59	cognitive	expectrating	3	low_cue	n/a	11.36	Moderate	11.36	Moderate	0.08	2.5	task-social/cue/runtype-cognitive/scl/l055.png	n/a	n/a	n/a	n/a	n/a	n/a	n/a	n/a
71.0	5.0	cognitive	stimulus	3	low_cue	high_stim	n/a	n/a	n/a	n/a	n/a	n/a	task-social/stim/runtype-cognitive/43_150.jpg	n/a	n/a	n/a	n/a	n/a	same	same	True
80.8	1.73	cognitive	outcomerating	3	low_cue	high_stim	41.16	Strong	41.16	Strong	0.08	2.5	task-social/outcomerating/task-cognitive_scale.png	n/a	n/a	n/a	n/a	n/a	n/a	n/a	n/a
90.09	0.99	cognitive	cue	4	high_cue	n/a	n/a	n/a	n/a	n/a	n/a	n/a	task-social/cue/runtype-cognitive/sch/h003.png	n/a	n/a	n/a	n/a	n/a	n/a	n/a	n/a
94.0	1.58	cognitive	expectrating	4	high_cue	n/a	62.19	Strong	62.19	Strong	0.48	1.1	task-social/cue/runtype-cognitive/sch/h003.png	n/a	n/a	n/a	n/a	n/a	n/a	n/a	n/a
104.19	5.0	cognitive	stimulus	4	high_cue	low_stim	n/a	n/a	n/a	n/a	n/a	n/a	task-social/stim/runtype-cognitive/8_50_R.jpg	n/a	n/a	n/a	n/a	n/a	diff	diff	True
112.59	2.82	cognitive	outcomerating	4	high_cue	low_stim	22.96	Moderate	22.96	Moderate	0.48	1.1	task-social/outcomerating/task-cognitive_scale.png	n/a	n/a	n/a	n/a	n/a	n/a	n/a	n/a
118.6	0.98	cognitive	cue	5	high_cue	n/a	n/a	n/a	n/a	n/a	n/a	n/a	task-social/cue/runtype-cognitive/sch/h035.png	n/a	n/a	n/a	n/a	n/a	n/a	n/a	n/a
122.5	2.15	cognitive	expectrating	5	high_cue	n/a	57.14	Strong	57.14	Strong	0.47	1.68	task-social/cue/runtype-cognitive/sch/h035.png	n/a	n/a	n/a	n/a	n/a	n/a	n/a	n/a
133.6	5.0	cognitive	stimulus	5	high_cue	med_stim	n/a	n/a	n/a	n/a	n/a	n/a	task-social/stim/runtype-cognitive/41_100_R.jpg	n/a	n/a	n/a	n/a	n/a	diff	diff	True
143.39	1.77	cognitive	outcomerating	5	high_cue	med_stim	9.85	Weak	9.85	Weak	0.47	1.68	task-social/outcomerating/task-cognitive_scale.png	n/a	n/a	n/a	n/a	n/a	n/a	n/a	n/a
157.59	0.99	cognitive	cue	6	low_cue	n/a	n/a	n/a	n/a	n/a	n/a	n/a	task-social/cue/runtype-cognitive/scl/l054.png	n/a	n/a	n/a	n/a	n/a	n/a	n/a	n/a
161.5	1.2	cognitive	expectrating	6	low_cue	n/a	0.0	n/a	0.0	n/a	0.05	1.15	task-social/cue/runtype-cognitive/scl/l054.png	n/a	n/a	n/a	n/a	n/a	n/a	n/a	n/a
168.4	5.0	cognitive	stimulus	6	low_cue	low_stim	n/a	n/a	n/a	n/a	n/a	n/a	task-social/stim/runtype-cognitive/4_50.jpg	n/a	n/a	n/a	n/a	n/a	same	same	True
178.3	1.73	cognitive	outcomerating	6	low_cue	low_stim	18.58	Moderate	18.58	Moderate	0.05	1.15	task-social/outcomerating/task-cognitive_scale.png	n/a	n/a	n/a	n/a	n/a	n/a	n/a	n/a
184.89	0.99	cognitive	cue	7	low_cue	n/a	n/a	n/a	n/a	n/a	n/a	n/a	task-social/cue/runtype-cognitive/scl/l020.png	n/a	n/a	n/a	n/a	n/a	n/a	n/a	n/a
186.39	1.14	cognitive	expectrating	7	low_cue	n/a	0.0	n/a	0.0	n/a	0.22	0.93	task-social/cue/runtype-cognitive/scl/l020.png	n/a	n/a	n/a	n/a	n/a	n/a	n/a	n/a
200.29	5.0	cognitive	stimulus	7	low_cue	med_stim	n/a	n/a	n/a	n/a	n/a	n/a	task-social/stim/runtype-cognitive/4_100.jpg	n/a	n/a	n/a	n/a	n/a	same	same	True
219.1	n/a	cognitive	outcomerating	7	low_cue	med_stim	n/a	n/a	39.63	Strong	0.22	0.93	task-social/outcomerating/task-cognitive_scale.png	n/a	n/a	n/a	n/a	n/a	n/a	n/a	n/a
225.09	0.99	cognitive	cue	8	low_cue	n/a	n/a	n/a	n/a	n/a	n/a	n/a	task-social/cue/runtype-cognitive/scl/l044.png	n/a	n/a	n/a	n/a	n/a	n/a	n/a	n/a
227.2	0.93	cognitive	expectrating	8	low_cue	n/a	0.93	No sensation	0.93	No sensation	0.13	0.8	task-social/cue/runtype-cognitive/scl/l044.png	n/a	n/a	n/a	n/a	n/a	n/a	n/a	n/a
240.09	5.0	cognitive	stimulus	8	low_cue	med_stim	n/a	n/a	n/a	n/a	n/a	n/a	task-social/stim/runtype-cognitive/43_100.jpg	n/a	n/a	n/a	n/a	n/a	same	same	True
250.0	1.37	cognitive	outcomerating	8	low_cue	med_stim	34.33	Strong	34.33	Strong	0.13	0.8	task-social/outcomerating/task-cognitive_scale.png	n/a	n/a	n/a	n/a	n/a	n/a	n/a	n/a
256.0	0.98	cognitive	cue	9	high_cue	n/a	n/a	n/a	n/a	n/a	n/a	n/a	task-social/cue/runtype-cognitive/sch/h018.png	n/a	n/a	n/a	n/a	n/a	n/a	n/a	n/a
258.7	2.67	cognitive	expectrating	9	high_cue	n/a	46.63	Strong	46.63	Strong	0.05	2.62	task-social/cue/runtype-cognitive/sch/h018.png	n/a	n/a	n/a	n/a	n/a	n/a	n/a	n/a
271.59	5.0	cognitive	stimulus	9	high_cue	high_stim	n/a	n/a	n/a	n/a	n/a	n/a	task-social/stim/runtype-cognitive/31_150.jpg	n/a	n/a	n/a	n/a	n/a	same	same	True
283.19	3.72	cognitive	outcomerating	9	high_cue	high_stim	37.19	Strong	37.19	Strong	0.05	2.62	task-social/outcomerating/task-cognitive_scale.png	n/a	n/a	n/a	n/a	n/a	n/a	n/a	n/a
291.59	0.99	cognitive	cue	10	low_cue	n/a	n/a	n/a	n/a	n/a	n/a	n/a	task-social/cue/runtype-cognitive/scl/l023.png	n/a	n/a	n/a	n/a	n/a	n/a	n/a	n/a
293.79	2.14	cognitive	expectrating	10	low_cue	n/a	8.24	Weak	8.24	Weak	1.47	0.67	task-social/cue/runtype-cognitive/scl/l023.png	n/a	n/a	n/a	n/a	n/a	n/a	n/a	n/a
304.9	5.0	cognitive	stimulus	10	low_cue	low_stim	n/a	n/a	n/a	n/a	n/a	n/a	task-social/stim/runtype-cognitive/31_50_R.jpg	n/a	n/a	n/a	n/a	n/a	diff	n/a	False
319.89	3.03	cognitive	outcomerating	10	low_cue	low_stim	14.71	Moderate	14.71	Moderate	1.47	0.67	task-social/outcomerating/task-cognitive_scale.png	n/a	n/a	n/a	n/a	n/a	n/a	n/a	n/a
336.59	0.99	cognitive	cue	11	high_cue	n/a	n/a	n/a	n/a	n/a	n/a	n/a	task-social/cue/runtype-cognitive/sch/h050.png	n/a	n/a	n/a	n/a	n/a	n/a	n/a	n/a
338.29	3.19	cognitive	expectrating	11	high_cue	n/a	66.83	Very Strong	66.83	Very Strong	0.3	2.89	task-social/cue/runtype-cognitive/sch/h050.png	n/a	n/a	n/a	n/a	n/a	n/a	n/a	n/a
350.4	5.0	cognitive	stimulus	11	high_cue	low_stim	n/a	n/a	n/a	n/a	n/a	n/a	task-social/stim/runtype-cognitive/41_50_R.jpg	n/a	n/a	n/a	n/a	n/a	diff	diff	True
363.49	2.56	cognitive	outcomerating	11	high_cue	low_stim	9.5	Weak	9.5	Weak	0.3	2.89	task-social/outcomerating/task-cognitive_scale.png	n/a	n/a	n/a	n/a	n/a	n/a	n/a	n/a
367.99	0.99	cognitive	cue	12	low_cue	n/a	n/a	n/a	n/a	n/a	n/a	n/a	task-social/cue/runtype-cognitive/scl/l013.png	n/a	n/a	n/a	n/a	n/a	n/a	n/a	n/a
369.79	1.46	cognitive	expectrating	12	low_cue	n/a	0.23	No sensation	0.23	No sensation	0.7	0.76	task-social/cue/runtype-cognitive/scl/l013.png	n/a	n/a	n/a	n/a	n/a	n/a	n/a	n/a
380.29	5.0	cognitive	stimulus	12	low_cue	high_stim	n/a	n/a	n/a	n/a	n/a	n/a	task-social/stim/runtype-cognitive/4_150.jpg	n/a	n/a	n/a	n/a	n/a	same	same	True
394.8	n/a	cognitive	outcomerating	12	low_cue	high_stim	n/a	n/a	10.45	Moderate	0.7	0.76	task-social/outcomerating/task-cognitive_scale.png	n/a	n/a	n/a	n/a	n/a	n/a	n/a	n/a
