onset	duration	subtask_type	question	event_type	participant_response	normative_response	response_accuracy	stim_file
5.019479990005493	1.5024101734161377	tomspunt	reaching?	how_hand	yes	yes	correct	task-tomspunt/H_007.jpg
6.836830139160156	0.0179100036621093	tomspunt	reaching?	how_hand	yes	no	incorrect	task-tomspunt/H_532.jpg
7.1702799797058105	1.8782601356506348	tomspunt	reaching?	how_hand	yes	yes	correct	task-tomspunt/H_474.jpg
9.20438003540039	0.0188500881195068	tomspunt	reaching?	how_hand	yes	no	incorrect	task-tomspunt/H_438.jpg
9.537830114364624	1.1180799007415771	tomspunt	reaching?	how_hand	yes	yes	correct	task-tomspunt/H_364.jpg
10.95502996444702	1.23580002784729	tomspunt	reaching?	how_hand	yes	yes	correct	task-tomspunt/H_006.jpg
12.50560998916626	1.1811800003051758	tomspunt	reaching?	how_hand	yes	yes	correct	task-tomspunt/H_003.jpg
13.989490032196043	0.0177700519561767	tomspunt	reaching?	how_hand	yes	no	incorrect	task-tomspunt/H_132.jpg
22.559360027313232	1.8896100521087649	tomspunt	healthy?	why_hand	no	yes	incorrect	task-tomspunt/H_627.jpg
24.59345006942749	0.0180799961090087	tomspunt	healthy?	why_hand	no	yes	incorrect	task-tomspunt/H_438.jpg
24.92691016197205	1.1013898849487305	tomspunt	healthy?	why_hand	yes	yes	correct	task-tomspunt/H_364.jpg
26.34409999847412	1.2595300674438477	tomspunt	healthy?	why_hand	no	no	correct	task-tomspunt/H_130.jpg
27.91135001182556	1.0021600723266602	tomspunt	healthy?	why_hand	yes	yes	correct	task-tomspunt/H_362.jpg
29.22851014137268	1.501689910888672	tomspunt	healthy?	why_hand	no	no	correct	task-tomspunt/H_007.jpg
31.04585003852844	1.234950065612793	tomspunt	healthy?	why_hand	yes	yes	correct	task-tomspunt/H_167.jpg
32.59643006324768	1.7291100025177002	tomspunt	healthy?	why_hand	no	no	correct	task-tomspunt/H_019.jpg
41.66648006439209	1.2535099983215332	tomspunt	admiring?	why_face	yes	yes	correct	task-tomspunt/F_779.jpg
43.23373007774353	1.4531199932098389	tomspunt	admiring?	why_face	yes	yes	correct	task-tomspunt/F_593.jpg
45.001060009002686	1.0021100044250488	tomspunt	admiring?	why_face	no	no	correct	task-tomspunt/F_110.jpg
46.318220138549805	0.6347298622131348	tomspunt	admiring?	why_face	yes	yes	correct	task-tomspunt/F_590.jpg
47.26857018470764	1.9835498332977295	tomspunt	admiring?	why_face	yes	no	incorrect	task-tomspunt/F_692.jpg
49.30265998840332	0.0181100368499755	tomspunt	admiring?	why_face	yes	yes	correct	task-tomspunt/F_759.jpg
49.63612008094787	1.1853399276733398	tomspunt	admiring?	why_face	yes	yes	correct	task-tomspunt/F_648.jpg
51.136680126190186	0.9661600589752196	tomspunt	admiring?	why_face	yes	no	incorrect	task-tomspunt/F_129.jpg
60.62355017662048	1.268939971923828	tomspunt	smiling?	how_face	yes	yes	correct	task-tomspunt/F_139.jpg
62.20747995376587	1.0347201824188232	tomspunt	smiling?	how_face	no	no	correct	task-tomspunt/F_712.jpg
63.55798006057739	0.8355700969696045	tomspunt	smiling?	how_face	yes	yes	correct	task-tomspunt/F_695.jpg
64.70841002464294	0.0181400775909423	tomspunt	smiling?	how_face	yes	no	incorrect	task-tomspunt/F_758.jpg
65.04186010360718	0.835439920425415	tomspunt	smiling?	how_face	yes	yes	correct	task-tomspunt/F_083.jpg
66.19229006767273	n/a	tomspunt	smiling?	how_face	n/a	yes	incorrect	task-tomspunt/F_759.jpg
68.22639012336731	0.9853999614715576	tomspunt	smiling?	how_face	no	no	correct	task-tomspunt/F_412.jpg
69.52687001228333	0.9093401432037354	tomspunt	smiling?	how_face	yes	yes	correct	task-tomspunt/F_593.jpg
78.16342997550964	1.190190076828003	tomspunt	lifting?	how_hand	yes	yes	correct	task-tomspunt/H_136.jpg
79.66398000717163	1.1227900981903076	tomspunt	lifting?	how_hand	no	no	correct	task-tomspunt/H_038.jpg
81.09785008430481	1.0390100479125977	tomspunt	lifting?	how_hand	yes	yes	correct	task-tomspunt/H_189.jpg
82.44835996627808	1.4384100437164309	tomspunt	lifting?	how_hand	no	no	correct	task-tomspunt/H_077.jpg
84.19901013374329	0.9014298915863036	tomspunt	lifting?	how_hand	yes	yes	correct	task-tomspunt/H_443.jpg
85.41613006591797	0.0207600593566894	tomspunt	lifting?	how_hand	yes	no	incorrect	task-tomspunt/H_012.jpg
85.74959015846252	1.0872600078582764	tomspunt	lifting?	how_hand	yes	yes	correct	task-tomspunt/H_362.jpg
87.1501100063324	1.4534101486206057	tomspunt	lifting?	how_hand	yes	yes	correct	task-tomspunt/H_170.jpg
100.63847017288208	1.939469814300537	tomspunt	helping?	why_hand	yes	yes	correct	task-tomspunt/H_077.jpg
102.67256999015808	0.0184400081634521	tomspunt	helping?	why_hand	yes	yes	correct	task-tomspunt/H_349.jpg
103.00602006912231	1.6355900764465332	tomspunt	helping?	why_hand	no	yes	incorrect	task-tomspunt/H_474.jpg
104.95675015449524	1.2681498527526855	tomspunt	helping?	why_hand	yes	yes	correct	task-tomspunt/H_024.jpg
106.54067015647888	n/a	tomspunt	helping?	why_hand	n/a	no	incorrect	task-tomspunt/H_012.jpg
108.57476997375488	1.6683800220489502	tomspunt	helping?	why_hand	no	no	correct	task-tomspunt/H_159.jpg
110.5588400363922	1.0848000049591064	tomspunt	helping?	why_hand	yes	yes	correct	task-tomspunt/H_111.jpg
111.95936012268066	0.94350004196167	tomspunt	helping?	why_hand	yes	no	incorrect	task-tomspunt/H_091.jpg
118.5118100643158	1.3688600063323977	tomspunt	proud?	why_face	yes	yes	correct	task-tomspunt/F_598.jpg
120.1957700252533	0.8346600532531738	tomspunt	proud?	why_face	no	no	correct	task-tomspunt/F_760.jpg
121.34619998931883	0.9013900756835938	tomspunt	proud?	why_face	yes	yes	correct	task-tomspunt/F_582.jpg
122.56332015991212	0.8228700160980225	tomspunt	proud?	why_face	no	no	correct	task-tomspunt/F_412.jpg
123.69707012176514	1.0724499225616455	tomspunt	proud?	why_face	yes	yes	correct	task-tomspunt/F_083.jpg
125.0809199810028	1.5724701881408691	tomspunt	proud?	why_face	no	no	correct	task-tomspunt/F_776.jpg
126.9649600982666	0.65447998046875	tomspunt	proud?	why_face	yes	yes	correct	task-tomspunt/F_618.jpg
127.93199014663696	1.865609884262085	tomspunt	proud?	why_face	yes	yes	correct	task-tomspunt/F_695.jpg
136.035010099411	1.3190200328826904	tomspunt	looking to side?	how_face	yes	yes	correct	task-tomspunt/F_590.jpg
137.66895008087158	0.7178599834442139	tomspunt	looking to side?	how_face	yes	yes	correct	task-tomspunt/F_433.jpg
138.70267009735107	0.767970085144043	tomspunt	looking to side?	how_face	yes	yes	correct	task-tomspunt/F_716.jpg
139.7864100933075	1.2522599697113037	tomspunt	looking to side?	how_face	no	no	correct	task-tomspunt/F_779.jpg
141.35366010665894	1.0658700466156006	tomspunt	looking to side?	how_face	no	yes	incorrect	task-tomspunt/F_760.jpg
142.72082996368408	1.2015202045440674	tomspunt	looking to side?	how_face	no	no	correct	task-tomspunt/F_111.jpg
144.23807001113892	0.9355101585388184	tomspunt	looking to side?	how_face	yes	yes	correct	task-tomspunt/F_110.jpg
145.48853015899658	1.29830002784729	tomspunt	looking to side?	how_face	no	no	correct	task-tomspunt/F_798.jpg
155.14213013648987	1.9369699954986572	tomspunt	argument?	why_face	yes	yes	correct	task-tomspunt/F_716.jpg
157.17622017860413	0.0181498527526855	tomspunt	argument?	why_face	yes	no	incorrect	task-tomspunt/F_139.jpg
157.5096800327301	1.0686399936676023	tomspunt	argument?	why_face	no	yes	incorrect	task-tomspunt/F_712.jpg
158.89353013038635	1.0934698581695557	tomspunt	argument?	why_face	no	no	correct	task-tomspunt/F_433.jpg
160.29404997825625	0.884890079498291	tomspunt	argument?	why_face	yes	yes	correct	task-tomspunt/F_403.jpg
161.49450016021729	1.1520898342132568	tomspunt	argument?	why_face	no	no	correct	task-tomspunt/F_844.jpg
162.9617099761963	1.008430004119873	tomspunt	argument?	why_face	yes	yes	correct	task-tomspunt/F_743.jpg
164.2788701057434	1.1573600769042969	tomspunt	argument?	why_face	yes	yes	correct	task-tomspunt/F_758.jpg
172.98212003707886	0.8212499618530273	tomspunt	open mouth?	how_face	yes	yes	correct	task-tomspunt/F_844.jpg
174.11586999893188	0.637470006942749	tomspunt	open mouth?	how_face	yes	yes	correct	task-tomspunt/F_776.jpg
175.06623005867004	0.9365799427032472	tomspunt	open mouth?	how_face	no	no	correct	task-tomspunt/F_544.jpg
176.31669998168945	1.0861601829528809	tomspunt	open mouth?	how_face	yes	yes	correct	task-tomspunt/F_692.jpg
177.7172200679779	0.0196900367736816	tomspunt	open mouth?	how_face	yes	no	incorrect	task-tomspunt/F_584.jpg
178.05068016052246	1.036019802093506	tomspunt	open mouth?	how_face	yes	yes	correct	task-tomspunt/F_403.jpg
179.4011800289154	1.0682499408721924	tomspunt	open mouth?	how_face	yes	yes	correct	task-tomspunt/F_086.jpg
180.78503012657168	0.9854700565338136	tomspunt	open mouth?	how_face	no	no	correct	task-tomspunt/F_648.jpg
190.87212014198303	1.101569890975952	tomspunt	pressing button?	how_hand	yes	yes	correct	task-tomspunt/H_019.jpg
192.28931999206543	n/a	tomspunt	pressing button?	how_hand	n/a	no	incorrect	task-tomspunt/H_024.jpg
194.3234100341797	0.963210105895996	tomspunt	pressing button?	how_hand	no	no	correct	task-tomspunt/H_130.jpg
195.59055018424988	0.818809986114502	tomspunt	pressing button?	how_hand	yes	yes	correct	task-tomspunt/H_502.jpg
196.72431015968323	0.9348199367523192	tomspunt	pressing button?	how_hand	no	no	correct	task-tomspunt/H_261.jpg
197.97477006912231	0.7690799236297607	tomspunt	pressing button?	how_hand	yes	yes	correct	task-tomspunt/H_332.jpg
199.0585100650787	1.0776898860931396	tomspunt	pressing button?	how_hand	yes	yes	correct	task-tomspunt/H_126.jpg
200.442360162735	1.5612399578094482	tomspunt	pressing button?	how_hand	no	yes	incorrect	task-tomspunt/H_483.jpg
208.6620900630951	1.3020598888397217	tomspunt	competing?	why_hand	yes	yes	correct	task-tomspunt/H_261.jpg
210.27936005592343	1.5407600402832031	tomspunt	competing?	why_hand	no	no	correct	task-tomspunt/H_483.jpg
212.13005018234253	0.7901599407196045	tomspunt	competing?	why_hand	yes	yes	correct	task-tomspunt/H_132.jpg
213.23046016693115	1.006349802017212	tomspunt	competing?	why_hand	no	no	correct	task-tomspunt/H_126.jpg
214.5476200580597	0.9553000926971436	tomspunt	competing?	why_hand	yes	yes	correct	task-tomspunt/H_136.jpg
215.8147599697113	1.2554101943969729	tomspunt	competing?	why_hand	no	no	correct	task-tomspunt/H_502.jpg
217.38200998306272	0.7209100723266602	tomspunt	competing?	why_hand	yes	yes	correct	task-tomspunt/H_003.jpg
218.41572999954224	0.7370800971984863	tomspunt	competing?	why_hand	yes	yes	correct	task-tomspunt/H_170.jpg
226.7355000972748	1.2021100521087646	tomspunt	self-doubt?	why_face	yes	yes	correct	task-tomspunt/F_544.jpg
228.2527301311493	0.9181399345397948	tomspunt	self-doubt?	why_face	no	no	correct	task-tomspunt/F_086.jpg
229.48652005195615	0.935499906539917	tomspunt	self-doubt?	why_face	yes	yes	correct	task-tomspunt/F_798.jpg
230.7369899749756	0.8188400268554688	tomspunt	self-doubt?	why_face	yes	yes	correct	task-tomspunt/F_111.jpg
231.87074995040896	0.8988401889801025	tomspunt	self-doubt?	why_face	no	no	correct	task-tomspunt/F_774.jpg
233.07119011878967	1.7022500038146973	tomspunt	self-doubt?	why_face	no	yes	incorrect	task-tomspunt/F_754.jpg
235.08861017227173	1.3352599143981934	tomspunt	self-doubt?	why_face	no	no	correct	task-tomspunt/F_128.jpg
236.7392301559448	n/a	tomspunt	self-doubt?	why_face	n/a	yes	incorrect	task-tomspunt/F_584.jpg
245.79261016845703	1.2520699501037598	tomspunt	looking at camera?	how_face	yes	yes	correct	task-tomspunt/F_128.jpg
247.35986018180847	0.9430599212646484	tomspunt	looking at camera?	how_face	yes	yes	correct	task-tomspunt/F_618.jpg
248.61032009124756	0.8680598735809326	tomspunt	looking at camera?	how_face	yes	yes	correct	task-tomspunt/F_598.jpg
249.79410004615784	0.6686899662017822	tomspunt	looking at camera?	how_face	no	no	correct	task-tomspunt/F_743.jpg
250.7778000831604	0.7014200687408447	tomspunt	looking at camera?	how_face	yes	yes	correct	task-tomspunt/F_774.jpg
251.79484009742737	0.9688000679016112	tomspunt	looking at camera?	how_face	no	no	correct	task-tomspunt/F_582.jpg
253.0786499977112	0.7854001522064209	tomspunt	looking at camera?	how_face	no	no	correct	task-tomspunt/F_754.jpg
254.17906999588013	0.9406700134277344	tomspunt	looking at camera?	how_face	yes	yes	correct	task-tomspunt/F_129.jpg
264.58295011520386	n/a	tomspunt	both hands?	how_hand	n/a	yes	incorrect	task-tomspunt/H_167.jpg
266.6170401573181	1.18572998046875	tomspunt	both hands?	how_hand	no	no	correct	task-tomspunt/H_091.jpg
268.11759996414185	1.2192401885986328	tomspunt	both hands?	how_hand	no	no	correct	task-tomspunt/H_627.jpg
269.65149998664856	0.9521801471710204	tomspunt	both hands?	how_hand	yes	yes	correct	task-tomspunt/H_027.jpg
270.91864013671875	1.001689910888672	tomspunt	both hands?	how_hand	yes	yes	correct	task-tomspunt/H_111.jpg
272.2358000278473	0.951970100402832	tomspunt	both hands?	how_hand	no	no	correct	task-tomspunt/H_159.jpg
273.5029401779175	1.385589838027954	tomspunt	both hands?	how_hand	yes	yes	correct	task-tomspunt/H_581.jpg
275.2035701274872	0.018129825592041	tomspunt	both hands?	how_hand	yes	yes	correct	task-tomspunt/H_349.jpg
283.3732900619507	0.9516201019287108	tomspunt	self-protection?	why_hand	yes	yes	correct	task-tomspunt/H_443.jpg
284.6404299736023	0.8464300632476807	tomspunt	self-protection?	why_hand	no	no	correct	task-tomspunt/H_006.jpg
285.7908501625061	1.1354498863220217	tomspunt	self-protection?	why_hand	yes	yes	correct	task-tomspunt/H_581.jpg
287.2413899898529	1.128950119018555	tomspunt	self-protection?	why_hand	no	no	correct	task-tomspunt/H_532.jpg
288.6752600669861	1.0015099048614502	tomspunt	self-protection?	why_hand	yes	yes	correct	task-tomspunt/H_027.jpg
289.9924199581146	1.2438201904296875	tomspunt	self-protection?	why_hand	yes	yes	correct	task-tomspunt/H_038.jpg
291.54299998283386	1.277290105819702	tomspunt	self-protection?	why_hand	no	no	correct	task-tomspunt/H_332.jpg
293.1269199848175	0.9680299758911132	tomspunt	self-protection?	why_hand	yes	yes	correct	task-tomspunt/H_189.jpg
304.8479599952698	1.038640022277832	tomspunt	smiling?	how_face	yes	yes	correct	task-tomspunt/F_759.jpg
306.1984601020813	0.0221998691558837	tomspunt	smiling?	how_face	yes	no	incorrect	task-tomspunt/F_412.jpg
306.5319199562073	0.918760061264038	tomspunt	smiling?	how_face	yes	yes	correct	task-tomspunt/F_593.jpg
307.76572012901306	0.7037699222564697	tomspunt	smiling?	how_face	no	no	correct	task-tomspunt/F_712.jpg
308.78276014328003	0.7536098957061768	tomspunt	smiling?	how_face	yes	yes	correct	task-tomspunt/F_695.jpg
309.84983015060425	1.3537499904632568	tomspunt	smiling?	how_face	yes	yes	correct	task-tomspunt/F_139.jpg
311.5171101093292	0.6366598606109619	tomspunt	smiling?	how_face	yes	yes	correct	task-tomspunt/F_083.jpg
312.4674701690674	0.8027598857879639	tomspunt	smiling?	how_face	no	no	correct	task-tomspunt/F_758.jpg
322.6379301548004	n/a	tomspunt	admiring?	why_face	n/a	yes	incorrect	task-tomspunt/F_593.jpg
324.6720199584961	1.0648000240325928	tomspunt	admiring?	why_face	no	no	correct	task-tomspunt/F_129.jpg
326.03920006752014	1.0689001083374023	tomspunt	admiring?	why_face	yes	yes	correct	task-tomspunt/F_759.jpg
327.4230501651764	1.235299825668335	tomspunt	admiring?	why_face	yes	no	incorrect	task-tomspunt/F_692.jpg
328.9736201763153	1.4855999946594238	tomspunt	admiring?	why_face	yes	yes	correct	task-tomspunt/F_779.jpg
330.7743000984192	0.8349099159240723	tomspunt	admiring?	why_face	yes	yes	correct	task-tomspunt/F_590.jpg
331.9247200489044	0.795490026473999	tomspunt	admiring?	why_face	yes	yes	correct	task-tomspunt/F_648.jpg
333.02513003349304	0.8680999279022217	tomspunt	admiring?	why_face	no	no	correct	task-tomspunt/F_110.jpg
340.527930021286	1.1588001251220703	tomspunt	competing?	why_hand	yes	yes	correct	task-tomspunt/H_261.jpg
341.9951500892639	0.5578100681304932	tomspunt	competing?	why_hand	yes	yes	correct	task-tomspunt/H_170.jpg
342.8621401786804	1.1079399585723877	tomspunt	competing?	why_hand	no	no	correct	task-tomspunt/H_483.jpg
344.2793300151825	0.7908501625061035	tomspunt	competing?	why_hand	yes	yes	correct	task-tomspunt/H_132.jpg
345.3797399997711	0.8186700344085693	tomspunt	competing?	why_hand	yes	yes	correct	task-tomspunt/H_136.jpg
346.51349997520447	n/a	tomspunt	competing?	why_hand	n/a	yes	incorrect	task-tomspunt/H_003.jpg
348.5475900173187	1.405790090560913	tomspunt	competing?	why_hand	no	no	correct	task-tomspunt/H_126.jpg
350.26489996910095	0.7552201747894287	tomspunt	competing?	why_hand	no	no	correct	task-tomspunt/H_502.jpg
362.0192799568176	1.0020902156829834	tomspunt	reaching?	how_hand	yes	yes	correct	task-tomspunt/H_003.jpg
363.33644008636475	1.0351998805999756	tomspunt	reaching?	how_hand	yes	yes	correct	task-tomspunt/H_364.jpg
364.6869399547577	1.3689100742340088	tomspunt	reaching?	how_hand	no	no	correct	task-tomspunt/H_532.jpg
366.37090015411377	1.0327599048614502	tomspunt	reaching?	how_hand	yes	yes	correct	task-tomspunt/H_006.jpg
367.7047300338745	1.7841401100158691	tomspunt	reaching?	how_hand	no	no	correct	task-tomspunt/H_438.jpg
369.7388300895691	0.7521700859069824	tomspunt	reaching?	how_hand	yes	yes	correct	task-tomspunt/H_007.jpg
370.805890083313	1.747459888458252	tomspunt	reaching?	how_hand	no	yes	incorrect	task-tomspunt/H_474.jpg
372.8399801254273	1.201469898223877	tomspunt	reaching?	how_hand	no	no	correct	task-tomspunt/H_132.jpg
379.8592700958252	n/a	tomspunt	open mouth?	how_face	n/a	yes	incorrect	task-tomspunt/F_403.jpg
381.89336013793945	1.226249933242798	tomspunt	open mouth?	how_face	no	no	correct	task-tomspunt/F_648.jpg
383.4272701740265	0.6097300052642822	tomspunt	open mouth?	how_face	yes	yes	correct	task-tomspunt/F_776.jpg
384.344269990921	0.8517301082611084	tomspunt	open mouth?	how_face	no	no	correct	task-tomspunt/F_584.jpg
385.5113799571991	0.6351602077484131	tomspunt	open mouth?	how_face	yes	yes	correct	task-tomspunt/F_844.jpg
386.46173000335693	0.7346501350402832	tomspunt	open mouth?	how_face	yes	yes	correct	task-tomspunt/F_692.jpg
387.5121200084686	0.818580150604248	tomspunt	open mouth?	how_face	yes	yes	correct	task-tomspunt/F_086.jpg
388.645879983902	1.6244001388549805	tomspunt	open mouth?	how_face	no	no	correct	task-tomspunt/F_544.jpg
398.5329000949859	1.336740016937256	tomspunt	argument?	why_face	yes	yes	correct	task-tomspunt/F_403.jpg
400.18351006507874	0.669640064239502	tomspunt	argument?	why_face	no	no	correct	task-tomspunt/F_844.jpg
401.1672101020813	1.4690399169921875	tomspunt	argument?	why_face	yes	yes	correct	task-tomspunt/F_712.jpg
402.95121002197266	0.93569016456604	tomspunt	argument?	why_face	yes	yes	correct	task-tomspunt/F_758.jpg
404.20168018341064	0.6518898010253906	tomspunt	argument?	why_face	no	no	correct	task-tomspunt/F_433.jpg
405.1687099933624	0.8347201347351074	tomspunt	argument?	why_face	yes	yes	correct	task-tomspunt/F_716.jpg
406.319139957428	0.8183200359344482	tomspunt	argument?	why_face	no	no	correct	task-tomspunt/F_139.jpg
407.4528901576996	0.8680398464202881	tomspunt	argument?	why_face	yes	yes	correct	task-tomspunt/F_743.jpg
416.7563600540161	1.218830108642578	tomspunt	helping?	why_hand	yes	yes	correct	task-tomspunt/H_024.jpg
418.2902700901031	0.8351099491119385	tomspunt	helping?	why_hand	yes	yes	correct	task-tomspunt/H_349.jpg
419.4407000541687	0.0183799266815185	tomspunt	helping?	why_hand	yes	yes	correct	task-tomspunt/H_077.jpg
419.77415013313293	1.48511004447937	tomspunt	helping?	why_hand	no	yes	incorrect	task-tomspunt/H_474.jpg
421.5748200416565	1.685840129852295	tomspunt	helping?	why_hand	no	no	correct	task-tomspunt/H_091.jpg
423.57557010650635	1.1854798793792725	tomspunt	helping?	why_hand	no	no	correct	task-tomspunt/H_159.jpg
425.07613015174866	1.3107600212097168	tomspunt	helping?	why_hand	yes	yes	correct	task-tomspunt/H_111.jpg
426.693400144577	0.0270099639892578	tomspunt	helping?	why_hand	yes	no	incorrect	task-tomspunt/H_012.jpg
434.8130900859833	n/a	tomspunt	both hands?	how_hand	n/a	yes	incorrect	task-tomspunt/H_111.jpg
436.84719014167786	0.7021999359130859	tomspunt	both hands?	how_hand	yes	yes	correct	task-tomspunt/H_027.jpg
437.8642301559448	0.9017298221588136	tomspunt	both hands?	how_hand	no	no	correct	task-tomspunt/H_091.jpg
439.0813500881195	1.3849000930786133	tomspunt	both hands?	how_hand	yes	yes	correct	task-tomspunt/H_167.jpg
440.78199005126953	1.0187199115753174	tomspunt	both hands?	how_hand	yes	yes	correct	task-tomspunt/H_581.jpg
442.11582016944885	1.2045400142669678	tomspunt	both hands?	how_hand	no	no	correct	task-tomspunt/H_159.jpg
443.6330499649048	0.8535699844360352	tomspunt	both hands?	how_hand	yes	yes	correct	task-tomspunt/H_349.jpg
444.8001501560211	1.3528599739074707	tomspunt	both hands?	how_hand	no	no	correct	task-tomspunt/H_627.jpg
452.3363001346588	1.0680298805236816	tomspunt	healthy?	why_hand	yes	yes	correct	task-tomspunt/H_438.jpg
453.7201499938965	n/a	tomspunt	healthy?	why_hand	n/a	yes	incorrect	task-tomspunt/H_364.jpg
455.75424003601074	n/a	tomspunt	healthy?	why_hand	n/a	yes	incorrect	task-tomspunt/H_362.jpg
457.788330078125	n/a	tomspunt	healthy?	why_hand	n/a	no	incorrect	task-tomspunt/H_019.jpg
459.82242012023926	n/a	tomspunt	healthy?	why_hand	n/a	yes	incorrect	task-tomspunt/H_167.jpg
461.8565101623535	0.9965298175811768	tomspunt	healthy?	why_hand	yes	no	incorrect	task-tomspunt/H_007.jpg
463.15700006484985	1.7190499305725098	tomspunt	healthy?	why_hand	yes	yes	correct	task-tomspunt/H_627.jpg
465.1910901069641	0.928529977798462	tomspunt	healthy?	why_hand	no	no	correct	task-tomspunt/H_130.jpg
471.39339995384216	1.192850112915039	tomspunt	pressing button?	how_hand	yes	yes	correct	task-tomspunt/H_126.jpg
472.8939599990845	0.8423001766204834	tomspunt	pressing button?	how_hand	no	no	correct	task-tomspunt/H_130.jpg
474.04438996315	1.3522300720214844	tomspunt	pressing button?	how_hand	yes	yes	correct	task-tomspunt/H_483.jpg
475.7116801738739	0.8579800128936768	tomspunt	pressing button?	how_hand	no	no	correct	task-tomspunt/H_024.jpg
476.87878012657166	0.7748899459838867	tomspunt	pressing button?	how_hand	yes	yes	correct	task-tomspunt/H_332.jpg
477.9625201225281	0.8071098327636719	tomspunt	pressing button?	how_hand	yes	yes	correct	task-tomspunt/H_019.jpg
479.0796000957489	0.7516000270843506	tomspunt	pressing button?	how_hand	no	no	correct	task-tomspunt/H_261.jpg
480.1466701030731	n/a	tomspunt	pressing button?	how_hand	n/a	yes	incorrect	task-tomspunt/H_502.jpg
488.9166100025177	1.0533599853515625	tomspunt	looking at camera?	how_face	yes	yes	correct	task-tomspunt/F_618.jpg
490.2837800979614	1.0191400051116943	tomspunt	looking at camera?	how_face	no	no	correct	task-tomspunt/F_754.jpg
491.61760997772217	0.6857500076293945	tomspunt	looking at camera?	how_face	yes	yes	correct	task-tomspunt/F_129.jpg
492.61798000335693	0.9182000160217284	tomspunt	looking at camera?	how_face	yes	yes	correct	task-tomspunt/F_598.jpg
493.8517801761627	0.7015597820281982	tomspunt	looking at camera?	how_face	yes	yes	correct	task-tomspunt/F_128.jpg
494.8688199520111	0.8180301189422607	tomspunt	looking at camera?	how_face	no	no	correct	task-tomspunt/F_582.jpg
496.00258016586304	0.7186098098754883	tomspunt	looking at camera?	how_face	yes	yes	correct	task-tomspunt/F_774.jpg
497.0363001823426	1.0333600044250488	tomspunt	looking at camera?	how_face	no	no	correct	task-tomspunt/F_743.jpg
507.8903501033783	0.9687199592590332	tomspunt	self-doubt?	why_face	yes	yes	correct	task-tomspunt/F_798.jpg
509.1741600036621	1.185610055923462	tomspunt	self-doubt?	why_face	no	no	correct	task-tomspunt/F_086.jpg
510.6747200489044	1.0455701351165771	tomspunt	self-doubt?	why_face	yes	yes	correct	task-tomspunt/F_544.jpg
512.0252201557159	1.1355597972869873	tomspunt	self-doubt?	why_face	yes	yes	correct	task-tomspunt/F_754.jpg
513.4757599830627	1.3605501651763916	tomspunt	self-doubt?	why_face	yes	yes	correct	task-tomspunt/F_111.jpg
515.143049955368	0.0267601013183593	tomspunt	self-doubt?	why_face	yes	yes	correct	task-tomspunt/F_584.jpg
515.4765100479126	0.9847900867462158	tomspunt	self-doubt?	why_face	yes	no	incorrect	task-tomspunt/F_128.jpg
516.7769901752472	1.3927898406982422	tomspunt	self-doubt?	why_face	no	no	correct	task-tomspunt/F_774.jpg
525.396870136261	1.2727699279785156	tomspunt	self-protection?	why_hand	yes	yes	correct	task-tomspunt/H_581.jpg
526.980800151825	0.8728899955749512	tomspunt	self-protection?	why_hand	yes	yes	correct	task-tomspunt/H_443.jpg
528.1645700931549	0.02170991897583	tomspunt	self-protection?	why_hand	yes	no	incorrect	task-tomspunt/H_332.jpg
528.4980301856995	0.8382298946380615	tomspunt	self-protection?	why_hand	yes	yes	correct	task-tomspunt/H_027.jpg
529.648460149765	1.202279806137085	tomspunt	self-protection?	why_hand	no	no	correct	task-tomspunt/H_532.jpg
531.1656901836395	0.735299825668335	tomspunt	self-protection?	why_hand	yes	yes	correct	task-tomspunt/H_189.jpg
532.216089963913	1.004120111465454	tomspunt	self-protection?	why_hand	no	no	correct	task-tomspunt/H_006.jpg
533.5332400798798	0.736799955368042	tomspunt	self-protection?	why_hand	yes	yes	correct	task-tomspunt/H_038.jpg
543.6203401088715	1.0521199703216553	tomspunt	lifting?	how_hand	yes	yes	correct	task-tomspunt/H_443.jpg
544.9875099658966	1.051950216293335	tomspunt	lifting?	how_hand	no	no	correct	task-tomspunt/H_038.jpg
546.3546900749207	0.9514899253845216	tomspunt	lifting?	how_hand	yes	yes	correct	task-tomspunt/H_136.jpg
547.6218299865723	0.0180201530456542	tomspunt	lifting?	how_hand	yes	no	incorrect	task-tomspunt/H_012.jpg
547.9552900791168	1.3515300750732422	tomspunt	lifting?	how_hand	yes	yes	correct	task-tomspunt/H_362.jpg
549.6225800514221	1.4517199993133545	tomspunt	lifting?	how_hand	yes	yes	correct	task-tomspunt/H_189.jpg
551.389899969101	n/a	tomspunt	lifting?	how_hand	n/a	yes	incorrect	task-tomspunt/H_170.jpg
553.4239900112152	1.1794400215148926	tomspunt	lifting?	how_hand	no	no	correct	task-tomspunt/H_077.jpg
561.4936699867249	0.8850100040435791	tomspunt	looking to side?	how_face	yes	yes	correct	task-tomspunt/F_716.jpg
562.6941201686859	0.8424699306488037	tomspunt	looking to side?	how_face	no	no	correct	task-tomspunt/F_798.jpg
563.8445501327515	1.0257999897003174	tomspunt	looking to side?	how_face	yes	yes	correct	task-tomspunt/F_760.jpg
565.1783800125122	0.7013599872589111	tomspunt	looking to side?	how_face	yes	yes	correct	task-tomspunt/F_110.jpg
566.1954200267792	1.3743901252746582	tomspunt	looking to side?	how_face	no	no	correct	task-tomspunt/F_779.jpg
567.8793799877167	0.9741899967193604	tomspunt	looking to side?	how_face	yes	yes	correct	task-tomspunt/F_590.jpg
569.1632001399994	0.8563899993896484	tomspunt	looking to side?	how_face	no	no	correct	task-tomspunt/F_111.jpg
570.3303000926971	0.7519500255584717	tomspunt	looking to side?	how_face	yes	yes	correct	task-tomspunt/F_433.jpg
583.9853901863098	1.435679912567139	tomspunt	proud?	why_face	yes	yes	correct	task-tomspunt/F_083.jpg
585.7360401153564	0.9687800407409668	tomspunt	proud?	why_face	yes	yes	correct	task-tomspunt/F_582.jpg
587.0198600292206	1.2355201244354248	tomspunt	proud?	why_face	yes	yes	correct	task-tomspunt/F_618.jpg
588.5704300403595	0.8851499557495117	tomspunt	proud?	why_face	no	no	correct	task-tomspunt/F_776.jpg
589.770879983902	0.8180100917816162	tomspunt	proud?	why_face	yes	yes	correct	task-tomspunt/F_598.jpg
590.9046399593353	0.5989401340484619	tomspunt	proud?	why_face	no	no	correct	task-tomspunt/F_760.jpg
591.8049700260162	0.8180899620056152	tomspunt	proud?	why_face	no	no	correct	task-tomspunt/F_412.jpg
592.9387300014496	0.7518901824951172	tomspunt	proud?	why_face	yes	yes	correct	task-tomspunt/F_695.jpg
0.0586573982238767	2.0507640838623	tomspunt	reaching?	block_question_presentation	n/a	n/a	n/a	n/a
0.0586573982238767	0.3	tomspunt	reaching?	block_question_presentation	n/a	n/a	n/a	n/a
17.5485129261017	2.10078263282776	tomspunt	healthy?	block_question_presentation	n/a	n/a	n/a	n/a
17.5485129261017	0.3	tomspunt	healthy?	block_question_presentation	n/a	n/a	n/a	n/a
36.6556382083893	2.10078382492065	tomspunt	admiring?	block_question_presentation	n/a	n/a	n/a	n/a
36.6556382083893	0.3	tomspunt	admiring?	block_question_presentation	n/a	n/a	n/a	n/a
55.6127078437805	2.1007833480835	tomspunt	smiling?	block_question_presentation	n/a	n/a	n/a	n/a
55.6127078437805	0.3	tomspunt	smiling?	block_question_presentation	n/a	n/a	n/a	n/a
73.1525816822052	2.0841109752655	tomspunt	lifting?	block_question_presentation	n/a	n/a	n/a	n/a
73.1525816822052	0.3	tomspunt	lifting?	block_question_presentation	n/a	n/a	n/a	n/a
95.6276295089722	2.10078477859497	tomspunt	helping?	block_question_presentation	n/a	n/a	n/a	n/a
95.6276295089722	0.3	tomspunt	helping?	block_question_presentation	n/a	n/a	n/a	n/a
113.500961532593	2.10078454017639	tomspunt	proud?	block_question_presentation	n/a	n/a	n/a	n/a
113.500961532593	0.3	tomspunt	proud?	block_question_presentation	n/a	n/a	n/a	n/a
131.024163713455	2.10078310966492	tomspunt	looking to side?	block_question_presentation	n/a	n/a	n/a	n/a
131.024163713455	0.3	tomspunt	looking to side?	block_question_presentation	n/a	n/a	n/a	n/a
150.131288280487	2.10078454017639	tomspunt	argument?	block_question_presentation	n/a	n/a	n/a	n/a
150.131288280487	0.3	tomspunt	argument?	block_question_presentation	n/a	n/a	n/a	n/a
167.971274604797	2.10078430175781	tomspunt	open mouth?	block_question_presentation	n/a	n/a	n/a	n/a
167.971274604797	0.3	tomspunt	open mouth?	block_question_presentation	n/a	n/a	n/a	n/a
185.861280193329	2.10078406333923	tomspunt	pressing button?	block_question_presentation	n/a	n/a	n/a	n/a
185.861280193329	0.3	tomspunt	pressing button?	block_question_presentation	n/a	n/a	n/a	n/a
203.651247968674	2.10078430175781	tomspunt	competing?	block_question_presentation	n/a	n/a	n/a	n/a
203.651247968674	0.3	tomspunt	competing?	block_question_presentation	n/a	n/a	n/a	n/a
221.724654903412	2.10078310966492	tomspunt	self-doubt?	block_question_presentation	n/a	n/a	n/a	n/a
221.724654903412	0.3	tomspunt	self-doubt?	block_question_presentation	n/a	n/a	n/a	n/a
240.78176068306	2.10078430175781	tomspunt	looking at camera?	block_question_presentation	n/a	n/a	n/a	n/a
240.78176068306	0.3	tomspunt	looking at camera?	block_question_presentation	n/a	n/a	n/a	n/a
259.572102537155	2.10078191757202	tomspunt	both hands?	block_question_presentation	n/a	n/a	n/a	n/a
259.572102537155	0.3	tomspunt	both hands?	block_question_presentation	n/a	n/a	n/a	n/a
278.362442722321	2.10078263282776	tomspunt	self-protection?	block_question_presentation	n/a	n/a	n/a	n/a
278.362442722321	0.3	tomspunt	self-protection?	block_question_presentation	n/a	n/a	n/a	n/a
299.83711766243	2.10078358650208	tomspunt	smiling?	block_question_presentation	n/a	n/a	n/a	n/a
299.83711766243	0.3	tomspunt	smiling?	block_question_presentation	n/a	n/a	n/a	n/a
317.627085199356	2.10078382492065	tomspunt	admiring?	block_question_presentation	n/a	n/a	n/a	n/a
317.627085199356	0.3	tomspunt	admiring?	block_question_presentation	n/a	n/a	n/a	n/a
335.51709031105	2.10078310966492	tomspunt	competing?	block_question_presentation	n/a	n/a	n/a	n/a
335.51709031105	0.3	tomspunt	competing?	block_question_presentation	n/a	n/a	n/a	n/a
357.008438339233	2.10078358650208	tomspunt	reaching?	block_question_presentation	n/a	n/a	n/a	n/a
357.008438339233	0.3	tomspunt	reaching?	block_question_presentation	n/a	n/a	n/a	n/a
374.848424663544	2.1007833480835	tomspunt	open mouth?	block_question_presentation	n/a	n/a	n/a	n/a
374.848424663544	0.3	tomspunt	open mouth?	block_question_presentation	n/a	n/a	n/a	n/a
393.522055139542	2.10078310966492	tomspunt	argument?	block_question_presentation	n/a	n/a	n/a	n/a
393.522055139542	0.3	tomspunt	argument?	block_question_presentation	n/a	n/a	n/a	n/a
411.745516052246	2.10078430175781	tomspunt	helping?	block_question_presentation	n/a	n/a	n/a	n/a
411.745516052246	0.3	tomspunt	helping?	block_question_presentation	n/a	n/a	n/a	n/a
429.802250852585	2.10078406333923	tomspunt	both hands?	block_question_presentation	n/a	n/a	n/a	n/a
429.802250852585	0.3	tomspunt	both hands?	block_question_presentation	n/a	n/a	n/a	n/a
447.325452795029	2.10078263282776	tomspunt	healthy?	block_question_presentation	n/a	n/a	n/a	n/a
447.325452795029	0.3	tomspunt	healthy?	block_question_presentation	n/a	n/a	n/a	n/a
466.382559528351	2.10078358650208	tomspunt	pressing button?	block_question_presentation	n/a	n/a	n/a	n/a
466.382559528351	0.3	tomspunt	pressing button?	block_question_presentation	n/a	n/a	n/a	n/a
483.905760755539	2.10078382492065	tomspunt	looking at camera?	block_question_presentation	n/a	n/a	n/a	n/a
483.905760755539	0.3	tomspunt	looking at camera?	block_question_presentation	n/a	n/a	n/a	n/a
502.879503002167	2.10078430175781	tomspunt	self-doubt?	block_question_presentation	n/a	n/a	n/a	n/a
502.879503002167	0.3	tomspunt	self-doubt?	block_question_presentation	n/a	n/a	n/a	n/a
520.386032094955	2.10078358650208	tomspunt	self-protection?	block_question_presentation	n/a	n/a	n/a	n/a
520.386032094955	0.3	tomspunt	self-protection?	block_question_presentation	n/a	n/a	n/a	n/a
538.609494438171	2.10078287124634	tomspunt	lifting?	block_question_presentation	n/a	n/a	n/a	n/a
538.609494438171	0.3	tomspunt	lifting?	block_question_presentation	n/a	n/a	n/a	n/a
556.482827177048	2.10078287124634	tomspunt	looking to side?	block_question_presentation	n/a	n/a	n/a	n/a
556.482827177048	0.3	tomspunt	looking to side?	block_question_presentation	n/a	n/a	n/a	n/a
578.974547138214	2.10078358650208	tomspunt	proud?	block_question_presentation	n/a	n/a	n/a	n/a
578.974547138214	0.3	tomspunt	proud?	block_question_presentation	n/a	n/a	n/a	n/a
