onset	duration	run_type	trial_type	trial_index	cue	stimulusintensity	rating_value	rating_glmslabel	rating_value_fillna	rating_glmslabel_fillna	rating_mouseonset	rating_mousedur	stim_file	pain_onset_ttl1	pain_onset_ttl2	pain_onset_ttl3	pain_onset_ttl4	pain_stimulus_delivery_success	cognitive_correct_response	cognitive_participant_response	cognitive_response_accuracy
11.29	1.0	pain	cue	1	high_cue	n/a	n/a	n/a	n/a	n/a	n/a	n/a	task-social/cue/runtype-pain/sch/h037.png	n/a	n/a	n/a	n/a	n/a	n/a	n/a	n/a
14.21	1.47	pain	expectrating	1	high_cue	n/a	48.29	Strong	48.29	Strong	0.37	1.1	task-social/cue/runtype-pain/sch/h037.png	n/a	n/a	n/a	n/a	n/a	n/a	n/a	n/a
19.33	12.82	pain	stimulus	1	high_cue	high_stim	n/a	n/a	n/a	n/a	n/a	n/a	n/a	19.33	23.34	28.34	32.15	success	n/a	n/a	n/a
32.7	2.67	pain	outcomerating	1	high_cue	high_stim	61.28	Strong	61.28	Strong	0.37	1.1	task-social/outcomerating/task-pain_scale.png	n/a	n/a	n/a	n/a	success	n/a	n/a	n/a
44.29	1.0	pain	cue	2	low_cue	n/a	n/a	n/a	n/a	n/a	n/a	n/a	task-social/cue/runtype-pain/scl/l044.png	n/a	n/a	n/a	n/a	n/a	n/a	n/a	n/a
47.21	1.43	pain	expectrating	2	low_cue	n/a	6.16	Weak	6.16	Weak	0.55	0.88	task-social/cue/runtype-pain/scl/l044.png	n/a	n/a	n/a	n/a	n/a	n/a	n/a	n/a
59.42	12.829999999999998	pain	stimulus	2	low_cue	high_stim	n/a	n/a	n/a	n/a	n/a	n/a	n/a	59.42	63.43	68.43	72.24	success	n/a	n/a	n/a
70.7	n/a	pain	outcomerating	2	low_cue	high_stim	n/a	n/a	66.77	Very-Strong	0.55	0.88	task-social/outcomerating/task-pain_scale.png	n/a	n/a	n/a	n/a	success	n/a	n/a	n/a
80.7	1.0	pain	cue	3	high_cue	n/a	n/a	n/a	n/a	n/a	n/a	n/a	task-social/cue/runtype-pain/sch/h049.png	n/a	n/a	n/a	n/a	n/a	n/a	n/a	n/a
83.7	1.13	pain	expectrating	3	high_cue	n/a	63.77	Strong	63.77	Strong	0.42	0.72	task-social/cue/runtype-pain/sch/h049.png	n/a	n/a	n/a	n/a	n/a	n/a	n/a	n/a
90.02	12.820000000000007	pain	stimulus	3	high_cue	high_stim	n/a	n/a	n/a	n/a	n/a	n/a	n/a	90.02	94.03	99.03	102.84	success	n/a	n/a	n/a
100.59	1.69	pain	outcomerating	3	high_cue	high_stim	27.6	Moderate	27.6	Moderate	0.42	0.72	task-social/outcomerating/task-pain_scale.png	n/a	n/a	n/a	n/a	success	n/a	n/a	n/a
105.59	1.0	pain	cue	4	low_cue	n/a	n/a	n/a	n/a	n/a	n/a	n/a	task-social/cue/runtype-pain/scl/l035.png	n/a	n/a	n/a	n/a	n/a	n/a	n/a	n/a
107.39	0.99	pain	expectrating	4	low_cue	n/a	9.12	Weak	9.12	Weak	0.37	0.62	task-social/cue/runtype-pain/scl/l035.png	n/a	n/a	n/a	n/a	n/a	n/a	n/a	n/a
112.52	12.36	pain	stimulus	4	low_cue	med_stim	n/a	n/a	n/a	n/a	n/a	n/a	n/a	112.52	116.28	121.28	124.89	success	n/a	n/a	n/a
126.1	2.57	pain	outcomerating	4	low_cue	med_stim	26.15	Moderate	26.15	Moderate	0.37	0.62	task-social/outcomerating/task-pain_scale.png	n/a	n/a	n/a	n/a	success	n/a	n/a	n/a
133.79	1.0	pain	cue	5	high_cue	n/a	n/a	n/a	n/a	n/a	n/a	n/a	task-social/cue/runtype-pain/sch/h009.png	n/a	n/a	n/a	n/a	n/a	n/a	n/a	n/a
135.6	2.3	pain	expectrating	5	high_cue	n/a	18.21	Moderate	18.21	Moderate	0.68	1.62	task-social/cue/runtype-pain/sch/h009.png	n/a	n/a	n/a	n/a	n/a	n/a	n/a	n/a
145.94	11.900000000000006	pain	stimulus	5	high_cue	low_stim	n/a	n/a	n/a	n/a	n/a	n/a	n/a	145.94	149.44	154.44	157.84	success	n/a	n/a	n/a
159.5	1.98	pain	outcomerating	5	high_cue	low_stim	21.63	Moderate	21.63	Moderate	0.68	1.62	task-social/outcomerating/task-pain_scale.png	n/a	n/a	n/a	n/a	success	n/a	n/a	n/a
169.5	1.0	pain	cue	6	high_cue	n/a	n/a	n/a	n/a	n/a	n/a	n/a	task-social/cue/runtype-pain/sch/h054.png	n/a	n/a	n/a	n/a	n/a	n/a	n/a	n/a
172.4	2.0	pain	expectrating	6	high_cue	n/a	54.33	Strong	54.33	Strong	0.7	1.3	task-social/cue/runtype-pain/sch/h054.png	n/a	n/a	n/a	n/a	n/a	n/a	n/a	n/a
184.92	12.360000000000014	pain	stimulus	6	high_cue	med_stim	n/a	n/a	n/a	n/a	n/a	n/a	n/a	184.92	188.68	193.68	197.29	success	n/a	n/a	n/a
196.69	2.92	pain	outcomerating	6	high_cue	med_stim	29.97	Strong	29.97	Strong	0.7	1.3	task-social/outcomerating/task-pain_scale.png	n/a	n/a	n/a	n/a	success	n/a	n/a	n/a
204.4	1.0	pain	cue	7	low_cue	n/a	n/a	n/a	n/a	n/a	n/a	n/a	task-social/cue/runtype-pain/scl/l022.png	n/a	n/a	n/a	n/a	n/a	n/a	n/a	n/a
207.3	1.45	pain	expectrating	7	low_cue	n/a	15.66	Moderate	15.66	Moderate	0.5	0.95	task-social/cue/runtype-pain/scl/l022.png	n/a	n/a	n/a	n/a	n/a	n/a	n/a	n/a
216.44	12.819999999999993	pain	stimulus	7	low_cue	high_stim	n/a	n/a	n/a	n/a	n/a	n/a	n/a	216.44	220.45	225.45	229.26	success	n/a	n/a	n/a
228.41	1.74	pain	outcomerating	7	low_cue	high_stim	97.21	Very-Strong	97.21	Very-Strong	0.5	0.95	task-social/outcomerating/task-pain_scale.png	n/a	n/a	n/a	n/a	success	n/a	n/a	n/a
234.29	1.0	pain	cue	8	high_cue	n/a	n/a	n/a	n/a	n/a	n/a	n/a	task-social/cue/runtype-pain/sch/h016.png	n/a	n/a	n/a	n/a	n/a	n/a	n/a	n/a
236.19	2.19	pain	expectrating	8	high_cue	n/a	35.73	Strong	35.73	Strong	1.25	0.94	task-social/cue/runtype-pain/sch/h016.png	n/a	n/a	n/a	n/a	n/a	n/a	n/a	n/a
242.95	11.900000000000006	pain	stimulus	8	high_cue	low_stim	n/a	n/a	n/a	n/a	n/a	n/a	n/a	242.95	246.45	251.45	254.85	success	n/a	n/a	n/a
255.7	1.5	pain	outcomerating	8	high_cue	low_stim	8.84	Weak	8.84	Weak	1.25	0.94	task-social/outcomerating/task-pain_scale.png	n/a	n/a	n/a	n/a	success	n/a	n/a	n/a
266.69	1.0	pain	cue	9	low_cue	n/a	n/a	n/a	n/a	n/a	n/a	n/a	task-social/cue/runtype-pain/scl/l056.png	n/a	n/a	n/a	n/a	n/a	n/a	n/a	n/a
268.5	0.97	pain	expectrating	9	low_cue	n/a	0.0	n/a	0.0	n/a	0.18	0.78	task-social/cue/runtype-pain/scl/l056.png	n/a	n/a	n/a	n/a	n/a	n/a	n/a	n/a
278.82	11.910000000000025	pain	stimulus	9	low_cue	low_stim	n/a	n/a	n/a	n/a	n/a	n/a	n/a	278.82	282.32	287.32	290.72	success	n/a	n/a	n/a
289.0	2.12	pain	outcomerating	9	low_cue	low_stim	10.22	Moderate	10.22	Moderate	0.18	0.78	task-social/outcomerating/task-pain_scale.png	n/a	n/a	n/a	n/a	success	n/a	n/a	n/a
294.8	1.0	pain	cue	10	high_cue	n/a	n/a	n/a	n/a	n/a	n/a	n/a	task-social/cue/runtype-pain/sch/h004.png	n/a	n/a	n/a	n/a	n/a	n/a	n/a	n/a
297.3	1.52	pain	expectrating	10	high_cue	n/a	49.12	Strong	49.12	Strong	0.05	1.47	task-social/cue/runtype-pain/sch/h004.png	n/a	n/a	n/a	n/a	n/a	n/a	n/a	n/a
305.93	12.370000000000005	pain	stimulus	10	high_cue	med_stim	n/a	n/a	n/a	n/a	n/a	n/a	n/a	305.93	309.69	314.69	318.3	success	n/a	n/a	n/a
317.21	2.03	pain	outcomerating	10	high_cue	med_stim	23.99	Moderate	23.99	Moderate	0.05	1.47	task-social/outcomerating/task-pain_scale.png	n/a	n/a	n/a	n/a	success	n/a	n/a	n/a
327.09	1.0	pain	cue	11	low_cue	n/a	n/a	n/a	n/a	n/a	n/a	n/a	task-social/cue/runtype-pain/scl/l047.png	n/a	n/a	n/a	n/a	n/a	n/a	n/a	n/a
329.99	1.22	pain	expectrating	11	low_cue	n/a	1.16	Barely-detectable	1.16	Barely-detectable	0.05	1.17	task-social/cue/runtype-pain/scl/l047.png	n/a	n/a	n/a	n/a	n/a	n/a	n/a	n/a
340.93	12.370000000000005	pain	stimulus	11	low_cue	med_stim	n/a	n/a	n/a	n/a	n/a	n/a	n/a	340.93	344.69	349.69	353.3	success	n/a	n/a	n/a
361.51	2.35	pain	outcomerating	11	low_cue	med_stim	7.7	Weak	7.7	Weak	0.05	1.17	task-social/outcomerating/task-pain_scale.png	n/a	n/a	n/a	n/a	success	n/a	n/a	n/a
366.49	1.0	pain	cue	12	low_cue	n/a	n/a	n/a	n/a	n/a	n/a	n/a	task-social/cue/runtype-pain/scl/l015.png	n/a	n/a	n/a	n/a	n/a	n/a	n/a	n/a
369.39	2.57	pain	expectrating	12	low_cue	n/a	9.5	Weak	9.5	Weak	0.08	2.49	task-social/cue/runtype-pain/scl/l015.png	n/a	n/a	n/a	n/a	n/a	n/a	n/a	n/a
374.23	11.899999999999977	pain	stimulus	12	low_cue	low_stim	n/a	n/a	n/a	n/a	n/a	n/a	n/a	374.23	377.73	382.73	386.13	success	n/a	n/a	n/a
394.8	2.02	pain	outcomerating	12	low_cue	low_stim	9.17	Weak	9.17	Weak	0.08	2.49	task-social/outcomerating/task-pain_scale.png	n/a	n/a	n/a	n/a	success	n/a	n/a	n/a
