onset	duration	run_type	trial_type	trial_index	cue	stimulusintensity	rating_value	rating_glmslabel	rating_value_fillna	rating_glmslabel_fillna	rating_mouseonset	rating_mousedur	stim_file	pain_onset_ttl1	pain_onset_ttl2	pain_onset_ttl3	pain_onset_ttl4	pain_stimulus_delivery_success	cognitive_correct_response	cognitive_participant_response	cognitive_response_accuracy
14.18	1.0	pain	cue	1	low_cue	n/a	n/a	n/a	n/a	n/a	n/a	n/a	task-social/cue/runtype-pain/scl/l034.png	n/a	n/a	n/a	n/a	n/a	n/a	n/a	n/a
16.01	2.06	pain	expectrating	1	low_cue	n/a	5.07	Weak	5.07	Weak	0.03	2.03	task-social/cue/runtype-pain/scl/l034.png	n/a	n/a	n/a	n/a	n/a	n/a	n/a	n/a
20.65	11.910000000000004	pain	stimulus	1	low_cue	low_stim	n/a	n/a	n/a	n/a	n/a	n/a	n/a	20.65	24.15	29.15	32.55	success	n/a	n/a	n/a
35.29	2.39	pain	outcomerating	1	low_cue	low_stim	31.64	Strong	31.64	Strong	0.03	2.03	task-social/outcomerating/task-pain_scale.png	n/a	n/a	n/a	n/a	success	n/a	n/a	n/a
40.59	1.0	pain	cue	2	low_cue	n/a	n/a	n/a	n/a	n/a	n/a	n/a	task-social/cue/runtype-pain/scl/l003.png	n/a	n/a	n/a	n/a	n/a	n/a	n/a	n/a
43.59	1.83	pain	expectrating	2	low_cue	n/a	24.41	Moderate	24.41	Moderate	0.3	1.53	task-social/cue/runtype-pain/scl/l003.png	n/a	n/a	n/a	n/a	n/a	n/a	n/a	n/a
48.23	12.360000000000007	pain	stimulus	2	low_cue	med_stim	n/a	n/a	n/a	n/a	n/a	n/a	n/a	48.23	51.99	56.99	60.6	success	n/a	n/a	n/a
63.68	3.31	pain	outcomerating	2	low_cue	med_stim	26.46	Moderate	26.46	Moderate	0.3	1.53	task-social/outcomerating/task-pain_scale.png	n/a	n/a	n/a	n/a	success	n/a	n/a	n/a
72.18	1.0	pain	cue	3	high_cue	n/a	n/a	n/a	n/a	n/a	n/a	n/a	task-social/cue/runtype-pain/sch/h040.png	n/a	n/a	n/a	n/a	n/a	n/a	n/a	n/a
75.2	1.87	pain	expectrating	3	high_cue	n/a	72.51	Very Strong	72.51	Very Strong	0.47	1.41	task-social/cue/runtype-pain/sch/h040.png	n/a	n/a	n/a	n/a	n/a	n/a	n/a	n/a
84.13	12.36	pain	stimulus	3	high_cue	med_stim	n/a	n/a	n/a	n/a	n/a	n/a	n/a	84.13	87.89	92.89	96.5	success	n/a	n/a	n/a
95.89	2.02	pain	outcomerating	3	high_cue	med_stim	8.07	Weak	8.07	Weak	0.47	1.41	task-social/outcomerating/task-pain_scale.png	n/a	n/a	n/a	n/a	success	n/a	n/a	n/a
108.98	1.0	pain	cue	4	low_cue	n/a	n/a	n/a	n/a	n/a	n/a	n/a	task-social/cue/runtype-pain/scl/l049.png	n/a	n/a	n/a	n/a	n/a	n/a	n/a	n/a
110.88	1.69	pain	expectrating	4	low_cue	n/a	8.75	Weak	8.75	Weak	0.33	1.36	task-social/cue/runtype-pain/scl/l049.png	n/a	n/a	n/a	n/a	n/a	n/a	n/a	n/a
118.32	12.819999999999993	pain	stimulus	4	low_cue	high_stim	n/a	n/a	n/a	n/a	n/a	n/a	n/a	118.32	122.33	127.33	131.14	success	n/a	n/a	n/a
130.49	1.87	pain	outcomerating	4	low_cue	high_stim	9.24	Weak	9.24	Weak	0.33	1.36	task-social/outcomerating/task-pain_scale.png	n/a	n/a	n/a	n/a	success	n/a	n/a	n/a
145.09	0.98	pain	cue	5	high_cue	n/a	n/a	n/a	n/a	n/a	n/a	n/a	task-social/cue/runtype-pain/sch/h047.png	n/a	n/a	n/a	n/a	n/a	n/a	n/a	n/a
146.79	2.47	pain	expectrating	5	high_cue	n/a	48.08	Strong	48.08	Strong	0.73	1.73	task-social/cue/runtype-pain/sch/h047.png	n/a	n/a	n/a	n/a	n/a	n/a	n/a	n/a
153.34	12.359999999999985	pain	stimulus	5	high_cue	med_stim	n/a	n/a	n/a	n/a	n/a	n/a	n/a	153.34	157.1	162.1	165.71	success	n/a	n/a	n/a
166.49	2.41	pain	outcomerating	5	high_cue	med_stim	3.71	Weak	3.71	Weak	0.73	1.73	task-social/outcomerating/task-pain_scale.png	n/a	n/a	n/a	n/a	success	n/a	n/a	n/a
171.39	1.0	pain	cue	6	low_cue	n/a	n/a	n/a	n/a	n/a	n/a	n/a	task-social/cue/runtype-pain/scl/l004.png	n/a	n/a	n/a	n/a	n/a	n/a	n/a	n/a
174.49	1.62	pain	expectrating	6	low_cue	n/a	9.27	Weak	9.27	Weak	0.05	1.57	task-social/cue/runtype-pain/scl/l004.png	n/a	n/a	n/a	n/a	n/a	n/a	n/a	n/a
180.73	12.830000000000013	pain	stimulus	6	low_cue	high_stim	n/a	n/a	n/a	n/a	n/a	n/a	n/a	180.73	184.74	189.74	193.55	success	n/a	n/a	n/a
194.48	3.42	pain	outcomerating	6	low_cue	high_stim	4.59	Weak	4.59	Weak	0.05	1.57	task-social/outcomerating/task-pain_scale.png	n/a	n/a	n/a	n/a	success	n/a	n/a	n/a
199.78	1.0	pain	cue	7	low_cue	n/a	n/a	n/a	n/a	n/a	n/a	n/a	task-social/cue/runtype-pain/scl/l038.png	n/a	n/a	n/a	n/a	n/a	n/a	n/a	n/a
202.78	1.88	pain	expectrating	7	low_cue	n/a	9.31	Weak	9.31	Weak	0.05	1.83	task-social/cue/runtype-pain/scl/l038.png	n/a	n/a	n/a	n/a	n/a	n/a	n/a	n/a
216.21	11.900000000000006	pain	stimulus	7	low_cue	low_stim	n/a	n/a	n/a	n/a	n/a	n/a	n/a	216.21	219.71	224.71	228.11	success	n/a	n/a	n/a
231.09	1.97	pain	outcomerating	7	low_cue	low_stim	2.3	Barely detectable	2.3	Barely detectable	0.05	1.83	task-social/outcomerating/task-pain_scale.png	n/a	n/a	n/a	n/a	success	n/a	n/a	n/a
236.78	1.0	pain	cue	8	high_cue	n/a	n/a	n/a	n/a	n/a	n/a	n/a	task-social/cue/runtype-pain/sch/h015.png	n/a	n/a	n/a	n/a	n/a	n/a	n/a	n/a
238.48	n/a	pain	expectrating	8	high_cue	n/a	n/a	n/a	n/a	n/a	n/a	n/a	task-social/cue/runtype-pain/sch/h015.png	n/a	n/a	n/a	n/a	n/a	n/a	n/a	n/a
243.3	12.819999999999993	pain	stimulus	8	high_cue	high_stim	n/a	n/a	n/a	n/a	n/a	n/a	n/a	243.3	247.31	252.31	256.12	success	n/a	n/a	n/a
255.48	2.67	pain	outcomerating	8	high_cue	high_stim	5.98	Weak	5.98	Weak	n/a	n/a	task-social/outcomerating/task-pain_scale.png	n/a	n/a	n/a	n/a	success	n/a	n/a	n/a
264.19	1.0	pain	cue	9	high_cue	n/a	n/a	n/a	n/a	n/a	n/a	n/a	task-social/cue/runtype-pain/sch/h039.png	n/a	n/a	n/a	n/a	n/a	n/a	n/a	n/a
267.19	2.12	pain	expectrating	9	high_cue	n/a	95.69	Very Strong	95.69	Very Strong	0.1	2.02	task-social/cue/runtype-pain/sch/h039.png	n/a	n/a	n/a	n/a	n/a	n/a	n/a	n/a
277.54	12.819999999999993	pain	stimulus	9	high_cue	high_stim	n/a	n/a	n/a	n/a	n/a	n/a	n/a	277.54	281.55	286.55	290.36	success	n/a	n/a	n/a
290.48	2.0	pain	outcomerating	9	high_cue	high_stim	5.53	Weak	5.53	Weak	0.1	2.02	task-social/outcomerating/task-pain_scale.png	n/a	n/a	n/a	n/a	success	n/a	n/a	n/a
298.38	1.0	pain	cue	10	high_cue	n/a	n/a	n/a	n/a	n/a	n/a	n/a	task-social/cue/runtype-pain/sch/h028.png	n/a	n/a	n/a	n/a	n/a	n/a	n/a	n/a
301.19	3.09	pain	expectrating	10	high_cue	n/a	80.61	Very Strong	80.61	Very Strong	0.48	2.61	task-social/cue/runtype-pain/sch/h028.png	n/a	n/a	n/a	n/a	n/a	n/a	n/a	n/a
319.94	11.899999999999977	pain	stimulus	10	high_cue	low_stim	n/a	n/a	n/a	n/a	n/a	n/a	n/a	319.94	323.44	328.44	331.84	success	n/a	n/a	n/a
331.08	3.45	pain	outcomerating	10	high_cue	low_stim	5.59	Weak	5.59	Weak	0.48	2.61	task-social/outcomerating/task-pain_scale.png	n/a	n/a	n/a	n/a	success	n/a	n/a	n/a
335.98	1.0	pain	cue	11	high_cue	n/a	n/a	n/a	n/a	n/a	n/a	n/a	task-social/cue/runtype-pain/sch/h009.png	n/a	n/a	n/a	n/a	n/a	n/a	n/a	n/a
338.88	2.44	pain	expectrating	11	high_cue	n/a	54.78	Strong	54.78	Strong	0.87	1.57	task-social/cue/runtype-pain/sch/h009.png	n/a	n/a	n/a	n/a	n/a	n/a	n/a	n/a
343.72	11.909999999999968	pain	stimulus	11	high_cue	low_stim	n/a	n/a	n/a	n/a	n/a	n/a	n/a	343.72	347.22	352.22	355.62	success	n/a	n/a	n/a
359.39	1.78	pain	outcomerating	11	high_cue	low_stim	2.76	Barely detectable	2.76	Barely detectable	0.87	1.57	task-social/outcomerating/task-pain_scale.png	n/a	n/a	n/a	n/a	success	n/a	n/a	n/a
366.98	1.0	pain	cue	12	low_cue	n/a	n/a	n/a	n/a	n/a	n/a	n/a	task-social/cue/runtype-pain/scl/l007.png	n/a	n/a	n/a	n/a	n/a	n/a	n/a	n/a
368.89	2.12	pain	expectrating	12	low_cue	n/a	4.69	Weak	4.69	Weak	0.05	2.07	task-social/cue/runtype-pain/scl/l007.png	n/a	n/a	n/a	n/a	n/a	n/a	n/a	n/a
380.52	12.360000000000014	pain	stimulus	12	low_cue	med_stim	n/a	n/a	n/a	n/a	n/a	n/a	n/a	380.52	384.28	389.28	392.89	success	n/a	n/a	n/a
394.49	2.12	pain	outcomerating	12	low_cue	med_stim	1.84	Barely detectable	1.84	Barely detectable	0.05	2.07	task-social/outcomerating/task-pain_scale.png	n/a	n/a	n/a	n/a	success	n/a	n/a	n/a
