onset	duration	run_type	trial_type	trial_index	cue	stimulusintensity	rating_value	rating_glmslabel	rating_value_fillna	rating_glmslabel_fillna	rating_mouseonset	rating_mousedur	stim_file	pain_onset_ttl1	pain_onset_ttl2	pain_onset_ttl3	pain_onset_ttl4	pain_stimulus_delivery_success	cognitive_correct_response	cognitive_participant_response	cognitive_response_accuracy
5.39	1.0	pain	cue	1	high_cue	n/a	n/a	n/a	n/a	n/a	n/a	n/a	task-social/cue/runtype-pain/sch/h006.png	n/a	n/a	n/a	n/a	n/a	n/a	n/a	n/a
8.2	1.76	pain	expectrating	1	high_cue	n/a	30.61	Strong	30.61	Strong	0.5	1.26	task-social/cue/runtype-pain/sch/h006.png	n/a	n/a	n/a	n/a	n/a	n/a	n/a	n/a
17.04	11.900000000000002	pain	stimulus	1	high_cue	low_stim	n/a	n/a	n/a	n/a	n/a	n/a	n/a	17.04	20.54	25.54	28.94	success	n/a	n/a	n/a
30.3	3.02	pain	outcomerating	1	high_cue	low_stim	32.22	Strong	32.22	Strong	0.5	1.26	task-social/outcomerating/task-pain_scale.png	n/a	n/a	n/a	n/a	success	n/a	n/a	n/a
35.1	1.0	pain	cue	2	high_cue	n/a	n/a	n/a	n/a	n/a	n/a	n/a	task-social/cue/runtype-pain/sch/h004.png	n/a	n/a	n/a	n/a	n/a	n/a	n/a	n/a
37.5	3.05	pain	expectrating	2	high_cue	n/a	8.55	Weak	8.55	Weak	0.65	2.4	task-social/cue/runtype-pain/sch/h004.png	n/a	n/a	n/a	n/a	n/a	n/a	n/a	n/a
46.32	12.82	pain	stimulus	2	high_cue	high_stim	n/a	n/a	n/a	n/a	n/a	n/a	n/a	46.32	50.33	55.33	59.14	success	n/a	n/a	n/a
58.79	2.99	pain	outcomerating	2	high_cue	high_stim	37.11	Strong	37.11	Strong	0.65	2.4	task-social/outcomerating/task-pain_scale.png	n/a	n/a	n/a	n/a	success	n/a	n/a	n/a
68.69	1.0	pain	cue	3	high_cue	n/a	n/a	n/a	n/a	n/a	n/a	n/a	task-social/cue/runtype-pain/sch/h012.png	n/a	n/a	n/a	n/a	n/a	n/a	n/a	n/a
71.09	2.34	pain	expectrating	3	high_cue	n/a	34.07	Strong	34.07	Strong	0.55	1.79	task-social/cue/runtype-pain/sch/h012.png	n/a	n/a	n/a	n/a	n/a	n/a	n/a	n/a
79.42	12.36	pain	stimulus	3	high_cue	med_stim	n/a	n/a	n/a	n/a	n/a	n/a	n/a	79.42	83.18	88.18	91.79	success	n/a	n/a	n/a
91.9	2.6	pain	outcomerating	3	high_cue	med_stim	15.44	Moderate	15.44	Moderate	0.55	1.79	task-social/outcomerating/task-pain_scale.png	n/a	n/a	n/a	n/a	success	n/a	n/a	n/a
96.59	1.0	pain	cue	4	low_cue	n/a	n/a	n/a	n/a	n/a	n/a	n/a	task-social/cue/runtype-pain/scl/l013.png	n/a	n/a	n/a	n/a	n/a	n/a	n/a	n/a
98.09	1.68	pain	expectrating	4	low_cue	n/a	0.46	No sensation	0.46	No sensation	0.78	0.89	task-social/cue/runtype-pain/scl/l013.png	n/a	n/a	n/a	n/a	n/a	n/a	n/a	n/a
103.74	11.900000000000006	pain	stimulus	4	low_cue	low_stim	n/a	n/a	n/a	n/a	n/a	n/a	n/a	103.74	107.24	112.24	115.64	success	n/a	n/a	n/a
117.7	2.65	pain	outcomerating	4	low_cue	low_stim	9.81	Weak	9.81	Weak	0.78	0.89	task-social/outcomerating/task-pain_scale.png	n/a	n/a	n/a	n/a	success	n/a	n/a	n/a
124.0	1.0	pain	cue	5	high_cue	n/a	n/a	n/a	n/a	n/a	n/a	n/a	task-social/cue/runtype-pain/sch/h024.png	n/a	n/a	n/a	n/a	n/a	n/a	n/a	n/a
126.8	1.9	pain	expectrating	5	high_cue	n/a	84.02	Very Strong	84.02	Very Strong	0.4	1.5	task-social/cue/runtype-pain/sch/h024.png	n/a	n/a	n/a	n/a	n/a	n/a	n/a	n/a
132.41	12.819999999999993	pain	stimulus	5	high_cue	high_stim	n/a	n/a	n/a	n/a	n/a	n/a	n/a	132.41	136.42	141.42	145.23	success	n/a	n/a	n/a
151.69	3.04	pain	outcomerating	5	high_cue	high_stim	39.95	Strong	39.95	Strong	0.4	1.5	task-social/outcomerating/task-pain_scale.png	n/a	n/a	n/a	n/a	success	n/a	n/a	n/a
167.3	1.0	pain	cue	6	high_cue	n/a	n/a	n/a	n/a	n/a	n/a	n/a	task-social/cue/runtype-pain/sch/h020.png	n/a	n/a	n/a	n/a	n/a	n/a	n/a	n/a
170.1	2.43	pain	expectrating	6	high_cue	n/a	12.48	Moderate	12.48	Moderate	0.5	1.93	task-social/cue/runtype-pain/sch/h020.png	n/a	n/a	n/a	n/a	n/a	n/a	n/a	n/a
178.51	11.909999999999997	pain	stimulus	6	high_cue	low_stim	n/a	n/a	n/a	n/a	n/a	n/a	n/a	178.51	182.01	187.01	190.41	success	n/a	n/a	n/a
192.89	2.19	pain	outcomerating	6	high_cue	low_stim	33.88	Strong	33.88	Strong	0.5	1.93	task-social/outcomerating/task-pain_scale.png	n/a	n/a	n/a	n/a	success	n/a	n/a	n/a
203.29	1.0	pain	cue	7	low_cue	n/a	n/a	n/a	n/a	n/a	n/a	n/a	task-social/cue/runtype-pain/scl/l036.png	n/a	n/a	n/a	n/a	n/a	n/a	n/a	n/a
205.19	2.2	pain	expectrating	7	low_cue	n/a	4.59	Weak	4.59	Weak	0.72	1.49	task-social/cue/runtype-pain/scl/l036.png	n/a	n/a	n/a	n/a	n/a	n/a	n/a	n/a
218.63	12.360000000000014	pain	stimulus	7	low_cue	med_stim	n/a	n/a	n/a	n/a	n/a	n/a	n/a	218.63	222.39	227.39	231.0	success	n/a	n/a	n/a
228.69	2.98	pain	outcomerating	7	low_cue	med_stim	68.37	Very Strong	68.37	Very Strong	0.72	1.49	task-social/outcomerating/task-pain_scale.png	n/a	n/a	n/a	n/a	success	n/a	n/a	n/a
238.69	1.0	pain	cue	8	low_cue	n/a	n/a	n/a	n/a	n/a	n/a	n/a	task-social/cue/runtype-pain/scl/l016.png	n/a	n/a	n/a	n/a	n/a	n/a	n/a	n/a
241.89	2.11	pain	expectrating	8	low_cue	n/a	4.65	Weak	4.65	Weak	0.62	1.49	task-social/cue/runtype-pain/scl/l016.png	n/a	n/a	n/a	n/a	n/a	n/a	n/a	n/a
254.95	12.819999999999993	pain	stimulus	8	low_cue	high_stim	n/a	n/a	n/a	n/a	n/a	n/a	n/a	254.95	258.96	263.96	267.77	success	n/a	n/a	n/a
267.8	2.37	pain	outcomerating	8	low_cue	high_stim	55.29	Strong	55.29	Strong	0.62	1.49	task-social/outcomerating/task-pain_scale.png	n/a	n/a	n/a	n/a	success	n/a	n/a	n/a
276.89	1.0	pain	cue	9	low_cue	n/a	n/a	n/a	n/a	n/a	n/a	n/a	task-social/cue/runtype-pain/scl/l002.png	n/a	n/a	n/a	n/a	n/a	n/a	n/a	n/a
280.09	2.41	pain	expectrating	9	low_cue	n/a	3.97	Weak	3.97	Weak	0.73	1.67	task-social/cue/runtype-pain/scl/l002.png	n/a	n/a	n/a	n/a	n/a	n/a	n/a	n/a
288.52	12.360000000000014	pain	stimulus	9	low_cue	med_stim	n/a	n/a	n/a	n/a	n/a	n/a	n/a	288.52	292.28	297.28	300.89	success	n/a	n/a	n/a
305.7	2.5	pain	outcomerating	9	low_cue	med_stim	22.41	Moderate	22.41	Moderate	0.73	1.67	task-social/outcomerating/task-pain_scale.png	n/a	n/a	n/a	n/a	success	n/a	n/a	n/a
312.28	1.0	pain	cue	10	low_cue	n/a	n/a	n/a	n/a	n/a	n/a	n/a	task-social/cue/runtype-pain/scl/l028.png	n/a	n/a	n/a	n/a	n/a	n/a	n/a	n/a
315.1	3.73	pain	expectrating	10	low_cue	n/a	8.07	Weak	8.07	Weak	0.78	2.95	task-social/cue/runtype-pain/scl/l028.png	n/a	n/a	n/a	n/a	n/a	n/a	n/a	n/a
323.43	11.909999999999968	pain	stimulus	10	low_cue	low_stim	n/a	n/a	n/a	n/a	n/a	n/a	n/a	323.43	326.93	331.93	335.33	success	n/a	n/a	n/a
335.59	3.75	pain	outcomerating	10	low_cue	low_stim	25.64	Moderate	25.64	Moderate	0.78	2.95	task-social/outcomerating/task-pain_scale.png	n/a	n/a	n/a	n/a	success	n/a	n/a	n/a
347.4	1.0	pain	cue	11	high_cue	n/a	n/a	n/a	n/a	n/a	n/a	n/a	task-social/cue/runtype-pain/sch/h041.png	n/a	n/a	n/a	n/a	n/a	n/a	n/a	n/a
349.1	3.12	pain	expectrating	11	high_cue	n/a	54.41	Strong	54.41	Strong	0.5	2.62	task-social/cue/runtype-pain/sch/h041.png	n/a	n/a	n/a	n/a	n/a	n/a	n/a	n/a
354.72	12.369999999999948	pain	stimulus	11	high_cue	med_stim	n/a	n/a	n/a	n/a	n/a	n/a	n/a	354.72	358.48	363.48	367.09	success	n/a	n/a	n/a
366.89	2.01	pain	outcomerating	11	high_cue	med_stim	28.21	Moderate	28.21	Moderate	0.5	2.62	task-social/outcomerating/task-pain_scale.png	n/a	n/a	n/a	n/a	success	n/a	n/a	n/a
373.19	1.0	pain	cue	12	low_cue	n/a	n/a	n/a	n/a	n/a	n/a	n/a	task-social/cue/runtype-pain/scl/l038.png	n/a	n/a	n/a	n/a	n/a	n/a	n/a	n/a
375.69	2.02	pain	expectrating	12	low_cue	n/a	1.62	Barely detectable	1.62	Barely detectable	0.53	1.49	task-social/cue/runtype-pain/scl/l038.png	n/a	n/a	n/a	n/a	n/a	n/a	n/a	n/a
383.62	12.829999999999984	pain	stimulus	12	low_cue	high_stim	n/a	n/a	n/a	n/a	n/a	n/a	n/a	383.62	387.63	392.63	396.44	success	n/a	n/a	n/a
394.8	3.15	pain	outcomerating	12	low_cue	high_stim	63.02	Strong	63.02	Strong	0.53	1.49	task-social/outcomerating/task-pain_scale.png	n/a	n/a	n/a	n/a	success	n/a	n/a	n/a
