onset	duration	run_type	trial_type	trial_index	cue	stimulusintensity	rating_value	rating_glmslabel	rating_value_fillna	rating_glmslabel_fillna	rating_mouseonset	rating_mousedur	stim_file	pain_onset_ttl1	pain_onset_ttl2	pain_onset_ttl3	pain_onset_ttl4	pain_stimulus_delivery_success	cognitive_correct_response	cognitive_participant_response	cognitive_response_accuracy
5.01	1.0	pain	cue	1	low_cue	n/a	n/a	n/a	n/a	n/a	n/a	n/a	task-social/cue/runtype-pain/scl/l044.png	n/a	n/a	n/a	n/a	n/a	n/a	n/a	n/a
7.63	n/a	pain	expectrating	1	low_cue	n/a	n/a	n/a	63.23	Strong	0.5	3.88	task-social/cue/runtype-pain/scl/l044.png	n/a	n/a	n/a	n/a	n/a	n/a	n/a	n/a
16.84	12.82	pain	stimulus	1	low_cue	high_stim	n/a	n/a	n/a	n/a	n/a	n/a	n/a	16.84	20.85	25.85	29.66	success	n/a	n/a	n/a
28.82	3.22	pain	outcomerating	1	low_cue	high_stim	77.55	Very Strong	77.55	Very Strong	0.17	3.05	task-social/outcomerating/task-pain_scale.png	n/a	n/a	n/a	n/a	success	n/a	n/a	n/a
37.4	1.0	pain	cue	2	high_cue	n/a	n/a	n/a	n/a	n/a	n/a	n/a	task-social/cue/runtype-pain/sch/h047.png	n/a	n/a	n/a	n/a	n/a	n/a	n/a	n/a
39.7	2.93	pain	expectrating	2	high_cue	n/a	77.92	Very Strong	77.92	Very Strong	1.12	1.82	task-social/cue/runtype-pain/sch/h047.png	n/a	n/a	n/a	n/a	n/a	n/a	n/a	n/a
50.02	12.36	pain	stimulus	2	high_cue	med_stim	n/a	n/a	n/a	n/a	n/a	n/a	n/a	50.02	53.78	58.78	62.39	success	n/a	n/a	n/a
65.51	n/a	pain	outcomerating	2	high_cue	med_stim	n/a	n/a	55.1	Strong	0.5	3.37	task-social/outcomerating/task-pain_scale.png	n/a	n/a	n/a	n/a	success	n/a	n/a	n/a
70.7	1.0	pain	cue	3	low_cue	n/a	n/a	n/a	n/a	n/a	n/a	n/a	task-social/cue/runtype-pain/scl/l055.png	n/a	n/a	n/a	n/a	n/a	n/a	n/a	n/a
73.0	2.17	pain	expectrating	3	low_cue	n/a	69.94	Very Strong	69.94	Very Strong	0.33	1.83	task-social/cue/runtype-pain/scl/l055.png	n/a	n/a	n/a	n/a	n/a	n/a	n/a	n/a
77.93	11.909999999999997	pain	stimulus	3	low_cue	low_stim	n/a	n/a	n/a	n/a	n/a	n/a	n/a	77.93	81.43	86.43	89.83	success	n/a	n/a	n/a
88.31	3.15	pain	outcomerating	3	low_cue	low_stim	53.5	Strong	53.5	Strong	1.07	2.08	task-social/outcomerating/task-pain_scale.png	n/a	n/a	n/a	n/a	success	n/a	n/a	n/a
100.21	0.98	pain	cue	4	high_cue	n/a	n/a	n/a	n/a	n/a	n/a	n/a	task-social/cue/runtype-pain/sch/h033.png	n/a	n/a	n/a	n/a	n/a	n/a	n/a	n/a
102.81	1.46	pain	expectrating	4	high_cue	n/a	80.31	Very Strong	80.31	Very Strong	0.38	1.07	task-social/cue/runtype-pain/sch/h033.png	n/a	n/a	n/a	n/a	n/a	n/a	n/a	n/a
108.26	11.899999999999991	pain	stimulus	4	high_cue	low_stim	n/a	n/a	n/a	n/a	n/a	n/a	n/a	108.26	111.76	116.76	120.16	success	n/a	n/a	n/a
123.7	n/a	pain	outcomerating	4	high_cue	low_stim	n/a	n/a	54.46	Strong	0.48	2.7	task-social/outcomerating/task-pain_scale.png	n/a	n/a	n/a	n/a	success	n/a	n/a	n/a
132.61	1.0	pain	cue	5	low_cue	n/a	n/a	n/a	n/a	n/a	n/a	n/a	task-social/cue/runtype-pain/scl/l043.png	n/a	n/a	n/a	n/a	n/a	n/a	n/a	n/a
135.21	1.78	pain	expectrating	5	low_cue	n/a	70.47	Very Strong	70.47	Very Strong	1.12	0.67	task-social/cue/runtype-pain/scl/l043.png	n/a	n/a	n/a	n/a	n/a	n/a	n/a	n/a
145.52	12.369999999999976	pain	stimulus	5	low_cue	med_stim	n/a	n/a	n/a	n/a	n/a	n/a	n/a	145.52	149.28	154.28	157.89	success	n/a	n/a	n/a
156.41	2.74	pain	outcomerating	5	low_cue	med_stim	50.08	Strong	50.08	Strong	1.38	1.35	task-social/outcomerating/task-pain_scale.png	n/a	n/a	n/a	n/a	success	n/a	n/a	n/a
165.3	1.0	pain	cue	6	high_cue	n/a	n/a	n/a	n/a	n/a	n/a	n/a	task-social/cue/runtype-pain/sch/h053.png	n/a	n/a	n/a	n/a	n/a	n/a	n/a	n/a
167.6	1.53	pain	expectrating	6	high_cue	n/a	84.68	Very Strong	84.68	Very Strong	0.37	1.17	task-social/cue/runtype-pain/sch/h053.png	n/a	n/a	n/a	n/a	n/a	n/a	n/a	n/a
177.83	12.819999999999993	pain	stimulus	6	high_cue	high_stim	n/a	n/a	n/a	n/a	n/a	n/a	n/a	177.83	181.84	186.84	190.65	success	n/a	n/a	n/a
190.61	2.74	pain	outcomerating	6	high_cue	high_stim	66.11	Very Strong	66.11	Very Strong	0.23	2.51	task-social/outcomerating/task-pain_scale.png	n/a	n/a	n/a	n/a	success	n/a	n/a	n/a
199.4	1.0	pain	cue	7	low_cue	n/a	n/a	n/a	n/a	n/a	n/a	n/a	task-social/cue/runtype-pain/scl/l015.png	n/a	n/a	n/a	n/a	n/a	n/a	n/a	n/a
201.81	3.07	pain	expectrating	7	low_cue	n/a	72.88	Very Strong	72.88	Very Strong	0.3	2.77	task-social/cue/runtype-pain/scl/l015.png	n/a	n/a	n/a	n/a	n/a	n/a	n/a	n/a
212.13	11.900000000000006	pain	stimulus	7	low_cue	low_stim	n/a	n/a	n/a	n/a	n/a	n/a	n/a	212.13	215.63	220.63	224.03	success	n/a	n/a	n/a
231.01	2.62	pain	outcomerating	7	low_cue	low_stim	54.38	Strong	54.38	Strong	0.87	1.75	task-social/outcomerating/task-pain_scale.png	n/a	n/a	n/a	n/a	success	n/a	n/a	n/a
236.41	0.98	pain	cue	8	low_cue	n/a	n/a	n/a	n/a	n/a	n/a	n/a	task-social/cue/runtype-pain/scl/l053.png	n/a	n/a	n/a	n/a	n/a	n/a	n/a	n/a
239.11	3.26	pain	expectrating	8	low_cue	n/a	72.37	Very Strong	72.37	Very Strong	0.88	2.37	task-social/cue/runtype-pain/scl/l053.png	n/a	n/a	n/a	n/a	n/a	n/a	n/a	n/a
245.43	12.819999999999993	pain	stimulus	8	low_cue	high_stim	n/a	n/a	n/a	n/a	n/a	n/a	n/a	245.43	249.44	254.44	258.25	success	n/a	n/a	n/a
261.2	n/a	pain	outcomerating	8	low_cue	high_stim	n/a	n/a	78.64	Very Strong	0.67	3.12	task-social/outcomerating/task-pain_scale.png	n/a	n/a	n/a	n/a	success	n/a	n/a	n/a
266.5	1.0	pain	cue	9	high_cue	n/a	n/a	n/a	n/a	n/a	n/a	n/a	task-social/cue/runtype-pain/sch/h015.png	n/a	n/a	n/a	n/a	n/a	n/a	n/a	n/a
269.71	3.45	pain	expectrating	9	high_cue	n/a	69.61	Very Strong	69.61	Very Strong	1.15	2.3	task-social/cue/runtype-pain/sch/h015.png	n/a	n/a	n/a	n/a	n/a	n/a	n/a	n/a
278.25	12.819999999999993	pain	stimulus	9	high_cue	high_stim	n/a	n/a	n/a	n/a	n/a	n/a	n/a	278.25	282.26	287.26	291.07	success	n/a	n/a	n/a
290.71	n/a	pain	outcomerating	9	high_cue	high_stim	n/a	n/a	71.34	Very Strong	0.82	1.63	task-social/outcomerating/task-pain_scale.png	n/a	n/a	n/a	n/a	success	n/a	n/a	n/a
304.5	1.0	pain	cue	10	high_cue	n/a	n/a	n/a	n/a	n/a	n/a	n/a	task-social/cue/runtype-pain/sch/h027.png	n/a	n/a	n/a	n/a	n/a	n/a	n/a	n/a
307.4	1.68	pain	expectrating	10	high_cue	n/a	80.23	Very Strong	80.23	Very Strong	0.43	1.25	task-social/cue/runtype-pain/sch/h027.png	n/a	n/a	n/a	n/a	n/a	n/a	n/a	n/a
317.62	12.360000000000014	pain	stimulus	10	high_cue	med_stim	n/a	n/a	n/a	n/a	n/a	n/a	n/a	317.62	321.38	326.38	329.99	success	n/a	n/a	n/a
329.71	3.79	pain	outcomerating	10	high_cue	med_stim	52.49	Strong	52.49	Strong	0.5	3.29	task-social/outcomerating/task-pain_scale.png	n/a	n/a	n/a	n/a	success	n/a	n/a	n/a
335.9	1.0	pain	cue	11	high_cue	n/a	n/a	n/a	n/a	n/a	n/a	n/a	task-social/cue/runtype-pain/sch/h010.png	n/a	n/a	n/a	n/a	n/a	n/a	n/a	n/a
338.32	0.93	pain	expectrating	11	high_cue	n/a	66.74	Very Strong	66.74	Very Strong	0.18	0.75	task-social/cue/runtype-pain/sch/h010.png	n/a	n/a	n/a	n/a	n/a	n/a	n/a	n/a
344.64	11.910000000000025	pain	stimulus	11	high_cue	low_stim	n/a	n/a	n/a	n/a	n/a	n/a	n/a	344.64	348.14	353.14	356.54	success	n/a	n/a	n/a
358.31	3.32	pain	outcomerating	11	high_cue	low_stim	40.45	Strong	40.45	Strong	0.15	3.17	task-social/outcomerating/task-pain_scale.png	n/a	n/a	n/a	n/a	success	n/a	n/a	n/a
371.21	0.98	pain	cue	12	low_cue	n/a	n/a	n/a	n/a	n/a	n/a	n/a	task-social/cue/runtype-pain/scl/l021.png	n/a	n/a	n/a	n/a	n/a	n/a	n/a	n/a
373.11	2.49	pain	expectrating	12	low_cue	n/a	64.36	Very Strong	64.36	Very Strong	0.58	1.91	task-social/cue/runtype-pain/scl/l021.png	n/a	n/a	n/a	n/a	n/a	n/a	n/a	n/a
383.24	12.370000000000005	pain	stimulus	12	low_cue	med_stim	n/a	n/a	n/a	n/a	n/a	n/a	n/a	383.24	387.0	392.0	395.61	success	n/a	n/a	n/a
394.9	3.92	pain	outcomerating	12	low_cue	med_stim	50.73	Strong	50.73	Strong	1.37	2.55	task-social/outcomerating/task-pain_scale.png	n/a	n/a	n/a	n/a	success	n/a	n/a	n/a
