onset	duration	run_type	trial_type	trial_index	cue	stimulusintensity	rating_value	rating_glmslabel	rating_value_fillna	rating_glmslabel_fillna	rating_mouseonset	rating_mousedur	stim_file	pain_onset_ttl1	pain_onset_ttl2	pain_onset_ttl3	pain_onset_ttl4	pain_stimulus_delivery_success	cognitive_correct_response	cognitive_participant_response	cognitive_response_accuracy
8.1	0.98	cognitive	cue	1	high_cue	n/a	n/a	n/a	n/a	n/a	n/a	n/a	n/a	n/a	n/a	n/a	n/a	n/a	n/a	n/a	n/a
10.01	3.92	cognitive	expectrating	1	high_cue	n/a	65.0	Very Strong	65.0	Very Strong	0.17	3.76	task-social/cue/runtype-cognitive/sch/h002.png	n/a	n/a	n/a	n/a	n/a	n/a	n/a	n/a
23.31	5.0	cognitive	stimulus	1	high_cue	low_stim	n/a	n/a	n/a	n/a	n/a	n/a	task-social/stim/runtype-cognitive/14_50.jpg	n/a	n/a	n/a	n/a	n/a	same	n/a	False
39.6	3.65	cognitive	outcomerating	1	high_cue	low_stim	65.59	Very Strong	65.59	Very Strong	0.73	2.92	task-social/outcomerating/task-cognitive_scale.png	n/a	n/a	n/a	n/a	n/a	n/a	n/a	n/a
52.41	0.98	cognitive	cue	2	low_cue	n/a	n/a	n/a	n/a	n/a	n/a	n/a	n/a	n/a	n/a	n/a	n/a	n/a	n/a	n/a	n/a
55.01	1.69	cognitive	expectrating	2	low_cue	n/a	38.98	Strong	38.98	Strong	0.05	1.64	task-social/cue/runtype-cognitive/scl/l010.png	n/a	n/a	n/a	n/a	n/a	n/a	n/a	n/a
69.0	5.0	cognitive	stimulus	2	low_cue	med_stim	n/a	n/a	n/a	n/a	n/a	n/a	task-social/stim/runtype-cognitive/22_100_R.jpg	n/a	n/a	n/a	n/a	n/a	diff	diff	True
83.9	3.48	cognitive	outcomerating	2	low_cue	med_stim	41.1	Strong	41.1	Strong	0.87	2.62	task-social/outcomerating/task-cognitive_scale.png	n/a	n/a	n/a	n/a	n/a	n/a	n/a	n/a
93.2	0.98	cognitive	cue	3	high_cue	n/a	n/a	n/a	n/a	n/a	n/a	n/a	n/a	n/a	n/a	n/a	n/a	n/a	n/a	n/a	n/a
96.11	2.62	cognitive	expectrating	3	high_cue	n/a	77.47	Very Strong	77.47	Very Strong	0.08	2.53	task-social/cue/runtype-cognitive/sch/h031.png	n/a	n/a	n/a	n/a	n/a	n/a	n/a	n/a
105.59	5.0	cognitive	stimulus	3	high_cue	high_stim	n/a	n/a	n/a	n/a	n/a	n/a	task-social/stim/runtype-cognitive/7_150_R.jpg	n/a	n/a	n/a	n/a	n/a	diff	diff	True
116.4	n/a	cognitive	outcomerating	3	high_cue	high_stim	n/a	n/a	49.57	Strong	1.77	2.07	task-social/outcomerating/task-cognitive_scale.png	n/a	n/a	n/a	n/a	n/a	n/a	n/a	n/a
123.4	0.98	cognitive	cue	4	low_cue	n/a	n/a	n/a	n/a	n/a	n/a	n/a	n/a	n/a	n/a	n/a	n/a	n/a	n/a	n/a	n/a
126.7	3.52	cognitive	expectrating	4	low_cue	n/a	11.31	Moderate	11.31	Moderate	0.2	3.32	task-social/cue/runtype-cognitive/scl/l016.png	n/a	n/a	n/a	n/a	n/a	n/a	n/a	n/a
134.7	5.0	cognitive	stimulus	4	low_cue	high_stim	n/a	n/a	n/a	n/a	n/a	n/a	task-social/stim/runtype-cognitive/44_150.jpg	n/a	n/a	n/a	n/a	n/a	same	diff	False
143.01	n/a	cognitive	outcomerating	4	low_cue	high_stim	n/a	n/a	40.25	Strong	1.3	2.58	task-social/outcomerating/task-cognitive_scale.png	n/a	n/a	n/a	n/a	n/a	n/a	n/a	n/a
151.29	0.99	cognitive	cue	5	high_cue	n/a	n/a	n/a	n/a	n/a	n/a	n/a	n/a	n/a	n/a	n/a	n/a	n/a	n/a	n/a	n/a
153.11	2.42	cognitive	expectrating	5	high_cue	n/a	64.05	Very Strong	64.05	Very Strong	0.95	1.47	task-social/cue/runtype-cognitive/sch/h011.png	n/a	n/a	n/a	n/a	n/a	n/a	n/a	n/a
167.1	5.0	cognitive	stimulus	5	high_cue	low_stim	n/a	n/a	n/a	n/a	n/a	n/a	task-social/stim/runtype-cognitive/24_50_R.jpg	n/a	n/a	n/a	n/a	n/a	diff	diff	True
177.7	n/a	cognitive	outcomerating	5	high_cue	low_stim	n/a	n/a	40.6	Strong	1.2	2.6	task-social/outcomerating/task-cognitive_scale.png	n/a	n/a	n/a	n/a	n/a	n/a	n/a	n/a
188.39	0.99	cognitive	cue	6	high_cue	n/a	n/a	n/a	n/a	n/a	n/a	n/a	n/a	n/a	n/a	n/a	n/a	n/a	n/a	n/a	n/a
190.49	n/a	cognitive	expectrating	6	high_cue	n/a	n/a	n/a	78.74	Very Strong	1.2	3.98	task-social/cue/runtype-cognitive/sch/h033.png	n/a	n/a	n/a	n/a	n/a	n/a	n/a	n/a
198.5	5.0	cognitive	stimulus	6	high_cue	med_stim	n/a	n/a	n/a	n/a	n/a	n/a	task-social/stim/runtype-cognitive/26_100.jpg	n/a	n/a	n/a	n/a	n/a	same	diff	False
207.5	3.28	cognitive	outcomerating	6	high_cue	med_stim	65.9	Very Strong	65.9	Very Strong	0.98	2.3	task-social/outcomerating/task-cognitive_scale.png	n/a	n/a	n/a	n/a	n/a	n/a	n/a	n/a
218.2	0.98	cognitive	cue	7	low_cue	n/a	n/a	n/a	n/a	n/a	n/a	n/a	n/a	n/a	n/a	n/a	n/a	n/a	n/a	n/a	n/a
220.3	2.7	cognitive	expectrating	7	low_cue	n/a	26.67	Moderate	26.67	Moderate	0.05	2.65	task-social/cue/runtype-cognitive/scl/l001.png	n/a	n/a	n/a	n/a	n/a	n/a	n/a	n/a
230.19	5.0	cognitive	stimulus	7	low_cue	high_stim	n/a	n/a	n/a	n/a	n/a	n/a	task-social/stim/runtype-cognitive/27_150_R.jpg	n/a	n/a	n/a	n/a	n/a	diff	diff	True
239.2	2.45	cognitive	outcomerating	7	low_cue	high_stim	8.29	Weak	8.29	Weak	1.03	1.42	task-social/outcomerating/task-cognitive_scale.png	n/a	n/a	n/a	n/a	n/a	n/a	n/a	n/a
246.2	0.99	cognitive	cue	8	high_cue	n/a	n/a	n/a	n/a	n/a	n/a	n/a	n/a	n/a	n/a	n/a	n/a	n/a	n/a	n/a	n/a
248.7	n/a	cognitive	expectrating	8	high_cue	n/a	n/a	n/a	48.92	Strong	0.42	3.97	task-social/cue/runtype-cognitive/sch/h020.png	n/a	n/a	n/a	n/a	n/a	n/a	n/a	n/a
257.7	5.0	cognitive	stimulus	8	high_cue	med_stim	n/a	n/a	n/a	n/a	n/a	n/a	task-social/stim/runtype-cognitive/28_100.jpg	n/a	n/a	n/a	n/a	n/a	same	same	True
268.31	2.82	cognitive	outcomerating	8	high_cue	med_stim	9.95	Weak	9.95	Weak	0.65	2.17	task-social/outcomerating/task-cognitive_scale.png	n/a	n/a	n/a	n/a	n/a	n/a	n/a	n/a
277.59	0.99	cognitive	cue	9	low_cue	n/a	n/a	n/a	n/a	n/a	n/a	n/a	n/a	n/a	n/a	n/a	n/a	n/a	n/a	n/a	n/a
280.71	2.27	cognitive	expectrating	9	low_cue	n/a	10.86	Moderate	10.86	Moderate	0.05	2.22	task-social/cue/runtype-cognitive/scl/l056.png	n/a	n/a	n/a	n/a	n/a	n/a	n/a	n/a
292.5	5.0	cognitive	stimulus	9	low_cue	low_stim	n/a	n/a	n/a	n/a	n/a	n/a	task-social/stim/runtype-cognitive/35_50.jpg	n/a	n/a	n/a	n/a	n/a	same	same	True
305.2	2.57	cognitive	outcomerating	9	low_cue	low_stim	14.15	Moderate	14.15	Moderate	1.12	1.45	task-social/outcomerating/task-cognitive_scale.png	n/a	n/a	n/a	n/a	n/a	n/a	n/a	n/a
309.69	1.0	cognitive	cue	10	low_cue	n/a	n/a	n/a	n/a	n/a	n/a	n/a	n/a	n/a	n/a	n/a	n/a	n/a	n/a	n/a	n/a
312.01	2.37	cognitive	expectrating	10	low_cue	n/a	29.23	Strong	29.23	Strong	0.05	2.32	task-social/cue/runtype-cognitive/scl/l033.png	n/a	n/a	n/a	n/a	n/a	n/a	n/a	n/a
319.99	5.0	cognitive	stimulus	10	low_cue	low_stim	n/a	n/a	n/a	n/a	n/a	n/a	task-social/stim/runtype-cognitive/14_50_R.jpg	n/a	n/a	n/a	n/a	n/a	diff	diff	True
330.8	n/a	cognitive	outcomerating	10	low_cue	low_stim	n/a	n/a	21.71	Moderate	0.7	3.28	task-social/outcomerating/task-cognitive_scale.png	n/a	n/a	n/a	n/a	n/a	n/a	n/a	n/a
339.2	0.98	cognitive	cue	11	high_cue	n/a	n/a	n/a	n/a	n/a	n/a	n/a	n/a	n/a	n/a	n/a	n/a	n/a	n/a	n/a	n/a
342.3	1.97	cognitive	expectrating	11	high_cue	n/a	68.37	Very Strong	68.37	Very Strong	0.05	1.92	task-social/cue/runtype-cognitive/sch/h047.png	n/a	n/a	n/a	n/a	n/a	n/a	n/a	n/a
354.61	5.0	cognitive	stimulus	11	high_cue	high_stim	n/a	n/a	n/a	n/a	n/a	n/a	task-social/stim/runtype-cognitive/1_150_R.jpg	n/a	n/a	n/a	n/a	n/a	diff	diff	True
366.9	3.31	cognitive	outcomerating	11	high_cue	high_stim	60.14	Strong	60.14	Strong	1.12	2.19	task-social/outcomerating/task-cognitive_scale.png	n/a	n/a	n/a	n/a	n/a	n/a	n/a	n/a
371.7	0.99	cognitive	cue	12	low_cue	n/a	n/a	n/a	n/a	n/a	n/a	n/a	n/a	n/a	n/a	n/a	n/a	n/a	n/a	n/a	n/a
374.0	0.94	cognitive	expectrating	12	low_cue	n/a	17.63	Moderate	17.63	Moderate	0.1	0.84	task-social/cue/runtype-cognitive/scl/l045.png	n/a	n/a	n/a	n/a	n/a	n/a	n/a	n/a
382.0	5.0	cognitive	stimulus	12	low_cue	med_stim	n/a	n/a	n/a	n/a	n/a	n/a	task-social/stim/runtype-cognitive/24_100.jpg	n/a	n/a	n/a	n/a	n/a	same	same	True
394.81	n/a	cognitive	outcomerating	12	low_cue	med_stim	n/a	n/a	19.67	Moderate	0.47	3.45	task-social/outcomerating/task-cognitive_scale.png	n/a	n/a	n/a	n/a	n/a	n/a	n/a	n/a
