onset	duration	run_type	trial_type	trial_index	cue	stimulusintensity	rating_value	rating_glmslabel	rating_value_fillna	rating_glmslabel_fillna	rating_mouseonset	rating_mousedur	stim_file_TODO	pain_onset_ttl1	pain_onset_ttl2	pain_onset_ttl3	pain_onset_ttl4	pain_stimulus_delivery_success	cognitive_correct_response	cognitive_participant_response	cognitive_response_accuracy
3.89	0.98	vicarious	cue	1	high_cue	n/a	n/a	n/a	n/a	n/a	n/a	n/a	task-social/cue/runtype-vicarious/sch/h050.png	n/a	n/a	n/a	n/a	n/a	n/a	n/a	n/a
6.11	n/a	vicarious	expectrating	1	high_cue	n/a	n/a	n/a	50.11	Strong	1.8	3.95	task-social/cue/runtype-vicarious/sch/h050.png	n/a	n/a	n/a	n/a	n/a	n/a	n/a	n/a
16.77	5.0	vicarious	stimulus	1	high_cue	low_stim	n/a	n/a	n/a	n/a	n/a	n/a	task-social/stim/runtype-vicarious/bm049t1afaff_L.mp4	n/a	n/a	n/a	n/a	n/a	n/a	n/a	n/a
29.0	n/a	vicarious	outcomerating	1	high_cue	low_stim	n/a	n/a	30.21	Strong	1.8	3.95	task-social/outcomerating/task-vicarious_scale.png	n/a	n/a	n/a	n/a	n/a	n/a	n/a	n/a
33.59	0.98	vicarious	cue	2	low_cue	n/a	n/a	n/a	n/a	n/a	n/a	n/a	task-social/cue/runtype-vicarious/scl/l018.png	n/a	n/a	n/a	n/a	n/a	n/a	n/a	n/a
35.99	n/a	vicarious	expectrating	2	low_cue	n/a	n/a	n/a	n/a	n/a	n/a	n/a	task-social/cue/runtype-vicarious/scl/l018.png	n/a	n/a	n/a	n/a	n/a	n/a	n/a	n/a
49.77	5.0	vicarious	stimulus	2	low_cue	med_stim	n/a	n/a	n/a	n/a	n/a	n/a	task-social/stim/runtype-vicarious/vw121t1aiaff_M.mp4	n/a	n/a	n/a	n/a	n/a	n/a	n/a	n/a
59.9	3.82	vicarious	outcomerating	2	low_cue	med_stim	13.25	Moderate	13.25	Moderate	n/a	n/a	task-social/outcomerating/task-vicarious_scale.png	n/a	n/a	n/a	n/a	n/a	n/a	n/a	n/a
65.08	0.99	vicarious	cue	3	high_cue	n/a	n/a	n/a	n/a	n/a	n/a	n/a	task-social/cue/runtype-vicarious/sch/h046.png	n/a	n/a	n/a	n/a	n/a	n/a	n/a	n/a
67.3	n/a	vicarious	expectrating	3	high_cue	n/a	n/a	n/a	180.0	Strongest sensation of any kind	1.93	1.92	task-social/cue/runtype-vicarious/sch/h046.png	n/a	n/a	n/a	n/a	n/a	n/a	n/a	n/a
73.87	5.0	vicarious	stimulus	3	high_cue	low_stim	n/a	n/a	n/a	n/a	n/a	n/a	task-social/stim/runtype-vicarious/ch092t2aeaff_L.mp4	n/a	n/a	n/a	n/a	n/a	n/a	n/a	n/a
82.39	2.97	vicarious	outcomerating	3	high_cue	low_stim	16.77	Moderate	16.77	Moderate	1.93	1.92	task-social/outcomerating/task-vicarious_scale.png	n/a	n/a	n/a	n/a	n/a	n/a	n/a	n/a
87.49	0.98	vicarious	cue	4	low_cue	n/a	n/a	n/a	n/a	n/a	n/a	n/a	task-social/cue/runtype-vicarious/scl/l051.png	n/a	n/a	n/a	n/a	n/a	n/a	n/a	n/a
90.99	3.89	vicarious	expectrating	4	low_cue	n/a	20.45	Moderate	20.45	Moderate	0.15	3.74	task-social/cue/runtype-vicarious/scl/l051.png	n/a	n/a	n/a	n/a	n/a	n/a	n/a	n/a
105.97	5.0	vicarious	stimulus	4	low_cue	med_stim	n/a	n/a	n/a	n/a	n/a	n/a	task-social/stim/runtype-vicarious/bn080t1aeaff_M.mp4	n/a	n/a	n/a	n/a	n/a	n/a	n/a	n/a
119.19	3.12	vicarious	outcomerating	4	low_cue	med_stim	23.47	Moderate	23.47	Moderate	0.15	3.74	task-social/outcomerating/task-vicarious_scale.png	n/a	n/a	n/a	n/a	n/a	n/a	n/a	n/a
124.29	0.98	vicarious	cue	5	high_cue	n/a	n/a	n/a	n/a	n/a	n/a	n/a	task-social/cue/runtype-vicarious/sch/h024.png	n/a	n/a	n/a	n/a	n/a	n/a	n/a	n/a
125.99	3.02	vicarious	expectrating	5	high_cue	n/a	52.17	Strong	52.17	Strong	0.98	2.04	task-social/cue/runtype-vicarious/sch/h024.png	n/a	n/a	n/a	n/a	n/a	n/a	n/a	n/a
132.58	5.0	vicarious	stimulus	5	high_cue	high_stim	n/a	n/a	n/a	n/a	n/a	n/a	task-social/stim/runtype-vicarious/bg096t1aeaff_H.mp4	n/a	n/a	n/a	n/a	n/a	n/a	n/a	n/a
145.8	3.1	vicarious	outcomerating	5	high_cue	high_stim	60.26	Strong	60.26	Strong	0.98	2.04	task-social/outcomerating/task-vicarious_scale.png	n/a	n/a	n/a	n/a	n/a	n/a	n/a	n/a
150.38	0.99	vicarious	cue	6	low_cue	n/a	n/a	n/a	n/a	n/a	n/a	n/a	task-social/cue/runtype-vicarious/scl/l019.png	n/a	n/a	n/a	n/a	n/a	n/a	n/a	n/a
153.88	3.35	vicarious	expectrating	6	low_cue	n/a	10.45	Moderate	10.45	Moderate	0.48	2.87	task-social/cue/runtype-vicarious/scl/l019.png	n/a	n/a	n/a	n/a	n/a	n/a	n/a	n/a
161.67	5.0	vicarious	stimulus	6	low_cue	low_stim	n/a	n/a	n/a	n/a	n/a	n/a	task-social/stim/runtype-vicarious/jk103t1aaunaff_L.mp4	n/a	n/a	n/a	n/a	n/a	n/a	n/a	n/a
173.89	2.74	vicarious	outcomerating	6	low_cue	low_stim	23.77	Moderate	23.77	Moderate	0.48	2.87	task-social/outcomerating/task-vicarious_scale.png	n/a	n/a	n/a	n/a	n/a	n/a	n/a	n/a
183.48	0.99	vicarious	cue	7	low_cue	n/a	n/a	n/a	n/a	n/a	n/a	n/a	task-social/cue/runtype-vicarious/scl/l020.png	n/a	n/a	n/a	n/a	n/a	n/a	n/a	n/a
185.68	3.2	vicarious	expectrating	7	low_cue	n/a	6.7	Weak	6.7	Weak	0.45	2.75	task-social/cue/runtype-vicarious/scl/l020.png	n/a	n/a	n/a	n/a	n/a	n/a	n/a	n/a
199.87	5.0	vicarious	stimulus	7	low_cue	high_stim	n/a	n/a	n/a	n/a	n/a	n/a	task-social/stim/runtype-vicarious/ib109t1aiaff_H.mp4	n/a	n/a	n/a	n/a	n/a	n/a	n/a	n/a
213.19	2.75	vicarious	outcomerating	7	low_cue	high_stim	26.98	Moderate	26.98	Moderate	0.45	2.75	task-social/outcomerating/task-vicarious_scale.png	n/a	n/a	n/a	n/a	n/a	n/a	n/a	n/a
223.38	0.99	vicarious	cue	8	low_cue	n/a	n/a	n/a	n/a	n/a	n/a	n/a	task-social/cue/runtype-vicarious/scl/l048.png	n/a	n/a	n/a	n/a	n/a	n/a	n/a	n/a
225.58	n/a	vicarious	expectrating	8	low_cue	n/a	n/a	n/a	6.26	Weak	0.5	3.92	task-social/cue/runtype-vicarious/scl/l048.png	n/a	n/a	n/a	n/a	n/a	n/a	n/a	n/a
232.17	5.0	vicarious	stimulus	8	low_cue	low_stim	n/a	n/a	n/a	n/a	n/a	n/a	task-social/stim/runtype-vicarious/vw121t1aeaff_L.mp4	n/a	n/a	n/a	n/a	n/a	n/a	n/a	n/a
245.49	3.84	vicarious	outcomerating	8	low_cue	low_stim	8.55	Weak	8.55	Weak	0.5	3.92	task-social/outcomerating/task-vicarious_scale.png	n/a	n/a	n/a	n/a	n/a	n/a	n/a	n/a
259.28	1.0	vicarious	cue	9	high_cue	n/a	n/a	n/a	n/a	n/a	n/a	n/a	task-social/cue/runtype-vicarious/sch/h017.png	n/a	n/a	n/a	n/a	n/a	n/a	n/a	n/a
262.79	2.8	vicarious	expectrating	9	high_cue	n/a	68.33	Very Strong	68.33	Very Strong	0.27	2.54	task-social/cue/runtype-vicarious/sch/h017.png	n/a	n/a	n/a	n/a	n/a	n/a	n/a	n/a
277.77	5.0	vicarious	stimulus	9	high_cue	high_stim	n/a	n/a	n/a	n/a	n/a	n/a	task-social/stim/runtype-vicarious/bm049t2aeunaff_H.mp4	n/a	n/a	n/a	n/a	n/a	n/a	n/a	n/a
287.89	n/a	vicarious	outcomerating	9	high_cue	high_stim	n/a	n/a	39.45	Strong	0.27	2.54	task-social/outcomerating/task-vicarious_scale.png	n/a	n/a	n/a	n/a	n/a	n/a	n/a	n/a
294.09	0.98	vicarious	cue	10	low_cue	n/a	n/a	n/a	n/a	n/a	n/a	n/a	task-social/cue/runtype-vicarious/scl/l032.png	n/a	n/a	n/a	n/a	n/a	n/a	n/a	n/a
296.49	n/a	vicarious	expectrating	10	low_cue	n/a	n/a	n/a	19.67	Moderate	0.05	3.98	task-social/cue/runtype-vicarious/scl/l032.png	n/a	n/a	n/a	n/a	n/a	n/a	n/a	n/a
304.07	5.0	vicarious	stimulus	10	low_cue	high_stim	n/a	n/a	n/a	n/a	n/a	n/a	task-social/stim/runtype-vicarious/jk103t1aaaff_H.mp4	n/a	n/a	n/a	n/a	n/a	n/a	n/a	n/a
312.6	2.88	vicarious	outcomerating	10	low_cue	high_stim	46.46	Strong	46.46	Strong	0.05	3.98	task-social/outcomerating/task-vicarious_scale.png	n/a	n/a	n/a	n/a	n/a	n/a	n/a	n/a
331.09	0.98	vicarious	cue	11	high_cue	n/a	n/a	n/a	n/a	n/a	n/a	n/a	task-social/cue/runtype-vicarious/sch/h016.png	n/a	n/a	n/a	n/a	n/a	n/a	n/a	n/a
333.49	3.25	vicarious	expectrating	11	high_cue	n/a	31.71	Strong	31.71	Strong	0.63	2.62	task-social/cue/runtype-vicarious/sch/h016.png	n/a	n/a	n/a	n/a	n/a	n/a	n/a	n/a
342.77	5.0	vicarious	stimulus	11	high_cue	med_stim	n/a	n/a	n/a	n/a	n/a	n/a	task-social/stim/runtype-vicarious/bg096t2aaaff_M.mp4	n/a	n/a	n/a	n/a	n/a	n/a	n/a	n/a
355.8	2.72	vicarious	outcomerating	11	high_cue	med_stim	59.31	Strong	59.31	Strong	0.63	2.62	task-social/outcomerating/task-vicarious_scale.png	n/a	n/a	n/a	n/a	n/a	n/a	n/a	n/a
369.59	0.99	vicarious	cue	12	high_cue	n/a	n/a	n/a	n/a	n/a	n/a	n/a	task-social/cue/runtype-vicarious/sch/h032.png	n/a	n/a	n/a	n/a	n/a	n/a	n/a	n/a
371.59	2.52	vicarious	expectrating	12	high_cue	n/a	31.71	Strong	31.71	Strong	0.05	2.47	task-social/cue/runtype-vicarious/sch/h032.png	n/a	n/a	n/a	n/a	n/a	n/a	n/a	n/a
384.57	5.0	vicarious	stimulus	12	high_cue	med_stim	n/a	n/a	n/a	n/a	n/a	n/a	task-social/stim/runtype-vicarious/ch092t2aaaff_M.mp4	n/a	n/a	n/a	n/a	n/a	n/a	n/a	n/a
394.8	3.59	vicarious	outcomerating	12	high_cue	med_stim	22.36	Moderate	22.36	Moderate	0.05	2.47	task-social/outcomerating/task-vicarious_scale.png	n/a	n/a	n/a	n/a	n/a	n/a	n/a	n/a
