onset	duration	run_type	trial_type	trial_index	cue	stimulusintensity	rating_value	rating_glmslabel	rating_value_fillna	rating_glmslabel_fillna	rating_mouseonset	rating_mousedur	stim_file	pain_onset_ttl1	pain_onset_ttl2	pain_onset_ttl3	pain_onset_ttl4	pain_stimulus_delivery_success	cognitive_correct_response	cognitive_participant_response	cognitive_response_accuracy
5.7	1.0	pain	cue	1	low_cue	n/a	n/a	n/a	n/a	n/a	n/a	n/a	task-social/cue/runtype-pain/scl/l021.png	n/a	n/a	n/a	n/a	n/a	n/a	n/a	n/a
7.72	1.35	pain	expectrating	1	low_cue	n/a	22.87	Moderate	22.87	Moderate	0.62	0.73	task-social/cue/runtype-pain/scl/l021.png	n/a	n/a	n/a	n/a	n/a	n/a	n/a	n/a
13.77	12.370000000000001	pain	stimulus	1	low_cue	med_stim	n/a	n/a	n/a	n/a	n/a	n/a	n/a	13.77	17.53	22.53	26.14	success	n/a	n/a	n/a
27.91	1.76	pain	outcomerating	1	low_cue	med_stim	51.09	Strong	51.09	Strong	0.55	1.21	task-social/outcomerating/task-pain_scale.png	n/a	n/a	n/a	n/a	success	n/a	n/a	n/a
33.4	1.0	pain	cue	2	low_cue	n/a	n/a	n/a	n/a	n/a	n/a	n/a	task-social/cue/runtype-pain/scl/l014.png	n/a	n/a	n/a	n/a	n/a	n/a	n/a	n/a
35.7	1.17	pain	expectrating	2	low_cue	n/a	37.87	Strong	37.87	Strong	0.52	0.66	task-social/cue/runtype-pain/scl/l014.png	n/a	n/a	n/a	n/a	n/a	n/a	n/a	n/a
44.53	11.909999999999997	pain	stimulus	2	low_cue	low_stim	n/a	n/a	n/a	n/a	n/a	n/a	n/a	44.53	48.03	53.03	56.43	success	n/a	n/a	n/a
55.4	1.88	pain	outcomerating	2	low_cue	low_stim	39.63	Strong	39.63	Strong	0.63	1.25	task-social/outcomerating/task-pain_scale.png	n/a	n/a	n/a	n/a	success	n/a	n/a	n/a
71.09	1.0	pain	cue	3	low_cue	n/a	n/a	n/a	n/a	n/a	n/a	n/a	task-social/cue/runtype-pain/scl/l023.png	n/a	n/a	n/a	n/a	n/a	n/a	n/a	n/a
73.41	1.78	pain	expectrating	3	low_cue	n/a	22.32	Moderate	22.32	Moderate	0.48	1.3	task-social/cue/runtype-pain/scl/l023.png	n/a	n/a	n/a	n/a	n/a	n/a	n/a	n/a
82.22	12.829999999999998	pain	stimulus	3	low_cue	high_stim	n/a	n/a	n/a	n/a	n/a	n/a	n/a	82.22	86.23	91.23	95.04	success	n/a	n/a	n/a
93.3	2.32	pain	outcomerating	3	low_cue	high_stim	68.37	Very Strong	68.37	Very Strong	0.7	1.62	task-social/outcomerating/task-pain_scale.png	n/a	n/a	n/a	n/a	success	n/a	n/a	n/a
100.7	1.0	pain	cue	4	high_cue	n/a	n/a	n/a	n/a	n/a	n/a	n/a	task-social/cue/runtype-pain/sch/h043.png	n/a	n/a	n/a	n/a	n/a	n/a	n/a	n/a
103.5	1.65	pain	expectrating	4	high_cue	n/a	75.13	Very Strong	75.13	Very Strong	0.33	1.32	task-social/cue/runtype-pain/sch/h043.png	n/a	n/a	n/a	n/a	n/a	n/a	n/a	n/a
112.85	11.91000000000001	pain	stimulus	4	high_cue	low_stim	n/a	n/a	n/a	n/a	n/a	n/a	n/a	112.85	116.35	121.35	124.75	success	n/a	n/a	n/a
124.7	2.52	pain	outcomerating	4	high_cue	low_stim	77.87	Very Strong	77.87	Very Strong	0.78	1.74	task-social/outcomerating/task-pain_scale.png	n/a	n/a	n/a	n/a	success	n/a	n/a	n/a
135.8	1.0	pain	cue	5	high_cue	n/a	n/a	n/a	n/a	n/a	n/a	n/a	task-social/cue/runtype-pain/sch/h018.png	n/a	n/a	n/a	n/a	n/a	n/a	n/a	n/a
137.5	1.5	pain	expectrating	5	high_cue	n/a	71.49	Very Strong	71.49	Very Strong	0.48	1.02	task-social/cue/runtype-pain/sch/h018.png	n/a	n/a	n/a	n/a	n/a	n/a	n/a	n/a
147.83	12.359999999999985	pain	stimulus	5	high_cue	med_stim	n/a	n/a	n/a	n/a	n/a	n/a	n/a	147.83	151.59	156.59	160.2	success	n/a	n/a	n/a
159.71	1.8	pain	outcomerating	5	high_cue	med_stim	75.63	Very Strong	75.63	Very Strong	0.55	1.25	task-social/outcomerating/task-pain_scale.png	n/a	n/a	n/a	n/a	success	n/a	n/a	n/a
170.6	1.0	pain	cue	6	high_cue	n/a	n/a	n/a	n/a	n/a	n/a	n/a	task-social/cue/runtype-pain/sch/h014.png	n/a	n/a	n/a	n/a	n/a	n/a	n/a	n/a
172.4	1.81	pain	expectrating	6	high_cue	n/a	72.29	Very Strong	72.29	Very Strong	0.48	1.32	task-social/cue/runtype-pain/sch/h014.png	n/a	n/a	n/a	n/a	n/a	n/a	n/a	n/a
179.04	12.820000000000022	pain	stimulus	6	high_cue	high_stim	n/a	n/a	n/a	n/a	n/a	n/a	n/a	179.04	183.05	188.05	191.86	success	n/a	n/a	n/a
190.9	1.97	pain	outcomerating	6	high_cue	high_stim	87.7	Very Strong	87.7	Very Strong	0.67	1.3	task-social/outcomerating/task-pain_scale.png	n/a	n/a	n/a	n/a	success	n/a	n/a	n/a
196.89	1.0	pain	cue	7	high_cue	n/a	n/a	n/a	n/a	n/a	n/a	n/a	task-social/cue/runtype-pain/sch/h001.png	n/a	n/a	n/a	n/a	n/a	n/a	n/a	n/a
199.91	1.4	pain	expectrating	7	high_cue	n/a	106.98	Strongest sensation of any kind	106.98	Strongest sensation of any kind	0.25	1.15	task-social/cue/runtype-pain/sch/h001.png	n/a	n/a	n/a	n/a	n/a	n/a	n/a	n/a
210.24	11.899999999999977	pain	stimulus	7	high_cue	low_stim	n/a	n/a	n/a	n/a	n/a	n/a	n/a	210.24	213.74	218.74	222.14	success	n/a	n/a	n/a
231.0	1.82	pain	outcomerating	7	high_cue	low_stim	88.16	Very Strong	88.16	Very Strong	0.52	1.3	task-social/outcomerating/task-pain_scale.png	n/a	n/a	n/a	n/a	success	n/a	n/a	n/a
237.0	1.0	pain	cue	8	low_cue	n/a	n/a	n/a	n/a	n/a	n/a	n/a	task-social/cue/runtype-pain/scl/l012.png	n/a	n/a	n/a	n/a	n/a	n/a	n/a	n/a
239.71	1.47	pain	expectrating	8	low_cue	n/a	11.36	Moderate	11.36	Moderate	0.42	1.05	task-social/cue/runtype-pain/scl/l012.png	n/a	n/a	n/a	n/a	n/a	n/a	n/a	n/a
249.34	12.820000000000022	pain	stimulus	8	low_cue	high_stim	n/a	n/a	n/a	n/a	n/a	n/a	n/a	249.34	253.35	258.35	262.16	success	n/a	n/a	n/a
259.3	1.66	pain	outcomerating	8	low_cue	high_stim	70.76	Very Strong	70.76	Very Strong	0.72	0.94	task-social/outcomerating/task-pain_scale.png	n/a	n/a	n/a	n/a	success	n/a	n/a	n/a
268.3	1.0	pain	cue	9	high_cue	n/a	n/a	n/a	n/a	n/a	n/a	n/a	task-social/cue/runtype-pain/sch/h050.png	n/a	n/a	n/a	n/a	n/a	n/a	n/a	n/a
271.3	1.34	pain	expectrating	9	high_cue	n/a	78.42	Very Strong	78.42	Very Strong	0.38	0.95	task-social/cue/runtype-pain/sch/h050.png	n/a	n/a	n/a	n/a	n/a	n/a	n/a	n/a
277.22	12.819999999999993	pain	stimulus	9	high_cue	high_stim	n/a	n/a	n/a	n/a	n/a	n/a	n/a	277.22	281.23	286.23	290.04	success	n/a	n/a	n/a
295.69	1.44	pain	outcomerating	9	high_cue	high_stim	85.39	Very Strong	85.39	Very Strong	0.48	0.96	task-social/outcomerating/task-pain_scale.png	n/a	n/a	n/a	n/a	success	n/a	n/a	n/a
301.9	1.0	pain	cue	10	low_cue	n/a	n/a	n/a	n/a	n/a	n/a	n/a	task-social/cue/runtype-pain/scl/l017.png	n/a	n/a	n/a	n/a	n/a	n/a	n/a	n/a
304.2	1.51	pain	expectrating	10	low_cue	n/a	24.92	Moderate	24.92	Moderate	0.45	1.06	task-social/cue/runtype-pain/scl/l017.png	n/a	n/a	n/a	n/a	n/a	n/a	n/a	n/a
314.55	12.360000000000014	pain	stimulus	10	low_cue	med_stim	n/a	n/a	n/a	n/a	n/a	n/a	n/a	314.55	318.31	323.31	326.92	success	n/a	n/a	n/a
327.71	2.02	pain	outcomerating	10	low_cue	med_stim	29.03	Strong	29.03	Strong	0.78	1.23	task-social/outcomerating/task-pain_scale.png	n/a	n/a	n/a	n/a	success	n/a	n/a	n/a
333.91	0.98	pain	cue	11	high_cue	n/a	n/a	n/a	n/a	n/a	n/a	n/a	task-social/cue/runtype-pain/sch/h003.png	n/a	n/a	n/a	n/a	n/a	n/a	n/a	n/a
336.91	1.98	pain	expectrating	11	high_cue	n/a	72.98	Very Strong	72.98	Very Strong	0.47	1.52	task-social/cue/runtype-pain/sch/h003.png	n/a	n/a	n/a	n/a	n/a	n/a	n/a	n/a
347.24	12.360000000000014	pain	stimulus	11	high_cue	med_stim	n/a	n/a	n/a	n/a	n/a	n/a	n/a	347.24	351.0	356.0	359.61	success	n/a	n/a	n/a
361.6	2.2	pain	outcomerating	11	high_cue	med_stim	54.3	Strong	54.3	Strong	0.72	1.49	task-social/outcomerating/task-pain_scale.png	n/a	n/a	n/a	n/a	success	n/a	n/a	n/a
372.51	0.98	pain	cue	12	low_cue	n/a	n/a	n/a	n/a	n/a	n/a	n/a	task-social/cue/runtype-pain/scl/l039.png	n/a	n/a	n/a	n/a	n/a	n/a	n/a	n/a
375.51	1.13	pain	expectrating	12	low_cue	n/a	20.22	Moderate	20.22	Moderate	0.43	0.7	task-social/cue/runtype-pain/scl/l039.png	n/a	n/a	n/a	n/a	n/a	n/a	n/a	n/a
381.43	11.909999999999968	pain	stimulus	12	low_cue	low_stim	n/a	n/a	n/a	n/a	n/a	n/a	n/a	381.43	384.93	389.93	393.33	success	n/a	n/a	n/a
394.7	1.72	pain	outcomerating	12	low_cue	low_stim	33.56	Strong	33.56	Strong	0.5	1.22	task-social/outcomerating/task-pain_scale.png	n/a	n/a	n/a	n/a	success	n/a	n/a	n/a
