onset	duration	run_type	trial_type	trial_index	cue	stimulusintensity	rating_value	rating_glmslabel	rating_value_fillna	rating_glmslabel_fillna	rating_mouseonset	rating_mousedur	stim_file	pain_onset_ttl1	pain_onset_ttl2	pain_onset_ttl3	pain_onset_ttl4	pain_stimulus_delivery_success	cognitive_correct_response	cognitive_participant_response	cognitive_response_accuracy
9.08	0.99	vicarious	cue	1	high_cue	n/a	n/a	n/a	n/a	n/a	n/a	n/a	task-social/cue/runtype-vicarious/sch/h051.png	n/a	n/a	n/a	n/a	n/a	n/a	n/a	n/a
10.7	2.05	vicarious	expectrating	1	high_cue	n/a	52.49	Strong	52.49	Strong	0.57	1.48	task-social/cue/runtype-vicarious/sch/h051.png	n/a	n/a	n/a	n/a	n/a	n/a	n/a	n/a
22.57	5.0	vicarious	stimulus	1	high_cue	high_stim	n/a	n/a	n/a	n/a	n/a	n/a	task-social/stim/runtype-vicarious/nm106t1afaff_H.mp4	n/a	n/a	n/a	n/a	n/a	n/a	n/a	n/a
32.59	2.23	vicarious	outcomerating	1	high_cue	high_stim	20.77	Moderate	20.77	Moderate	0.4	1.83	task-social/outcomerating/task-vicarious_scale.png	n/a	n/a	n/a	n/a	n/a	n/a	n/a	n/a
45.48	0.99	vicarious	cue	2	low_cue	n/a	n/a	n/a	n/a	n/a	n/a	n/a	task-social/cue/runtype-vicarious/scl/l045.png	n/a	n/a	n/a	n/a	n/a	n/a	n/a	n/a
47.39	1.78	vicarious	expectrating	2	low_cue	n/a	0.93	No sensation	0.93	No sensation	0.52	1.27	task-social/cue/runtype-vicarious/scl/l045.png	n/a	n/a	n/a	n/a	n/a	n/a	n/a	n/a
60.67	5.0	vicarious	stimulus	2	low_cue	low_stim	n/a	n/a	n/a	n/a	n/a	n/a	task-social/stim/runtype-vicarious/nm106t1aaunaff_L.mp4	n/a	n/a	n/a	n/a	n/a	n/a	n/a	n/a
75.49	2.92	vicarious	outcomerating	2	low_cue	low_stim	1.86	Barely detectable	1.86	Barely detectable	0.53	2.39	task-social/outcomerating/task-vicarious_scale.png	n/a	n/a	n/a	n/a	n/a	n/a	n/a	n/a
87.18	1.0	vicarious	cue	3	high_cue	n/a	n/a	n/a	n/a	n/a	n/a	n/a	task-social/cue/runtype-vicarious/sch/h053.png	n/a	n/a	n/a	n/a	n/a	n/a	n/a	n/a
89.49	2.27	vicarious	expectrating	3	high_cue	n/a	18.0	Moderate	18.0	Moderate	0.32	1.95	task-social/cue/runtype-vicarious/sch/h053.png	n/a	n/a	n/a	n/a	n/a	n/a	n/a	n/a
104.47	5.0	vicarious	stimulus	3	high_cue	low_stim	n/a	n/a	n/a	n/a	n/a	n/a	task-social/stim/runtype-vicarious/bm049t1afaff_L.mp4	n/a	n/a	n/a	n/a	n/a	n/a	n/a	n/a
118.39	1.47	vicarious	outcomerating	3	high_cue	low_stim	4.63	Weak	4.63	Weak	0.18	1.29	task-social/outcomerating/task-vicarious_scale.png	n/a	n/a	n/a	n/a	n/a	n/a	n/a	n/a
129.09	0.98	vicarious	cue	4	high_cue	n/a	n/a	n/a	n/a	n/a	n/a	n/a	task-social/cue/runtype-vicarious/sch/h001.png	n/a	n/a	n/a	n/a	n/a	n/a	n/a	n/a
130.99	1.35	vicarious	expectrating	4	high_cue	n/a	32.42	Strong	32.42	Strong	0.22	1.13	task-social/cue/runtype-vicarious/sch/h001.png	n/a	n/a	n/a	n/a	n/a	n/a	n/a	n/a
138.07	5.0	vicarious	stimulus	4	high_cue	med_stim	n/a	n/a	n/a	n/a	n/a	n/a	task-social/stim/runtype-vicarious/mg101t2aeunaff_M.mp4	n/a	n/a	n/a	n/a	n/a	n/a	n/a	n/a
148.6	3.49	vicarious	outcomerating	4	high_cue	med_stim	10.53	Moderate	10.53	Moderate	0.52	2.97	task-social/outcomerating/task-vicarious_scale.png	n/a	n/a	n/a	n/a	n/a	n/a	n/a	n/a
155.38	0.99	vicarious	cue	5	low_cue	n/a	n/a	n/a	n/a	n/a	n/a	n/a	task-social/cue/runtype-vicarious/scl/l040.png	n/a	n/a	n/a	n/a	n/a	n/a	n/a	n/a
158.59	1.82	vicarious	expectrating	5	low_cue	n/a	8.69	Weak	8.69	Weak	0.07	1.75	task-social/cue/runtype-vicarious/scl/l040.png	n/a	n/a	n/a	n/a	n/a	n/a	n/a	n/a
170.48	5.0	vicarious	stimulus	5	low_cue	low_stim	n/a	n/a	n/a	n/a	n/a	n/a	task-social/stim/runtype-vicarious/th108t1aaunaff_L.mp4	n/a	n/a	n/a	n/a	n/a	n/a	n/a	n/a
184.3	1.62	vicarious	outcomerating	5	low_cue	low_stim	6.81	Weak	6.81	Weak	0.53	1.08	task-social/outcomerating/task-vicarious_scale.png	n/a	n/a	n/a	n/a	n/a	n/a	n/a	n/a
189.58	0.99	vicarious	cue	6	low_cue	n/a	n/a	n/a	n/a	n/a	n/a	n/a	task-social/cue/runtype-vicarious/scl/l028.png	n/a	n/a	n/a	n/a	n/a	n/a	n/a	n/a
192.28	1.38	vicarious	expectrating	6	low_cue	n/a	7.44	Weak	7.44	Weak	0.35	1.03	task-social/cue/runtype-vicarious/scl/l028.png	n/a	n/a	n/a	n/a	n/a	n/a	n/a	n/a
199.67	5.0	vicarious	stimulus	6	low_cue	high_stim	n/a	n/a	n/a	n/a	n/a	n/a	task-social/stim/runtype-vicarious/bm049t2aeunaff_H.mp4	n/a	n/a	n/a	n/a	n/a	n/a	n/a	n/a
208.19	1.75	vicarious	outcomerating	6	low_cue	high_stim	5.32	Weak	5.32	Weak	0.28	1.47	task-social/outcomerating/task-vicarious_scale.png	n/a	n/a	n/a	n/a	n/a	n/a	n/a	n/a
214.09	0.98	vicarious	cue	7	low_cue	n/a	n/a	n/a	n/a	n/a	n/a	n/a	task-social/cue/runtype-vicarious/scl/l037.png	n/a	n/a	n/a	n/a	n/a	n/a	n/a	n/a
216.39	1.77	vicarious	expectrating	7	low_cue	n/a	7.41	Weak	7.41	Weak	0.45	1.32	task-social/cue/runtype-vicarious/scl/l037.png	n/a	n/a	n/a	n/a	n/a	n/a	n/a	n/a
224.07	5.0	vicarious	stimulus	7	low_cue	med_stim	n/a	n/a	n/a	n/a	n/a	n/a	task-social/stim/runtype-vicarious/bm049t2aeaff_M.mp4	n/a	n/a	n/a	n/a	n/a	n/a	n/a	n/a
232.7	3.57	vicarious	outcomerating	7	low_cue	med_stim	12.14	Moderate	12.14	Moderate	0.53	3.03	task-social/outcomerating/task-vicarious_scale.png	n/a	n/a	n/a	n/a	n/a	n/a	n/a	n/a
238.98	0.99	vicarious	cue	8	low_cue	n/a	n/a	n/a	n/a	n/a	n/a	n/a	task-social/cue/runtype-vicarious/scl/l012.png	n/a	n/a	n/a	n/a	n/a	n/a	n/a	n/a
241.38	2.59	vicarious	expectrating	8	low_cue	n/a	3.21	Weak	3.21	Weak	1.27	1.32	task-social/cue/runtype-vicarious/scl/l012.png	n/a	n/a	n/a	n/a	n/a	n/a	n/a	n/a
248.47	5.0	vicarious	stimulus	8	low_cue	med_stim	n/a	n/a	n/a	n/a	n/a	n/a	task-social/stim/runtype-vicarious/tv095t2afaff_M.mp4	n/a	n/a	n/a	n/a	n/a	n/a	n/a	n/a
261.69	1.32	vicarious	outcomerating	8	low_cue	med_stim	25.73	Moderate	25.73	Moderate	0.53	0.78	task-social/outcomerating/task-vicarious_scale.png	n/a	n/a	n/a	n/a	n/a	n/a	n/a	n/a
267.98	0.99	vicarious	cue	9	low_cue	n/a	n/a	n/a	n/a	n/a	n/a	n/a	task-social/cue/runtype-vicarious/scl/l051.png	n/a	n/a	n/a	n/a	n/a	n/a	n/a	n/a
271.19	2.75	vicarious	expectrating	9	low_cue	n/a	6.67	Weak	6.67	Weak	0.65	2.1	task-social/cue/runtype-vicarious/scl/l051.png	n/a	n/a	n/a	n/a	n/a	n/a	n/a	n/a
281.67	5.0	vicarious	stimulus	9	low_cue	high_stim	n/a	n/a	n/a	n/a	n/a	n/a	task-social/stim/runtype-vicarious/tv095t1afaff_H.mp4	n/a	n/a	n/a	n/a	n/a	n/a	n/a	n/a
294.89	1.52	vicarious	outcomerating	9	low_cue	high_stim	8.03	Weak	8.03	Weak	0.58	0.94	task-social/outcomerating/task-vicarious_scale.png	n/a	n/a	n/a	n/a	n/a	n/a	n/a	n/a
304.99	0.98	vicarious	cue	10	high_cue	n/a	n/a	n/a	n/a	n/a	n/a	n/a	task-social/cue/runtype-vicarious/sch/h026.png	n/a	n/a	n/a	n/a	n/a	n/a	n/a	n/a
308.09	1.2	vicarious	expectrating	10	high_cue	n/a	50.22	Strong	50.22	Strong	0.32	0.88	task-social/cue/runtype-vicarious/sch/h026.png	n/a	n/a	n/a	n/a	n/a	n/a	n/a	n/a
317.07	5.0	vicarious	stimulus	10	high_cue	low_stim	n/a	n/a	n/a	n/a	n/a	n/a	task-social/stim/runtype-vicarious/tv095t2aeunaff_L.mp4	n/a	n/a	n/a	n/a	n/a	n/a	n/a	n/a
328.6	1.17	vicarious	outcomerating	10	high_cue	low_stim	19.59	Moderate	19.59	Moderate	0.52	0.66	task-social/outcomerating/task-vicarious_scale.png	n/a	n/a	n/a	n/a	n/a	n/a	n/a	n/a
339.19	0.98	vicarious	cue	11	high_cue	n/a	n/a	n/a	n/a	n/a	n/a	n/a	task-social/cue/runtype-vicarious/sch/h015.png	n/a	n/a	n/a	n/a	n/a	n/a	n/a	n/a
341.89	1.5	vicarious	expectrating	11	high_cue	n/a	41.51	Strong	41.51	Strong	0.9	0.6	task-social/cue/runtype-vicarious/sch/h015.png	n/a	n/a	n/a	n/a	n/a	n/a	n/a	n/a
352.37	5.0	vicarious	stimulus	11	high_cue	med_stim	n/a	n/a	n/a	n/a	n/a	n/a	task-social/stim/runtype-vicarious/hs107t2aaaff_M.mp4	n/a	n/a	n/a	n/a	n/a	n/a	n/a	n/a
364.9	1.95	vicarious	outcomerating	11	high_cue	med_stim	39.63	Strong	39.63	Strong	0.45	1.5	task-social/outcomerating/task-vicarious_scale.png	n/a	n/a	n/a	n/a	n/a	n/a	n/a	n/a
370.08	0.99	vicarious	cue	12	high_cue	n/a	n/a	n/a	n/a	n/a	n/a	n/a	task-social/cue/runtype-vicarious/sch/h007.png	n/a	n/a	n/a	n/a	n/a	n/a	n/a	n/a
372.78	2.49	vicarious	expectrating	12	high_cue	n/a	19.45	Moderate	19.45	Moderate	1.05	1.44	task-social/cue/runtype-vicarious/sch/h007.png	n/a	n/a	n/a	n/a	n/a	n/a	n/a	n/a
387.47	5.0	vicarious	stimulus	12	high_cue	high_stim	n/a	n/a	n/a	n/a	n/a	n/a	task-social/stim/runtype-vicarious/gf097t2aaunaff_H.mp4	n/a	n/a	n/a	n/a	n/a	n/a	n/a	n/a
394.99	2.5	vicarious	outcomerating	12	high_cue	high_stim	13.52	Moderate	13.52	Moderate	0.43	2.07	task-social/outcomerating/task-vicarious_scale.png	n/a	n/a	n/a	n/a	n/a	n/a	n/a	n/a
