onset	duration	run_type	trial_type	trial_index	cue	stimulusintensity	rating_value	rating_glmslabel	rating_value_fillna	rating_glmslabel_fillna	rating_mouseonset	rating_mousedur	stim_file_TODO	pain_onset_ttl1	pain_onset_ttl2	pain_onset_ttl3	pain_onset_ttl4	pain_stimulus_delivery_success	cognitive_correct_response	cognitive_participant_response	cognitive_response_accuracy
4.77	0.99	vicarious	cue	1	high_cue	n/a	n/a	n/a	n/a	n/a	n/a	n/a	task-social/cue/runtype-vicarious/sch/h021.png	n/a	n/a	n/a	n/a	n/a	n/a	n/a	n/a
7.21	3.07	vicarious	expectrating	1	high_cue	n/a	64.69	Very Strong	64.69	Very Strong	0.35	2.72	task-social/cue/runtype-vicarious/sch/h021.png	n/a	n/a	n/a	n/a	n/a	n/a	n/a	n/a
17.77	5.0	vicarious	stimulus	1	high_cue	low_stim	n/a	n/a	n/a	n/a	n/a	n/a	task-social/stim/runtype-vicarious/jh043t2aaunaff_L.mp4	n/a	n/a	n/a	n/a	n/a	n/a	n/a	n/a
27.2	1.98	vicarious	outcomerating	1	high_cue	low_stim	29.86	Strong	29.86	Strong	0.35	2.72	task-social/outcomerating/task-vicarious_scale.png	n/a	n/a	n/a	n/a	n/a	n/a	n/a	n/a
33.08	0.98	vicarious	cue	2	low_cue	n/a	n/a	n/a	n/a	n/a	n/a	n/a	task-social/cue/runtype-vicarious/scl/l008.png	n/a	n/a	n/a	n/a	n/a	n/a	n/a	n/a
34.88	2.02	vicarious	expectrating	2	low_cue	n/a	4.38	Weak	4.38	Weak	0.05	1.97	task-social/cue/runtype-vicarious/scl/l008.png	n/a	n/a	n/a	n/a	n/a	n/a	n/a	n/a
46.17	5.0	vicarious	stimulus	2	low_cue	low_stim	n/a	n/a	n/a	n/a	n/a	n/a	task-social/stim/runtype-vicarious/nm106t1aaunaff_L.mp4	n/a	n/a	n/a	n/a	n/a	n/a	n/a	n/a
56.09	1.79	vicarious	outcomerating	2	low_cue	low_stim	14.37	Moderate	14.37	Moderate	0.05	1.97	task-social/outcomerating/task-vicarious_scale.png	n/a	n/a	n/a	n/a	n/a	n/a	n/a	n/a
61.08	0.99	vicarious	cue	3	low_cue	n/a	n/a	n/a	n/a	n/a	n/a	n/a	task-social/cue/runtype-vicarious/scl/l042.png	n/a	n/a	n/a	n/a	n/a	n/a	n/a	n/a
63.2	2.37	vicarious	expectrating	3	low_cue	n/a	6.21	Weak	6.21	Weak	0.63	1.74	task-social/cue/runtype-vicarious/scl/l042.png	n/a	n/a	n/a	n/a	n/a	n/a	n/a	n/a
71.77	5.0	vicarious	stimulus	3	low_cue	med_stim	n/a	n/a	n/a	n/a	n/a	n/a	task-social/stim/runtype-vicarious/nm106t2aaunaff_M.mp4	n/a	n/a	n/a	n/a	n/a	n/a	n/a	n/a
81.39	2.29	vicarious	outcomerating	3	low_cue	med_stim	21.37	Moderate	21.37	Moderate	0.63	1.74	task-social/outcomerating/task-vicarious_scale.png	n/a	n/a	n/a	n/a	n/a	n/a	n/a	n/a
86.47	1.0	vicarious	cue	4	low_cue	n/a	n/a	n/a	n/a	n/a	n/a	n/a	task-social/cue/runtype-vicarious/scl/l043.png	n/a	n/a	n/a	n/a	n/a	n/a	n/a	n/a
89.59	2.45	vicarious	expectrating	4	low_cue	n/a	16.77	Moderate	16.77	Moderate	0.68	1.77	task-social/cue/runtype-vicarious/scl/l043.png	n/a	n/a	n/a	n/a	n/a	n/a	n/a	n/a
100.77	5.0	vicarious	stimulus	4	low_cue	high_stim	n/a	n/a	n/a	n/a	n/a	n/a	task-social/stim/runtype-vicarious/nm106t1afaff_H.mp4	n/a	n/a	n/a	n/a	n/a	n/a	n/a	n/a
110.1	2.47	vicarious	outcomerating	4	low_cue	high_stim	57.46	Strong	57.46	Strong	0.68	1.77	task-social/outcomerating/task-vicarious_scale.png	n/a	n/a	n/a	n/a	n/a	n/a	n/a	n/a
114.78	0.99	vicarious	cue	5	high_cue	n/a	n/a	n/a	n/a	n/a	n/a	n/a	task-social/cue/runtype-vicarious/sch/h004.png	n/a	n/a	n/a	n/a	n/a	n/a	n/a	n/a
117.18	1.58	vicarious	expectrating	5	high_cue	n/a	69.74	Very Strong	69.74	Very Strong	0.5	1.08	task-social/cue/runtype-vicarious/sch/h004.png	n/a	n/a	n/a	n/a	n/a	n/a	n/a	n/a
124.57	5.0	vicarious	stimulus	5	high_cue	med_stim	n/a	n/a	n/a	n/a	n/a	n/a	task-social/stim/runtype-vicarious/hs107t2aaaff_M.mp4	n/a	n/a	n/a	n/a	n/a	n/a	n/a	n/a
133.89	3.28	vicarious	outcomerating	5	high_cue	med_stim	123.35	Strongest sensation of any kind	123.35	Strongest sensation of any kind	0.5	1.08	task-social/outcomerating/task-vicarious_scale.png	n/a	n/a	n/a	n/a	n/a	n/a	n/a	n/a
138.47	0.99	vicarious	cue	6	high_cue	n/a	n/a	n/a	n/a	n/a	n/a	n/a	task-social/cue/runtype-vicarious/sch/h017.png	n/a	n/a	n/a	n/a	n/a	n/a	n/a	n/a
140.57	2.24	vicarious	expectrating	6	high_cue	n/a	108.73	Strongest sensation of any kind	108.73	Strongest sensation of any kind	0.73	1.51	task-social/cue/runtype-vicarious/sch/h017.png	n/a	n/a	n/a	n/a	n/a	n/a	n/a	n/a
147.87	5.0	vicarious	stimulus	6	high_cue	high_stim	n/a	n/a	n/a	n/a	n/a	n/a	task-social/stim/runtype-vicarious/ch092t2aiaff_H.mp4	n/a	n/a	n/a	n/a	n/a	n/a	n/a	n/a
157.58	1.65	vicarious	outcomerating	6	high_cue	high_stim	58.92	Strong	58.92	Strong	0.73	1.51	task-social/outcomerating/task-vicarious_scale.png	n/a	n/a	n/a	n/a	n/a	n/a	n/a	n/a
163.48	0.98	vicarious	cue	7	high_cue	n/a	n/a	n/a	n/a	n/a	n/a	n/a	task-social/cue/runtype-vicarious/sch/h046.png	n/a	n/a	n/a	n/a	n/a	n/a	n/a	n/a
165.58	1.63	vicarious	expectrating	7	high_cue	n/a	72.3	Very Strong	72.3	Very Strong	0.43	1.2	task-social/cue/runtype-vicarious/sch/h046.png	n/a	n/a	n/a	n/a	n/a	n/a	n/a	n/a
178.37	5.0	vicarious	stimulus	7	high_cue	low_stim	n/a	n/a	n/a	n/a	n/a	n/a	task-social/stim/runtype-vicarious/kz120t2aaunaff_L.mp4	n/a	n/a	n/a	n/a	n/a	n/a	n/a	n/a
197.6	3.04	vicarious	outcomerating	7	high_cue	low_stim	26.67	Moderate	26.67	Moderate	0.43	1.2	task-social/outcomerating/task-vicarious_scale.png	n/a	n/a	n/a	n/a	n/a	n/a	n/a	n/a
209.38	0.98	vicarious	cue	8	high_cue	n/a	n/a	n/a	n/a	n/a	n/a	n/a	task-social/cue/runtype-vicarious/sch/h003.png	n/a	n/a	n/a	n/a	n/a	n/a	n/a	n/a
211.48	2.38	vicarious	expectrating	8	high_cue	n/a	38.98	Strong	38.98	Strong	0.2	2.18	task-social/cue/runtype-vicarious/sch/h003.png	n/a	n/a	n/a	n/a	n/a	n/a	n/a	n/a
218.37	5.0	vicarious	stimulus	8	high_cue	high_stim	n/a	n/a	n/a	n/a	n/a	n/a	task-social/stim/runtype-vicarious/bg096t1aeaff_H.mp4	n/a	n/a	n/a	n/a	n/a	n/a	n/a	n/a
229.69	1.49	vicarious	outcomerating	8	high_cue	high_stim	77.7	Very Strong	77.7	Very Strong	0.2	2.18	task-social/outcomerating/task-vicarious_scale.png	n/a	n/a	n/a	n/a	n/a	n/a	n/a	n/a
234.58	0.99	vicarious	cue	9	low_cue	n/a	n/a	n/a	n/a	n/a	n/a	n/a	task-social/cue/runtype-vicarious/scl/l053.png	n/a	n/a	n/a	n/a	n/a	n/a	n/a	n/a
237.68	2.07	vicarious	expectrating	9	low_cue	n/a	13.7	Moderate	13.7	Moderate	0.38	1.69	task-social/cue/runtype-vicarious/scl/l053.png	n/a	n/a	n/a	n/a	n/a	n/a	n/a	n/a
252.47	5.0	vicarious	stimulus	9	low_cue	low_stim	n/a	n/a	n/a	n/a	n/a	n/a	task-social/stim/runtype-vicarious/ch092t2aeaff_L.mp4	n/a	n/a	n/a	n/a	n/a	n/a	n/a	n/a
265.09	3.15	vicarious	outcomerating	9	low_cue	low_stim	18.58	Moderate	18.58	Moderate	0.38	1.69	task-social/outcomerating/task-vicarious_scale.png	n/a	n/a	n/a	n/a	n/a	n/a	n/a	n/a
270.97	0.99	vicarious	cue	10	low_cue	n/a	n/a	n/a	n/a	n/a	n/a	n/a	task-social/cue/runtype-vicarious/scl/l022.png	n/a	n/a	n/a	n/a	n/a	n/a	n/a	n/a
274.07	1.82	vicarious	expectrating	10	low_cue	n/a	27.8	Moderate	27.8	Moderate	0.57	1.26	task-social/cue/runtype-vicarious/scl/l022.png	n/a	n/a	n/a	n/a	n/a	n/a	n/a	n/a
285.37	5.0	vicarious	stimulus	10	low_cue	med_stim	n/a	n/a	n/a	n/a	n/a	n/a	task-social/stim/runtype-vicarious/jh043t2aeunaff_M.mp4	n/a	n/a	n/a	n/a	n/a	n/a	n/a	n/a
296.58	3.83	vicarious	outcomerating	10	low_cue	med_stim	32.91	Strong	32.91	Strong	0.57	1.26	task-social/outcomerating/task-vicarious_scale.png	n/a	n/a	n/a	n/a	n/a	n/a	n/a	n/a
317.57	0.99	vicarious	cue	11	low_cue	n/a	n/a	n/a	n/a	n/a	n/a	n/a	task-social/cue/runtype-vicarious/scl/l029.png	n/a	n/a	n/a	n/a	n/a	n/a	n/a	n/a
319.98	3.39	vicarious	expectrating	11	low_cue	n/a	16.98	Moderate	16.98	Moderate	0.07	3.32	task-social/cue/runtype-vicarious/scl/l029.png	n/a	n/a	n/a	n/a	n/a	n/a	n/a	n/a
327.37	5.0	vicarious	stimulus	11	low_cue	high_stim	n/a	n/a	n/a	n/a	n/a	n/a	task-social/stim/runtype-vicarious/jh043t2aeaff_H.mp4	n/a	n/a	n/a	n/a	n/a	n/a	n/a	n/a
337.08	1.55	vicarious	outcomerating	11	low_cue	high_stim	36.36	Strong	36.36	Strong	0.07	3.32	task-social/outcomerating/task-vicarious_scale.png	n/a	n/a	n/a	n/a	n/a	n/a	n/a	n/a
358.07	0.99	vicarious	cue	12	high_cue	n/a	n/a	n/a	n/a	n/a	n/a	n/a	task-social/cue/runtype-vicarious/sch/h042.png	n/a	n/a	n/a	n/a	n/a	n/a	n/a	n/a
361.17	3.78	vicarious	expectrating	12	high_cue	n/a	65.5	Very Strong	65.5	Very Strong	0.1	3.68	task-social/cue/runtype-vicarious/sch/h042.png	n/a	n/a	n/a	n/a	n/a	n/a	n/a	n/a
377.47	5.0	vicarious	stimulus	12	high_cue	med_stim	n/a	n/a	n/a	n/a	n/a	n/a	task-social/stim/runtype-vicarious/ch092t2aaaff_M.mp4	n/a	n/a	n/a	n/a	n/a	n/a	n/a	n/a
394.09	2.0	vicarious	outcomerating	12	high_cue	med_stim	32.22	Strong	32.22	Strong	0.1	3.68	task-social/outcomerating/task-vicarious_scale.png	n/a	n/a	n/a	n/a	n/a	n/a	n/a	n/a
