onset	duration	run_type	trial_type	trial_index	cue	stimulusintensity	rating_value	rating_glmslabel	rating_value_fillna	rating_glmslabel_fillna	rating_mouseonset	rating_mousedur	stim_file	pain_onset_ttl1	pain_onset_ttl2	pain_onset_ttl3	pain_onset_ttl4	pain_stimulus_delivery_success	cognitive_correct_response	cognitive_participant_response	cognitive_response_accuracy
5.01	0.98	vicarious	cue	1	high_cue	n/a	n/a	n/a	n/a	n/a	n/a	n/a	task-social/cue/runtype-vicarious/sch/h048.png	n/a	n/a	n/a	n/a	n/a	n/a	n/a	n/a
7.24	3.59	vicarious	expectrating	1	high_cue	n/a	77.02	Very Strong	77.02	Very Strong	0.03	3.55	task-social/cue/runtype-vicarious/sch/h048.png	n/a	n/a	n/a	n/a	n/a	n/a	n/a	n/a
19.19	5.0	vicarious	stimulus	1	high_cue	low_stim	n/a	n/a	n/a	n/a	n/a	n/a	task-social/stim/runtype-vicarious/ak064t1afunaff_L.mp4	n/a	n/a	n/a	n/a	n/a	n/a	n/a	n/a
27.42	3.65	vicarious	outcomerating	1	high_cue	low_stim	38.3	Strong	38.3	Strong	0.03	3.55	task-social/outcomerating/task-vicarious_scale.png	n/a	n/a	n/a	n/a	n/a	n/a	n/a	n/a
39.6	0.98	vicarious	cue	2	high_cue	n/a	n/a	n/a	n/a	n/a	n/a	n/a	task-social/cue/runtype-vicarious/sch/h028.png	n/a	n/a	n/a	n/a	n/a	n/a	n/a	n/a
42.81	2.31	vicarious	expectrating	2	high_cue	n/a	66.04	Very Strong	66.04	Very Strong	0.17	2.14	task-social/cue/runtype-vicarious/sch/h028.png	n/a	n/a	n/a	n/a	n/a	n/a	n/a	n/a
50.49	5.0	vicarious	stimulus	2	high_cue	low_stim	n/a	n/a	n/a	n/a	n/a	n/a	task-social/stim/runtype-vicarious/vw121t1aeaff_L.mp4	n/a	n/a	n/a	n/a	n/a	n/a	n/a	n/a
61.81	3.82	vicarious	outcomerating	2	high_cue	low_stim	41.42	Strong	41.42	Strong	0.17	2.14	task-social/outcomerating/task-vicarious_scale.png	n/a	n/a	n/a	n/a	n/a	n/a	n/a	n/a
72.5	0.99	vicarious	cue	3	high_cue	n/a	n/a	n/a	n/a	n/a	n/a	n/a	task-social/cue/runtype-vicarious/sch/h016.png	n/a	n/a	n/a	n/a	n/a	n/a	n/a	n/a
74.52	2.52	vicarious	expectrating	3	high_cue	n/a	83.63	Very Strong	83.63	Very Strong	0.48	2.03	task-social/cue/runtype-vicarious/sch/h016.png	n/a	n/a	n/a	n/a	n/a	n/a	n/a	n/a
82.19	5.0	vicarious	stimulus	3	high_cue	med_stim	n/a	n/a	n/a	n/a	n/a	n/a	task-social/stim/runtype-vicarious/jh123t2aaaff_M.mp4	n/a	n/a	n/a	n/a	n/a	n/a	n/a	n/a
93.11	1.77	vicarious	outcomerating	3	high_cue	med_stim	65.8	Very Strong	65.8	Very Strong	0.48	2.03	task-social/outcomerating/task-vicarious_scale.png	n/a	n/a	n/a	n/a	n/a	n/a	n/a	n/a
105.3	0.99	vicarious	cue	4	low_cue	n/a	n/a	n/a	n/a	n/a	n/a	n/a	task-social/cue/runtype-vicarious/scl/l031.png	n/a	n/a	n/a	n/a	n/a	n/a	n/a	n/a
107.3	2.9	vicarious	expectrating	4	low_cue	n/a	22.87	Moderate	22.87	Moderate	0.62	2.28	task-social/cue/runtype-vicarious/scl/l031.png	n/a	n/a	n/a	n/a	n/a	n/a	n/a	n/a
114.99	5.0	vicarious	stimulus	4	low_cue	med_stim	n/a	n/a	n/a	n/a	n/a	n/a	task-social/stim/runtype-vicarious/dn124t1aeunaff_M.mp4	n/a	n/a	n/a	n/a	n/a	n/a	n/a	n/a
123.2	n/a	vicarious	outcomerating	4	low_cue	med_stim	n/a	n/a	73.9	Very Strong	0.62	2.28	task-social/outcomerating/task-vicarious_scale.png	n/a	n/a	n/a	n/a	n/a	n/a	n/a	n/a
129.4	0.98	vicarious	cue	5	high_cue	n/a	n/a	n/a	n/a	n/a	n/a	n/a	task-social/cue/runtype-vicarious/sch/h035.png	n/a	n/a	n/a	n/a	n/a	n/a	n/a	n/a
133.31	1.62	vicarious	expectrating	5	high_cue	n/a	27.08	Moderate	27.08	Moderate	0.4	1.22	task-social/cue/runtype-vicarious/sch/h035.png	n/a	n/a	n/a	n/a	n/a	n/a	n/a	n/a
150.89	5.0	vicarious	stimulus	5	high_cue	high_stim	n/a	n/a	n/a	n/a	n/a	n/a	task-social/stim/runtype-vicarious/ch092t2aiaff_H.mp4	n/a	n/a	n/a	n/a	n/a	n/a	n/a	n/a
163.12	2.07	vicarious	outcomerating	5	high_cue	high_stim	30.13	Strong	30.13	Strong	0.4	1.22	task-social/outcomerating/task-vicarious_scale.png	n/a	n/a	n/a	n/a	n/a	n/a	n/a	n/a
167.9	0.99	vicarious	cue	6	low_cue	n/a	n/a	n/a	n/a	n/a	n/a	n/a	task-social/cue/runtype-vicarious/scl/l001.png	n/a	n/a	n/a	n/a	n/a	n/a	n/a	n/a
171.1	1.44	vicarious	expectrating	6	low_cue	n/a	26.36	Moderate	26.36	Moderate	0.05	1.39	task-social/cue/runtype-vicarious/scl/l001.png	n/a	n/a	n/a	n/a	n/a	n/a	n/a	n/a
182.29	5.0	vicarious	stimulus	6	low_cue	high_stim	n/a	n/a	n/a	n/a	n/a	n/a	task-social/stim/runtype-vicarious/dn124t1aiaff_H.mp4	n/a	n/a	n/a	n/a	n/a	n/a	n/a	n/a
191.11	3.03	vicarious	outcomerating	6	low_cue	high_stim	51.02	Strong	51.02	Strong	0.05	1.39	task-social/outcomerating/task-vicarious_scale.png	n/a	n/a	n/a	n/a	n/a	n/a	n/a	n/a
200.5	0.99	vicarious	cue	7	high_cue	n/a	n/a	n/a	n/a	n/a	n/a	n/a	task-social/cue/runtype-vicarious/sch/h023.png	n/a	n/a	n/a	n/a	n/a	n/a	n/a	n/a
202.5	1.17	vicarious	expectrating	7	high_cue	n/a	60.74	Strong	60.74	Strong	0.17	1.0	task-social/cue/runtype-vicarious/sch/h023.png	n/a	n/a	n/a	n/a	n/a	n/a	n/a	n/a
214.89	5.0	vicarious	stimulus	7	high_cue	high_stim	n/a	n/a	n/a	n/a	n/a	n/a	task-social/stim/runtype-vicarious/kz120t2aaaff_H.mp4	n/a	n/a	n/a	n/a	n/a	n/a	n/a	n/a
226.71	1.75	vicarious	outcomerating	7	high_cue	high_stim	31.0	Strong	31.0	Strong	0.17	1.0	task-social/outcomerating/task-vicarious_scale.png	n/a	n/a	n/a	n/a	n/a	n/a	n/a	n/a
236.99	0.99	vicarious	cue	8	high_cue	n/a	n/a	n/a	n/a	n/a	n/a	n/a	task-social/cue/runtype-vicarious/sch/h019.png	n/a	n/a	n/a	n/a	n/a	n/a	n/a	n/a
240.2	2.02	vicarious	expectrating	8	high_cue	n/a	71.71	Very Strong	71.71	Very Strong	0.17	1.85	task-social/cue/runtype-vicarious/sch/h019.png	n/a	n/a	n/a	n/a	n/a	n/a	n/a	n/a
251.39	5.0	vicarious	stimulus	8	high_cue	med_stim	n/a	n/a	n/a	n/a	n/a	n/a	task-social/stim/runtype-vicarious/ch092t2aaaff_M.mp4	n/a	n/a	n/a	n/a	n/a	n/a	n/a	n/a
262.7	2.06	vicarious	outcomerating	8	high_cue	med_stim	29.23	Strong	29.23	Strong	0.17	1.85	task-social/outcomerating/task-vicarious_scale.png	n/a	n/a	n/a	n/a	n/a	n/a	n/a	n/a
268.51	0.98	vicarious	cue	9	low_cue	n/a	n/a	n/a	n/a	n/a	n/a	n/a	task-social/cue/runtype-vicarious/scl/l050.png	n/a	n/a	n/a	n/a	n/a	n/a	n/a	n/a
271.71	2.95	vicarious	expectrating	9	low_cue	n/a	36.69	Strong	36.69	Strong	0.75	2.2	task-social/cue/runtype-vicarious/scl/l050.png	n/a	n/a	n/a	n/a	n/a	n/a	n/a	n/a
280.69	5.0	vicarious	stimulus	9	low_cue	low_stim	n/a	n/a	n/a	n/a	n/a	n/a	task-social/stim/runtype-vicarious/ch092t2aeaff_L.mp4	n/a	n/a	n/a	n/a	n/a	n/a	n/a	n/a
288.91	1.18	vicarious	outcomerating	9	low_cue	low_stim	16.38	Moderate	16.38	Moderate	0.75	2.2	task-social/outcomerating/task-vicarious_scale.png	n/a	n/a	n/a	n/a	n/a	n/a	n/a	n/a
296.4	0.99	vicarious	cue	10	low_cue	n/a	n/a	n/a	n/a	n/a	n/a	n/a	task-social/cue/runtype-vicarious/scl/l033.png	n/a	n/a	n/a	n/a	n/a	n/a	n/a	n/a
298.3	n/a	vicarious	expectrating	10	low_cue	n/a	n/a	n/a	12.09	Moderate	0.43	3.92	task-social/cue/runtype-vicarious/scl/l033.png	n/a	n/a	n/a	n/a	n/a	n/a	n/a	n/a
308.69	5.0	vicarious	stimulus	10	low_cue	high_stim	n/a	n/a	n/a	n/a	n/a	n/a	task-social/stim/runtype-vicarious/ak064t1aaaff_H.mp4	n/a	n/a	n/a	n/a	n/a	n/a	n/a	n/a
320.01	2.1	vicarious	outcomerating	10	low_cue	high_stim	28.72	Moderate	28.72	Moderate	0.43	3.92	task-social/outcomerating/task-vicarious_scale.png	n/a	n/a	n/a	n/a	n/a	n/a	n/a	n/a
330.7	0.99	vicarious	cue	11	low_cue	n/a	n/a	n/a	n/a	n/a	n/a	n/a	task-social/cue/runtype-vicarious/scl/l021.png	n/a	n/a	n/a	n/a	n/a	n/a	n/a	n/a
332.4	1.78	vicarious	expectrating	11	low_cue	n/a	22.83	Moderate	22.83	Moderate	0.08	1.7	task-social/cue/runtype-vicarious/scl/l021.png	n/a	n/a	n/a	n/a	n/a	n/a	n/a	n/a
341.99	5.0	vicarious	stimulus	11	low_cue	low_stim	n/a	n/a	n/a	n/a	n/a	n/a	task-social/stim/runtype-vicarious/jh123t1aaunaff_L.mp4	n/a	n/a	n/a	n/a	n/a	n/a	n/a	n/a
365.81	n/a	vicarious	outcomerating	11	low_cue	low_stim	n/a	n/a	0.69	No sensation	0.08	1.7	task-social/outcomerating/task-vicarious_scale.png	n/a	n/a	n/a	n/a	n/a	n/a	n/a	n/a
371.99	0.99	vicarious	cue	12	low_cue	n/a	n/a	n/a	n/a	n/a	n/a	n/a	task-social/cue/runtype-vicarious/scl/l018.png	n/a	n/a	n/a	n/a	n/a	n/a	n/a	n/a
373.6	1.63	vicarious	expectrating	12	low_cue	n/a	16.39	Moderate	16.39	Moderate	0.32	1.32	task-social/cue/runtype-vicarious/scl/l018.png	n/a	n/a	n/a	n/a	n/a	n/a	n/a	n/a
383.19	5.0	vicarious	stimulus	12	low_cue	med_stim	n/a	n/a	n/a	n/a	n/a	n/a	task-social/stim/runtype-vicarious/kz120t2aeaff_M.mp4	n/a	n/a	n/a	n/a	n/a	n/a	n/a	n/a
395.2	1.87	vicarious	outcomerating	12	low_cue	med_stim	4.51	Weak	4.51	Weak	0.32	1.32	task-social/outcomerating/task-vicarious_scale.png	n/a	n/a	n/a	n/a	n/a	n/a	n/a	n/a
