onset	duration	trial_type	response_angle	response_label	block_condition	mentalizing_level	stim_file
2.799	3.144	cue	n/a	n/a	likeability	n/a	n/a
5.943	6.85	video	n/a	n/a	likeability	n/a	task-shortvideo/ses-03_run-01_order-04_content-unefille.mp4
12.887	3.435	rating	84.88	Very-strong	likeability	n/a	n/a
13.637	2.685	rating_mouse_trajectory	84.88	Very-strong	likeability	n/a	n/a
18.004	5.19	video	n/a	n/a	likeability	n/a	task-shortvideo/ses-03_run-01_order-09_content-knifegame.mp4
23.259	1.919	rating	19.96	Moderate	likeability	n/a	n/a
23.592	1.586	rating_mouse_trajectory	19.96	Moderate	likeability	n/a	n/a
28.34	5.791	video	n/a	n/a	likeability	n/a	task-shortvideo/ses-03_run-01_order-16_content-huggingpets.mp4
34.197	2.868	rating	104.36	Strongest-possible	likeability	n/a	n/a
35.214	1.852	rating_mouse_trajectory	104.36	Strongest-possible	likeability	n/a	n/a
39.216	3.137	cue	n/a	n/a	similarity	n/a	n/a
42.353	6.194	video	n/a	n/a	similarity	n/a	task-shortvideo/ses-03_run-01_order-08_content-dancewithdeath.mp4
48.604	4.443	rating	17.0	Moderate	similarity	n/a	n/a
49.421	3.627	rating_mouse_trajectory	17.0	Moderate	similarity	n/a	n/a
53.69	5.303	video	n/a	n/a	similarity	n/a	task-shortvideo/ses-03_run-01_order-07_content-youth.mp4
59.076	4.489	rating	36.97	Strong	similarity	n/a	n/a
60.276	3.289	rating_mouse_trajectory	36.97	Strong	similarity	n/a	n/a
64.152	5.797	video	n/a	n/a	similarity	n/a	task-shortvideo/ses-03_run-01_order-16_content-huggingpets.mp4
70.014	3.086	rating	50.26	Strong	similarity	n/a	n/a
70.798	2.302	rating_mouse_trajectory	50.26	Strong	similarity	n/a	n/a
75.033	3.114	cue	n/a	n/a	mentalizing	remember	n/a
78.147	5.224	video	n/a	n/a	mentalizing	remember	task-shortvideo/ses-03_run-01_order-10_content-captureflag.mp4
83.437	4.102	rating	19.96	Moderate	mentalizing	remember	n/a
85.337	2.202	rating_mouse_trajectory	19.96	Moderate	mentalizing	remember	n/a
88.541	5.561	video	n/a	n/a	mentalizing	remember	task-shortvideo/ses-03_run-01_order-11_content-menrunning.mp4
94.159	2.976	rating	34.09	Strong	mentalizing	remember	n/a
95.126	2.009	rating_mouse_trajectory	34.09	Strong	mentalizing	remember	n/a
99.237	5.499	video	n/a	n/a	mentalizing	remember	task-shortvideo/ses-03_run-01_order-15_content-giving.mp4
104.798	3.955	rating	18.43	Moderate	mentalizing	remember	n/a
106.381	2.372	rating_mouse_trajectory	18.43	Moderate	mentalizing	remember	n/a
109.817	3.153	cue	n/a	n/a	likeability	n/a	n/a
112.97	4.084	video	n/a	n/a	likeability	n/a	task-shortvideo/ses-03_run-01_order-05_content-parkour.mp4
117.137	3.085	rating	24.46	Moderate	likeability	n/a	n/a
117.987	2.235	rating_mouse_trajectory	24.46	Moderate	likeability	n/a	n/a
122.254	6.339	video	n/a	n/a	likeability	n/a	task-shortvideo/ses-03_run-01_order-17_content-freesolo.mp4
128.659	3.535	rating	15.78	Moderate	likeability	n/a	n/a
129.892	2.302	rating_mouse_trajectory	15.78	Moderate	likeability	n/a	n/a
133.734	5.505	video	n/a	n/a	likeability	n/a	task-shortvideo/ses-03_run-01_order-15_content-giving.mp4
139.297	3.392	rating	30.27	Strong	likeability	n/a	n/a
140.664	2.026	rating_mouse_trajectory	30.27	Strong	likeability	n/a	n/a
144.333	3.19	cue	n/a	n/a	mentalizing	danger	n/a
147.524	5.117	video	n/a	n/a	mentalizing	danger	task-shortvideo/ses-03_run-01_order-06_content-war.mp4
152.704	3.938	rating	85.6	Very-strong	mentalizing	danger	n/a
153.737	2.904	rating_mouse_trajectory	85.6	Very-strong	mentalizing	danger	n/a
157.797	5.295	video	n/a	n/a	mentalizing	danger	task-shortvideo/ses-03_run-01_order-07_content-youth.mp4
163.159	1.768	rating	16.04	Moderate	mentalizing	danger	n/a
163.659	1.268	rating_mouse_trajectory	16.04	Moderate	mentalizing	danger	n/a
168.272	6.342	video	n/a	n/a	mentalizing	danger	task-shortvideo/ses-03_run-01_order-17_content-freesolo.mp4
174.681	2.918	rating	35.43	Strong	mentalizing	danger	n/a
175.448	2.152	rating_mouse_trajectory	35.43	Strong	mentalizing	danger	n/a
179.7	3.136	cue	n/a	n/a	likeability	n/a	n/a
182.836	5.559	video	n/a	n/a	likeability	n/a	task-shortvideo/ses-03_run-01_order-11_content-menrunning.mp4
188.471	2.858	rating	30.71	Strong	likeability	n/a	n/a
189.704	1.624	rating_mouse_trajectory	30.71	Strong	likeability	n/a	n/a
193.588	5.021	video	n/a	n/a	likeability	n/a	task-shortvideo/ses-03_run-01_order-21_content-iceblock.mp4
198.676	3.787	rating	8.1	Weak	likeability	n/a	n/a
200.009	2.454	rating_mouse_trajectory	8.1	Weak	likeability	n/a	n/a
203.777	5.037	video	n/a	n/a	likeability	n/a	task-shortvideo/ses-03_run-01_order-01_content-visswar.mp4
208.881	2.618	rating	25.38	Moderate	likeability	n/a	n/a
209.997	1.501	rating_mouse_trajectory	25.38	Moderate	likeability	n/a	n/a
213.9	3.16	cue	n/a	n/a	similarity	n/a	n/a
217.06	5.178	video	n/a	n/a	similarity	n/a	task-shortvideo/ses-03_run-01_order-13_content-wanderers.mp4
222.304	3.885	rating	49.65	Strong	similarity	n/a	n/a
223.72	2.469	rating_mouse_trajectory	49.65	Strong	similarity	n/a	n/a
227.405	5.838	video	n/a	n/a	similarity	n/a	task-shortvideo/ses-03_run-01_order-03_content-bestfriendsweating.mp4
233.309	2.558	rating	6.7	Weak	similarity	n/a	n/a
234.359	1.508	rating_mouse_trajectory	6.7	Weak	similarity	n/a	n/a
238.423	6.345	video	n/a	n/a	similarity	n/a	task-shortvideo/ses-03_run-01_order-17_content-freesolo.mp4
244.831	2.52	rating	0.0	No-sensation	similarity	n/a	n/a
246.031	1.32	rating_mouse_trajectory	0.0	No-sensation	similarity	n/a	n/a
249.85	3.162	cue	n/a	n/a	mentalizing	tired	n/a
253.013	5.559	video	n/a	n/a	mentalizing	tired	task-shortvideo/ses-03_run-01_order-20_content-cupstacking.mp4
258.638	3.769	rating	2.6	Barely-detectable	mentalizing	tired	n/a
260.338	2.069	rating_mouse_trajectory	2.6	Barely-detectable	mentalizing	tired	n/a
263.726	6.194	video	n/a	n/a	mentalizing	tired	task-shortvideo/ses-03_run-01_order-08_content-dancewithdeath.mp4
269.976	3.794	rating	42.92	Strong	mentalizing	tired	n/a
271.41	2.361	rating_mouse_trajectory	42.92	Strong	mentalizing	tired	n/a
275.077	5.01	video	n/a	n/a	mentalizing	tired	task-shortvideo/ses-03_run-01_order-12_content-photography.mp4
280.165	4.807	rating	56.67	Strong	mentalizing	tired	n/a
281.581	3.39	rating_mouse_trajectory	56.67	Strong	mentalizing	tired	n/a
285.517	3.155	cue	n/a	n/a	similarity	n/a	n/a
288.672	5.183	video	n/a	n/a	similarity	n/a	task-shortvideo/ses-03_run-01_order-09_content-knifegame.mp4
293.921	3.685	rating	0.0	No-sensation	similarity	n/a	n/a
294.805	2.802	rating_mouse_trajectory	0.0	No-sensation	similarity	n/a	n/a
299.036	5.557	video	n/a	n/a	similarity	n/a	task-shortvideo/ses-03_run-01_order-11_content-menrunning.mp4
304.676	4.586	rating	23.77	Moderate	similarity	n/a	n/a
306.01	3.252	rating_mouse_trajectory	23.77	Moderate	similarity	n/a	n/a
309.859	5.39	video	n/a	n/a	similarity	n/a	task-shortvideo/ses-03_run-01_order-19_content-beatbox.mp4
315.315	4.65	rating	36.62	Strong	similarity	n/a	n/a
317.231	2.733	rating_mouse_trajectory	36.62	Strong	similarity	n/a	n/a
320.351	3.152	cue	n/a	n/a	mentalizing	heights	n/a
323.502	5.19	video	n/a	n/a	mentalizing	heights	task-shortvideo/ses-03_run-01_order-09_content-knifegame.mp4
328.755	4.983	rating	28.74	Moderate	mentalizing	heights	n/a
330.088	3.65	rating_mouse_trajectory	28.74	Moderate	mentalizing	heights	n/a
333.863	5.014	video	n/a	n/a	mentalizing	heights	task-shortvideo/ses-03_run-01_order-21_content-iceblock.mp4
338.959	3.485	rating	14.93	Moderate	mentalizing	heights	n/a
339.976	2.469	rating_mouse_trajectory	14.93	Moderate	mentalizing	heights	n/a
344.056	5.842	video	n/a	n/a	mentalizing	heights	task-shortvideo/ses-03_run-01_order-03_content-bestfriendsweating.mp4
349.965	4.019	rating	108.27	Strongest-possible	mentalizing	heights	n/a
351.048	2.936	rating_mouse_trajectory	108.27	Strongest-possible	mentalizing	heights	n/a
354.984	3.158	cue	n/a	n/a	similarity	n/a	n/a
358.142	5.571	video	n/a	n/a	similarity	n/a	task-shortvideo/ses-03_run-01_order-20_content-cupstacking.mp4
363.788	2.768	rating	11.55	Moderate	similarity	n/a	n/a
364.471	2.085	rating_mouse_trajectory	11.55	Moderate	similarity	n/a	n/a
368.883	4.081	video	n/a	n/a	similarity	n/a	task-shortvideo/ses-03_run-01_order-05_content-parkour.mp4
373.026	2.805	rating	1.41	Barely-detectable	similarity	n/a	n/a
374.659	1.172	rating_mouse_trajectory	1.41	Barely-detectable	similarity	n/a	n/a
378.143	5.322	video	n/a	n/a	similarity	n/a	task-shortvideo/ses-03_run-01_order-18_content-angrygrandpa.mp4
383.531	3.635	rating	5.11	Weak	similarity	n/a	n/a
384.831	2.335	rating_mouse_trajectory	5.11	Weak	similarity	n/a	n/a
388.55	3.134	cue	n/a	n/a	likeability	n/a	n/a
391.684	5.221	video	n/a	n/a	likeability	n/a	task-shortvideo/ses-03_run-01_order-10_content-captureflag.mp4
396.97	4.719	rating	12.26	Moderate	likeability	n/a	n/a
398.287	3.402	rating_mouse_trajectory	12.26	Moderate	likeability	n/a	n/a
402.294	5.299	video	n/a	n/a	likeability	n/a	task-shortvideo/ses-03_run-01_order-07_content-youth.mp4
407.659	3.326	rating	117.12	Strongest-possible	likeability	n/a	n/a
408.492	2.492	rating_mouse_trajectory	117.12	Strongest-possible	likeability	n/a	n/a
412.791	6.673	video	n/a	n/a	likeability	n/a	task-shortvideo/ses-03_run-01_order-02_content-HB.mp4
419.548	2.688	rating	0.0	No-sensation	likeability	n/a	n/a
420.665	1.571	rating_mouse_trajectory	0.0	No-sensation	likeability	n/a	n/a
424.584	3.155	cue	n/a	n/a	similarity	n/a	n/a
427.738	5.049	video	n/a	n/a	similarity	n/a	task-shortvideo/ses-03_run-01_order-01_content-visswar.mp4
432.838	2.535	rating	9.69	Weak	similarity	n/a	n/a
433.488	1.885	rating_mouse_trajectory	9.69	Weak	similarity	n/a	n/a
437.912	5.226	video	n/a	n/a	similarity	n/a	task-shortvideo/ses-03_run-01_order-10_content-captureflag.mp4
443.192	2.518	rating	41.99	Strong	similarity	n/a	n/a
444.492	1.218	rating_mouse_trajectory	41.99	Strong	similarity	n/a	n/a
448.299	4.999	video	n/a	n/a	similarity	n/a	task-shortvideo/ses-03_run-01_order-12_content-photography.mp4
453.364	3.035	rating	17.71	Moderate	similarity	n/a	n/a
454.397	2.002	rating_mouse_trajectory	17.71	Moderate	similarity	n/a	n/a
458.383	3.16	cue	n/a	n/a	mentalizing	angry	n/a
461.543	5.181	video	n/a	n/a	mentalizing	angry	task-shortvideo/ses-03_run-01_order-13_content-wanderers.mp4
466.787	3.17	rating	15.51	Moderate	mentalizing	angry	n/a
468.254	1.704	rating_mouse_trajectory	15.51	Moderate	mentalizing	angry	n/a
471.933	6.675	video	n/a	n/a	mentalizing	angry	task-shortvideo/ses-03_run-01_order-02_content-HB.mp4
478.676	2.452	rating	65.85	Very-strong	mentalizing	angry	n/a
479.709	1.418	rating_mouse_trajectory	65.85	Very-strong	mentalizing	angry	n/a
483.798	4.083	video	n/a	n/a	mentalizing	angry	task-shortvideo/ses-03_run-01_order-05_content-parkour.mp4
487.947	2.218	rating	19.24	Moderate	mentalizing	angry	n/a
488.764	1.401	rating_mouse_trajectory	19.24	Moderate	mentalizing	angry	n/a
492.966	3.124	cue	n/a	n/a	likeability	n/a	n/a
496.09	6.188	video	n/a	n/a	likeability	n/a	task-shortvideo/ses-03_run-01_order-08_content-dancewithdeath.mp4
502.337	3.341	rating	35.51	Strong	likeability	n/a	n/a
503.754	1.924	rating_mouse_trajectory	35.51	Strong	likeability	n/a	n/a
507.479	5.116	video	n/a	n/a	likeability	n/a	task-shortvideo/ses-03_run-01_order-06_content-war.mp4
512.659	3.37	rating	15.75	Moderate	likeability	n/a	n/a
513.876	2.154	rating_mouse_trajectory	15.75	Moderate	likeability	n/a	n/a
517.766	5.565	video	n/a	n/a	likeability	n/a	task-shortvideo/ses-03_run-01_order-20_content-cupstacking.mp4
523.397	3.785	rating	102.62	Strongest-possible	likeability	n/a	n/a
524.531	2.652	rating_mouse_trajectory	102.62	Strongest-possible	likeability	n/a	n/a
528.417	3.127	cue	n/a	n/a	similarity	n/a	n/a
531.544	5.504	video	n/a	n/a	similarity	n/a	task-shortvideo/ses-03_run-01_order-15_content-giving.mp4
537.104	2.711	rating	99.09	Strongest-possible	similarity	n/a	n/a
538.354	1.461	rating_mouse_trajectory	99.09	Strongest-possible	similarity	n/a	n/a
542.223	5.019	video	n/a	n/a	similarity	n/a	task-shortvideo/ses-03_run-01_order-21_content-iceblock.mp4
547.309	3.252	rating	16.1	Moderate	similarity	n/a	n/a
548.526	2.035	rating_mouse_trajectory	16.1	Moderate	similarity	n/a	n/a
552.414	6.12	video	n/a	n/a	similarity	n/a	task-shortvideo/ses-03_run-01_order-14_content-alwaysafamily.mp4
558.598	4.153	rating	20.99	Moderate	similarity	n/a	n/a
559.881	2.87	rating_mouse_trajectory	20.99	Moderate	similarity	n/a	n/a
563.617	3.125	cue	n/a	n/a	likeability	n/a	n/a
566.741	5.397	video	n/a	n/a	likeability	n/a	task-shortvideo/ses-03_run-01_order-19_content-beatbox.mp4
572.204	2.551	rating	135.17	Strongest-possible	likeability	n/a	n/a
572.754	2.001	rating_mouse_trajectory	135.17	Strongest-possible	likeability	n/a	n/a
577.309	5.0	video	n/a	n/a	likeability	n/a	task-shortvideo/ses-03_run-01_order-12_content-photography.mp4
582.376	3.202	rating	29.59	Strong	likeability	n/a	n/a
583.759	1.818	rating_mouse_trajectory	29.59	Strong	likeability	n/a	n/a
587.492	5.329	video	n/a	n/a	likeability	n/a	task-shortvideo/ses-03_run-01_order-18_content-angrygrandpa.mp4
592.881	3.257	rating	8.03	Weak	likeability	n/a	n/a
593.981	2.157	rating_mouse_trajectory	8.03	Weak	likeability	n/a	n/a
597.9	3.113	cue	n/a	n/a	mentalizing	calm	n/a
601.012	5.796	video	n/a	n/a	mentalizing	calm	task-shortvideo/ses-03_run-01_order-16_content-huggingpets.mp4
606.871	4.486	rating	146.05	Strongest-possible	mentalizing	calm	n/a
608.421	2.936	rating_mouse_trajectory	146.05	Strongest-possible	mentalizing	calm	n/a
611.988	5.052	video	n/a	n/a	mentalizing	calm	task-shortvideo/ses-03_run-01_order-01_content-visswar.mp4
617.109	4.136	rating	45.92	Strong	mentalizing	calm	n/a
618.109	3.136	rating_mouse_trajectory	45.92	Strong	mentalizing	calm	n/a
622.206	6.842	video	n/a	n/a	mentalizing	calm	task-shortvideo/ses-03_run-01_order-04_content-unefille.mp4
629.115	3.369	rating	68.82	Very-strong	mentalizing	calm	n/a
630.665	1.819	rating_mouse_trajectory	68.82	Very-strong	mentalizing	calm	n/a
634.134	3.16	cue	n/a	n/a	likeability	n/a	n/a
637.293	5.178	video	n/a	n/a	likeability	n/a	task-shortvideo/ses-03_run-01_order-13_content-wanderers.mp4
642.538	3.422	rating	130.81	Strongest-possible	likeability	n/a	n/a
643.538	2.422	rating_mouse_trajectory	130.81	Strongest-possible	likeability	n/a	n/a
647.64	5.837	video	n/a	n/a	likeability	n/a	task-shortvideo/ses-03_run-01_order-03_content-bestfriendsweating.mp4
653.543	4.069	rating	7.87	Weak	likeability	n/a	n/a
654.943	2.669	rating_mouse_trajectory	7.87	Weak	likeability	n/a	n/a
658.648	6.13	video	n/a	n/a	likeability	n/a	task-shortvideo/ses-03_run-01_order-14_content-alwaysafamily.mp4
664.832	2.618	rating	140.36	Strongest-possible	likeability	n/a	n/a
666.148	1.301	rating_mouse_trajectory	140.36	Strongest-possible	likeability	n/a	n/a
669.851	3.143	cue	n/a	n/a	mentalizing	enjoy	n/a
672.994	6.128	video	n/a	n/a	mentalizing	enjoy	task-shortvideo/ses-03_run-01_order-14_content-alwaysafamily.mp4
679.189	3.608	rating	0.0	No-sensation	mentalizing	enjoy	n/a
681.255	1.541	rating_mouse_trajectory	0.0	No-sensation	mentalizing	enjoy	n/a
684.263	5.397	video	n/a	n/a	mentalizing	enjoy	task-shortvideo/ses-03_run-01_order-19_content-beatbox.mp4
689.727	3.637	rating	114.02	Strongest-possible	mentalizing	enjoy	n/a
690.66	2.704	rating_mouse_trajectory	114.02	Strongest-possible	mentalizing	enjoy	n/a
694.844	5.322	video	n/a	n/a	mentalizing	enjoy	task-shortvideo/ses-03_run-01_order-18_content-angrygrandpa.mp4
700.232	3.469	rating	50.12	Strong	mentalizing	enjoy	n/a
701.315	2.385	rating_mouse_trajectory	50.12	Strong	mentalizing	enjoy	n/a
705.268	3.144	cue	n/a	n/a	similarity	n/a	n/a
708.411	6.855	video	n/a	n/a	similarity	n/a	task-shortvideo/ses-03_run-01_order-04_content-unefille.mp4
715.322	3.602	rating	118.15	Strongest-possible	similarity	n/a	n/a
716.339	2.585	rating_mouse_trajectory	118.15	Strongest-possible	similarity	n/a	n/a
720.471	5.113	video	n/a	n/a	similarity	n/a	task-shortvideo/ses-03_run-01_order-06_content-war.mp4
725.644	4.774	rating	10.53	Moderate	similarity	n/a	n/a
727.627	2.791	rating_mouse_trajectory	10.53	Moderate	similarity	n/a	n/a
731.082	6.671	video	n/a	n/a	similarity	n/a	task-shortvideo/ses-03_run-01_order-02_content-HB.mp4
737.816	3.369	rating	0.0	No-sensation	similarity	n/a	n/a
738.95	2.236	rating_mouse_trajectory	0.0	No-sensation	similarity	n/a	n/a
