onset	duration	run_type	trial_type	trial_index	cue	stimulusintensity	rating_value	rating_glmslabel	rating_value_fillna	rating_glmslabel_fillna	rating_mouseonset	rating_mousedur	stim_file	pain_onset_ttl1	pain_onset_ttl2	pain_onset_ttl3	pain_onset_ttl4	pain_stimulus_delivery_success	cognitive_correct_response	cognitive_participant_response	cognitive_response_accuracy
4.11	1.0	pain	cue	1	high_cue	n/a	n/a	n/a	n/a	n/a	n/a	n/a	task-social/cue/runtype-pain/sch/h010.png	n/a	n/a	n/a	n/a	n/a	n/a	n/a	n/a
7.26	3.19	pain	expectrating	1	high_cue	n/a	71.78	Very Strong	71.78	Very Strong	0.68	2.5	task-social/cue/runtype-pain/sch/h010.png	n/a	n/a	n/a	n/a	n/a	n/a	n/a	n/a
12.6	12.360000000000001	pain	stimulus	1	high_cue	med_stim	n/a	n/a	n/a	n/a	n/a	n/a	n/a	12.6	16.36	21.36	24.97	success	n/a	n/a	n/a
23.72	3.09	pain	outcomerating	1	high_cue	med_stim	72.29	Very Strong	72.29	Very Strong	0.68	2.5	task-social/outcomerating/task-pain_scale.png	n/a	n/a	n/a	n/a	success	n/a	n/a	n/a
33.5	1.02	pain	cue	2	low_cue	n/a	n/a	n/a	n/a	n/a	n/a	n/a	task-social/cue/runtype-pain/scl/l047.png	n/a	n/a	n/a	n/a	n/a	n/a	n/a	n/a
36.62	1.98	pain	expectrating	2	low_cue	n/a	21.12	Moderate	21.12	Moderate	0.48	1.5	task-social/cue/runtype-pain/scl/l047.png	n/a	n/a	n/a	n/a	n/a	n/a	n/a	n/a
47.56	11.899999999999999	pain	stimulus	2	low_cue	low_stim	n/a	n/a	n/a	n/a	n/a	n/a	n/a	47.56	51.06	56.06	59.46	success	n/a	n/a	n/a
62.41	2.54	pain	outcomerating	2	low_cue	low_stim	21.84	Moderate	21.84	Moderate	0.48	1.5	task-social/outcomerating/task-pain_scale.png	n/a	n/a	n/a	n/a	success	n/a	n/a	n/a
71.62	0.98	pain	cue	3	high_cue	n/a	n/a	n/a	n/a	n/a	n/a	n/a	task-social/cue/runtype-pain/sch/h036.png	n/a	n/a	n/a	n/a	n/a	n/a	n/a	n/a
73.63	2.65	pain	expectrating	3	high_cue	n/a	49.55	Strong	49.55	Strong	1.05	1.6	task-social/cue/runtype-pain/sch/h036.png	n/a	n/a	n/a	n/a	n/a	n/a	n/a	n/a
84.56	11.909999999999997	pain	stimulus	3	high_cue	low_stim	n/a	n/a	n/a	n/a	n/a	n/a	n/a	84.56	88.06	93.06	96.46	success	n/a	n/a	n/a
97.11	2.42	pain	outcomerating	3	high_cue	low_stim	32.6	Strong	32.6	Strong	1.05	1.6	task-social/outcomerating/task-pain_scale.png	n/a	n/a	n/a	n/a	success	n/a	n/a	n/a
105.61	1.0	pain	cue	4	high_cue	n/a	n/a	n/a	n/a	n/a	n/a	n/a	task-social/cue/runtype-pain/sch/h026.png	n/a	n/a	n/a	n/a	n/a	n/a	n/a	n/a
108.71	2.0	pain	expectrating	4	high_cue	n/a	49.37	Strong	49.37	Strong	0.4	1.6	task-social/cue/runtype-pain/sch/h026.png	n/a	n/a	n/a	n/a	n/a	n/a	n/a	n/a
117.95	12.820000000000007	pain	stimulus	4	high_cue	high_stim	n/a	n/a	n/a	n/a	n/a	n/a	n/a	117.95	121.96	126.96	130.77	success	n/a	n/a	n/a
127.52	1.72	pain	outcomerating	4	high_cue	high_stim	92.85	Very Strong	92.85	Very Strong	0.4	1.6	task-social/outcomerating/task-pain_scale.png	n/a	n/a	n/a	n/a	success	n/a	n/a	n/a
132.81	1.0	pain	cue	5	high_cue	n/a	n/a	n/a	n/a	n/a	n/a	n/a	task-social/cue/runtype-pain/sch/h038.png	n/a	n/a	n/a	n/a	n/a	n/a	n/a	n/a
135.92	3.14	pain	expectrating	5	high_cue	n/a	77.42	Very Strong	77.42	Very Strong	0.43	2.71	task-social/cue/runtype-pain/sch/h038.png	n/a	n/a	n/a	n/a	n/a	n/a	n/a	n/a
141.24	11.899999999999977	pain	stimulus	5	high_cue	low_stim	n/a	n/a	n/a	n/a	n/a	n/a	n/a	141.24	144.74	149.74	153.14	success	n/a	n/a	n/a
152.41	2.72	pain	outcomerating	5	high_cue	low_stim	51.34	Strong	51.34	Strong	0.43	2.71	task-social/outcomerating/task-pain_scale.png	n/a	n/a	n/a	n/a	success	n/a	n/a	n/a
163.3	1.0	pain	cue	6	high_cue	n/a	n/a	n/a	n/a	n/a	n/a	n/a	task-social/cue/runtype-pain/sch/h037.png	n/a	n/a	n/a	n/a	n/a	n/a	n/a	n/a
165.32	2.12	pain	expectrating	6	high_cue	n/a	41.92	Strong	41.92	Strong	0.58	1.53	task-social/cue/runtype-pain/sch/h037.png	n/a	n/a	n/a	n/a	n/a	n/a	n/a	n/a
174.54	12.360000000000014	pain	stimulus	6	high_cue	med_stim	n/a	n/a	n/a	n/a	n/a	n/a	n/a	174.54	178.3	183.3	186.91	success	n/a	n/a	n/a
184.51	1.95	pain	outcomerating	6	high_cue	med_stim	67.64	Very Strong	67.64	Very Strong	0.58	1.53	task-social/outcomerating/task-pain_scale.png	n/a	n/a	n/a	n/a	success	n/a	n/a	n/a
196.91	1.0	pain	cue	7	low_cue	n/a	n/a	n/a	n/a	n/a	n/a	n/a	task-social/cue/runtype-pain/scl/l030.png	n/a	n/a	n/a	n/a	n/a	n/a	n/a	n/a
199.31	2.2	pain	expectrating	7	low_cue	n/a	5.78	Weak	5.78	Weak	0.33	1.87	task-social/cue/runtype-pain/scl/l030.png	n/a	n/a	n/a	n/a	n/a	n/a	n/a	n/a
205.93	12.829999999999984	pain	stimulus	7	low_cue	high_stim	n/a	n/a	n/a	n/a	n/a	n/a	n/a	205.93	209.94	214.94	218.75	success	n/a	n/a	n/a
224.41	2.29	pain	outcomerating	7	low_cue	high_stim	68.85	Very Strong	68.85	Very Strong	0.33	1.87	task-social/outcomerating/task-pain_scale.png	n/a	n/a	n/a	n/a	success	n/a	n/a	n/a
231.41	1.0	pain	cue	8	low_cue	n/a	n/a	n/a	n/a	n/a	n/a	n/a	task-social/cue/runtype-pain/scl/l045.png	n/a	n/a	n/a	n/a	n/a	n/a	n/a	n/a
234.31	1.98	pain	expectrating	8	low_cue	n/a	43.86	Strong	43.86	Strong	0.35	1.63	task-social/cue/runtype-pain/scl/l045.png	n/a	n/a	n/a	n/a	n/a	n/a	n/a	n/a
240.95	12.360000000000014	pain	stimulus	8	low_cue	med_stim	n/a	n/a	n/a	n/a	n/a	n/a	n/a	240.95	244.71	249.71	253.32	success	n/a	n/a	n/a
257.02	2.35	pain	outcomerating	8	low_cue	med_stim	61.79	Strong	61.79	Strong	0.35	1.63	task-social/outcomerating/task-pain_scale.png	n/a	n/a	n/a	n/a	success	n/a	n/a	n/a
270.41	1.0	pain	cue	9	high_cue	n/a	n/a	n/a	n/a	n/a	n/a	n/a	task-social/cue/runtype-pain/sch/h004.png	n/a	n/a	n/a	n/a	n/a	n/a	n/a	n/a
272.21	1.7	pain	expectrating	9	high_cue	n/a	37.83	Strong	37.83	Strong	0.05	1.65	task-social/cue/runtype-pain/sch/h004.png	n/a	n/a	n/a	n/a	n/a	n/a	n/a	n/a
278.84	12.82000000000005	pain	stimulus	9	high_cue	high_stim	n/a	n/a	n/a	n/a	n/a	n/a	n/a	278.84	282.85	287.85	291.66	success	n/a	n/a	n/a
292.42	2.12	pain	outcomerating	9	high_cue	high_stim	71.78	Very Strong	71.78	Very Strong	0.05	1.65	task-social/outcomerating/task-pain_scale.png	n/a	n/a	n/a	n/a	success	n/a	n/a	n/a
297.72	0.98	pain	cue	10	low_cue	n/a	n/a	n/a	n/a	n/a	n/a	n/a	task-social/cue/runtype-pain/scl/l009.png	n/a	n/a	n/a	n/a	n/a	n/a	n/a	n/a
300.22	1.54	pain	expectrating	10	low_cue	n/a	11.36	Moderate	11.36	Moderate	0.35	1.19	task-social/cue/runtype-pain/scl/l009.png	n/a	n/a	n/a	n/a	n/a	n/a	n/a	n/a
306.36	12.370000000000005	pain	stimulus	10	low_cue	med_stim	n/a	n/a	n/a	n/a	n/a	n/a	n/a	306.36	310.12	315.12	318.73	success	n/a	n/a	n/a
318.01	1.87	pain	outcomerating	10	low_cue	med_stim	67.51	Very Strong	67.51	Very Strong	0.35	1.19	task-social/outcomerating/task-pain_scale.png	n/a	n/a	n/a	n/a	success	n/a	n/a	n/a
327.21	1.0	pain	cue	11	low_cue	n/a	n/a	n/a	n/a	n/a	n/a	n/a	task-social/cue/runtype-pain/scl/l049.png	n/a	n/a	n/a	n/a	n/a	n/a	n/a	n/a
329.11	3.9	pain	expectrating	11	low_cue	n/a	62.71	Strong	62.71	Strong	0.48	3.42	task-social/cue/runtype-pain/scl/l049.png	n/a	n/a	n/a	n/a	n/a	n/a	n/a	n/a
344.66	11.899999999999977	pain	stimulus	11	low_cue	low_stim	n/a	n/a	n/a	n/a	n/a	n/a	n/a	344.66	348.16	353.16	356.56	success	n/a	n/a	n/a
367.01	2.04	pain	outcomerating	11	low_cue	low_stim	26.67	Moderate	26.67	Moderate	0.48	3.42	task-social/outcomerating/task-pain_scale.png	n/a	n/a	n/a	n/a	success	n/a	n/a	n/a
372.61	1.0	pain	cue	12	low_cue	n/a	n/a	n/a	n/a	n/a	n/a	n/a	task-social/cue/runtype-pain/scl/l026.png	n/a	n/a	n/a	n/a	n/a	n/a	n/a	n/a
374.61	1.48	pain	expectrating	12	low_cue	n/a	30.17	Strong	30.17	Strong	0.38	1.1	task-social/cue/runtype-pain/scl/l026.png	n/a	n/a	n/a	n/a	n/a	n/a	n/a	n/a
384.43	12.819999999999993	pain	stimulus	12	low_cue	high_stim	n/a	n/a	n/a	n/a	n/a	n/a	n/a	384.43	388.44	393.44	397.25	success	n/a	n/a	n/a
394.42	2.67	pain	outcomerating	12	low_cue	high_stim	91.85	Very Strong	91.85	Very Strong	0.38	1.1	task-social/outcomerating/task-pain_scale.png	n/a	n/a	n/a	n/a	success	n/a	n/a	n/a
