onset	duration	run_type	trial_type	trial_index	cue	stimulusintensity	rating_value	rating_glmslabel	rating_value_fillna	rating_glmslabel_fillna	rating_mouseonset	rating_mousedur	stim_file	pain_onset_ttl1	pain_onset_ttl2	pain_onset_ttl3	pain_onset_ttl4	pain_stimulus_delivery_success	cognitive_correct_response	cognitive_participant_response	cognitive_response_accuracy
5.49	1.0	pain	cue	1	low_cue	n/a	n/a	n/a	n/a	n/a	n/a	n/a	task-social/cue/runtype-pain/scl/l038.png	n/a	n/a	n/a	n/a	n/a	n/a	n/a	n/a
7.51	2.91	pain	expectrating	1	low_cue	n/a	6.21	Weak	6.21	Weak	0.82	2.09	task-social/cue/runtype-pain/scl/l038.png	n/a	n/a	n/a	n/a	n/a	n/a	n/a	n/a
16.28	12.36	pain	stimulus	1	low_cue	med_stim	n/a	n/a	n/a	n/a	n/a	n/a	n/a	16.28	20.04	25.04	28.65	success	n/a	n/a	n/a
28.1	2.53	pain	outcomerating	1	low_cue	med_stim	26.87	Moderate	26.87	Moderate	0.82	2.09	task-social/outcomerating/task-pain_scale.png	n/a	n/a	n/a	n/a	success	n/a	n/a	n/a
33.8	1.0	pain	cue	2	low_cue	n/a	n/a	n/a	n/a	n/a	n/a	n/a	task-social/cue/runtype-pain/scl/l048.png	n/a	n/a	n/a	n/a	n/a	n/a	n/a	n/a
36.1	2.57	pain	expectrating	2	low_cue	n/a	21.42	Moderate	21.42	Moderate	0.58	1.98	task-social/cue/runtype-pain/scl/l048.png	n/a	n/a	n/a	n/a	n/a	n/a	n/a	n/a
47.63	11.899999999999999	pain	stimulus	2	low_cue	low_stim	n/a	n/a	n/a	n/a	n/a	n/a	n/a	47.63	51.13	56.13	59.53	success	n/a	n/a	n/a
58.49	3.82	pain	outcomerating	2	low_cue	low_stim	22.36	Moderate	22.36	Moderate	0.58	1.98	task-social/outcomerating/task-pain_scale.png	n/a	n/a	n/a	n/a	success	n/a	n/a	n/a
74.2	1.0	pain	cue	3	low_cue	n/a	n/a	n/a	n/a	n/a	n/a	n/a	task-social/cue/runtype-pain/scl/l015.png	n/a	n/a	n/a	n/a	n/a	n/a	n/a	n/a
76.5	3.5	pain	expectrating	3	low_cue	n/a	35.86	Strong	35.86	Strong	0.53	2.97	task-social/cue/runtype-pain/scl/l015.png	n/a	n/a	n/a	n/a	n/a	n/a	n/a	n/a
85.34	12.819999999999993	pain	stimulus	3	low_cue	high_stim	n/a	n/a	n/a	n/a	n/a	n/a	n/a	85.34	89.35	94.35	98.16	success	n/a	n/a	n/a
96.39	2.94	pain	outcomerating	3	low_cue	high_stim	35.35	Strong	35.35	Strong	0.53	2.97	task-social/outcomerating/task-pain_scale.png	n/a	n/a	n/a	n/a	success	n/a	n/a	n/a
103.79	1.0	pain	cue	4	high_cue	n/a	n/a	n/a	n/a	n/a	n/a	n/a	task-social/cue/runtype-pain/sch/h017.png	n/a	n/a	n/a	n/a	n/a	n/a	n/a	n/a
106.61	1.92	pain	expectrating	4	high_cue	n/a	138.15	Strongest sensation of any kind	138.15	Strongest sensation of any kind	0.52	1.4	task-social/cue/runtype-pain/sch/h017.png	n/a	n/a	n/a	n/a	n/a	n/a	n/a	n/a
113.25	11.900000000000006	pain	stimulus	4	high_cue	low_stim	n/a	n/a	n/a	n/a	n/a	n/a	n/a	113.25	116.75	121.75	125.15	success	n/a	n/a	n/a
127.4	2.7	pain	outcomerating	4	high_cue	low_stim	39.81	Strong	39.81	Strong	0.52	1.4	task-social/outcomerating/task-pain_scale.png	n/a	n/a	n/a	n/a	success	n/a	n/a	n/a
138.31	0.98	pain	cue	5	high_cue	n/a	n/a	n/a	n/a	n/a	n/a	n/a	task-social/cue/runtype-pain/sch/h046.png	n/a	n/a	n/a	n/a	n/a	n/a	n/a	n/a
140.01	2.77	pain	expectrating	5	high_cue	n/a	49.22	Strong	49.22	Strong	0.68	2.09	task-social/cue/runtype-pain/sch/h046.png	n/a	n/a	n/a	n/a	n/a	n/a	n/a	n/a
153.03	12.359999999999985	pain	stimulus	5	high_cue	med_stim	n/a	n/a	n/a	n/a	n/a	n/a	n/a	153.03	156.79	161.79	165.4	success	n/a	n/a	n/a
167.2	3.02	pain	outcomerating	5	high_cue	med_stim	37.98	Strong	37.98	Strong	0.68	2.09	task-social/outcomerating/task-pain_scale.png	n/a	n/a	n/a	n/a	success	n/a	n/a	n/a
178.09	1.0	pain	cue	6	high_cue	n/a	n/a	n/a	n/a	n/a	n/a	n/a	task-social/cue/runtype-pain/sch/h052.png	n/a	n/a	n/a	n/a	n/a	n/a	n/a	n/a
179.91	2.87	pain	expectrating	6	high_cue	n/a	74.85	Very Strong	74.85	Very Strong	0.6	2.27	task-social/cue/runtype-pain/sch/h052.png	n/a	n/a	n/a	n/a	n/a	n/a	n/a	n/a
186.51	12.830000000000013	pain	stimulus	6	high_cue	high_stim	n/a	n/a	n/a	n/a	n/a	n/a	n/a	186.51	190.52	195.52	199.33	success	n/a	n/a	n/a
200.7	2.33	pain	outcomerating	6	high_cue	high_stim	45.16	Strong	45.16	Strong	0.6	2.27	task-social/outcomerating/task-pain_scale.png	n/a	n/a	n/a	n/a	success	n/a	n/a	n/a
206.7	1.0	pain	cue	7	high_cue	n/a	n/a	n/a	n/a	n/a	n/a	n/a	task-social/cue/runtype-pain/sch/h042.png	n/a	n/a	n/a	n/a	n/a	n/a	n/a	n/a
209.7	2.93	pain	expectrating	7	high_cue	n/a	83.45	Very Strong	83.45	Very Strong	0.73	2.2	task-social/cue/runtype-pain/sch/h042.png	n/a	n/a	n/a	n/a	n/a	n/a	n/a	n/a
217.33	11.899999999999977	pain	stimulus	7	high_cue	low_stim	n/a	n/a	n/a	n/a	n/a	n/a	n/a	217.33	220.83	225.83	229.23	success	n/a	n/a	n/a
235.79	3.8	pain	outcomerating	7	high_cue	low_stim	46.14	Strong	46.14	Strong	0.73	2.2	task-social/outcomerating/task-pain_scale.png	n/a	n/a	n/a	n/a	success	n/a	n/a	n/a
242.0	1.0	pain	cue	8	low_cue	n/a	n/a	n/a	n/a	n/a	n/a	n/a	task-social/cue/runtype-pain/scl/l014.png	n/a	n/a	n/a	n/a	n/a	n/a	n/a	n/a
244.7	2.18	pain	expectrating	8	low_cue	n/a	35.99	Strong	35.99	Strong	0.48	1.7	task-social/cue/runtype-pain/scl/l014.png	n/a	n/a	n/a	n/a	n/a	n/a	n/a	n/a
251.62	12.819999999999993	pain	stimulus	8	low_cue	high_stim	n/a	n/a	n/a	n/a	n/a	n/a	n/a	251.62	255.63	260.63	264.44	success	n/a	n/a	n/a
261.6	n/a	pain	outcomerating	8	low_cue	high_stim	n/a	n/a	44.67	Strong	0.48	1.7	task-social/outcomerating/task-pain_scale.png	n/a	n/a	n/a	n/a	success	n/a	n/a	n/a
270.79	1.0	pain	cue	9	high_cue	n/a	n/a	n/a	n/a	n/a	n/a	n/a	task-social/cue/runtype-pain/sch/h014.png	n/a	n/a	n/a	n/a	n/a	n/a	n/a	n/a
273.79	2.44	pain	expectrating	9	high_cue	n/a	77.97	Very Strong	77.97	Very Strong	0.5	1.94	task-social/cue/runtype-pain/sch/h014.png	n/a	n/a	n/a	n/a	n/a	n/a	n/a	n/a
279.73	12.819999999999993	pain	stimulus	9	high_cue	high_stim	n/a	n/a	n/a	n/a	n/a	n/a	n/a	279.73	283.74	288.74	292.55	success	n/a	n/a	n/a
300.5	2.8	pain	outcomerating	9	high_cue	high_stim	55.93	Strong	55.93	Strong	0.5	1.94	task-social/outcomerating/task-pain_scale.png	n/a	n/a	n/a	n/a	success	n/a	n/a	n/a
306.5	0.98	pain	cue	10	low_cue	n/a	n/a	n/a	n/a	n/a	n/a	n/a	task-social/cue/runtype-pain/scl/l053.png	n/a	n/a	n/a	n/a	n/a	n/a	n/a	n/a
308.8	2.37	pain	expectrating	10	low_cue	n/a	39.63	Strong	39.63	Strong	0.5	1.87	task-social/cue/runtype-pain/scl/l053.png	n/a	n/a	n/a	n/a	n/a	n/a	n/a	n/a
316.42	12.359999999999957	pain	stimulus	10	low_cue	med_stim	n/a	n/a	n/a	n/a	n/a	n/a	n/a	316.42	320.18	325.18	328.79	success	n/a	n/a	n/a
327.29	2.1	pain	outcomerating	10	low_cue	med_stim	32.47	Strong	32.47	Strong	0.5	1.87	task-social/outcomerating/task-pain_scale.png	n/a	n/a	n/a	n/a	success	n/a	n/a	n/a
333.5	1.0	pain	cue	11	high_cue	n/a	n/a	n/a	n/a	n/a	n/a	n/a	task-social/cue/runtype-pain/sch/h033.png	n/a	n/a	n/a	n/a	n/a	n/a	n/a	n/a
336.5	2.73	pain	expectrating	11	high_cue	n/a	63.95	Strong	63.95	Strong	1.17	1.57	task-social/cue/runtype-pain/sch/h033.png	n/a	n/a	n/a	n/a	n/a	n/a	n/a	n/a
346.81	12.370000000000005	pain	stimulus	11	high_cue	med_stim	n/a	n/a	n/a	n/a	n/a	n/a	n/a	346.81	350.57	355.57	359.18	success	n/a	n/a	n/a
361.21	2.84	pain	outcomerating	11	high_cue	med_stim	28.83	Moderate	28.83	Moderate	1.17	1.57	task-social/outcomerating/task-pain_scale.png	n/a	n/a	n/a	n/a	success	n/a	n/a	n/a
372.09	1.0	pain	cue	12	low_cue	n/a	n/a	n/a	n/a	n/a	n/a	n/a	task-social/cue/runtype-pain/scl/l025.png	n/a	n/a	n/a	n/a	n/a	n/a	n/a	n/a
375.1	2.1	pain	expectrating	12	low_cue	n/a	22.14	Moderate	22.14	Moderate	0.6	1.5	task-social/cue/runtype-pain/scl/l025.png	n/a	n/a	n/a	n/a	n/a	n/a	n/a	n/a
383.71	11.910000000000025	pain	stimulus	12	low_cue	low_stim	n/a	n/a	n/a	n/a	n/a	n/a	n/a	383.71	387.21	392.21	395.61	success	n/a	n/a	n/a
394.7	2.9	pain	outcomerating	12	low_cue	low_stim	26.46	Moderate	26.46	Moderate	0.6	1.5	task-social/outcomerating/task-pain_scale.png	n/a	n/a	n/a	n/a	success	n/a	n/a	n/a
