onset	duration	subtask_type	event_type	response_accuracy	cue_location	target_location	participant_response	trial_index
10.56	0.2	posner	valid_cue	correct	right	n/a	n/a	1
10.777	0.71	posner	target_response	correct	right	right	right	1
16.579	0.2	posner	valid_cue	correct	left	n/a	n/a	2
16.779	0.489	posner	target_response	correct	left	left	left	2
26.066	0.2	posner	valid_cue	correct	left	n/a	n/a	3
26.266	0.511	posner	target_response	correct	left	left	left	3
33.052	0.2	posner	invalid_cue	correct	right	n/a	n/a	4
33.252	0.576	posner	target_response	correct	right	left	left	4
40.021	0.2	posner	invalid_cue	correct	left	n/a	n/a	5
40.221	0.576	posner	target_response	correct	left	right	right	5
43.306	0.2	posner	invalid_cue	correct	left	n/a	n/a	6
43.506	0.527	posner	target_response	correct	left	right	right	6
50.775	0.2	posner	valid_cue	correct	left	n/a	n/a	7
50.975	0.419	posner	target_response	correct	left	left	left	7
58.244	0.2	posner	valid_cue	correct	right	n/a	n/a	8
58.445	0.497	posner	target_response	correct	right	right	right	8
62.013	0.2	posner	valid_cue	correct	left	n/a	n/a	9
62.213	0.399	posner	target_response	correct	left	left	left	9
65.681	0.2	posner	valid_cue	correct	left	n/a	n/a	10
65.881	0.396	posner	target_response	correct	left	left	left	10
70.249	0.2	posner	valid_cue	correct	right	n/a	n/a	11
70.449	0.413	posner	target_response	correct	right	right	right	11
76.718	0.2	posner	valid_cue	correct	right	n/a	n/a	12
76.918	0.445	posner	target_response	correct	right	right	right	12
79.986	0.2	posner	valid_cue	correct	right	n/a	n/a	13
80.186	0.474	posner	target_response	correct	right	right	right	13
83.354	0.2	posner	invalid_cue	correct	right	n/a	n/a	14
83.554	0.451	posner	target_response	correct	right	left	left	14
89.923	0.2	posner	valid_cue	correct	left	n/a	n/a	15
90.123	0.386	posner	target_response	correct	left	left	left	15
92.891	0.2	posner	invalid_cue	correct	left	n/a	n/a	16
93.091	0.463	posner	target_response	correct	left	right	right	16
97.859	0.2	posner	valid_cue	correct	left	n/a	n/a	17
98.059	0.37	posner	target_response	correct	left	left	left	17
104.328	0.2	posner	valid_cue	correct	left	n/a	n/a	18
104.528	0.344	posner	target_response	correct	left	left	left	18
111.798	0.2	posner	valid_cue	correct	left	n/a	n/a	19
111.998	0.385	posner	target_response	correct	left	left	left	19
120.768	0.2	posner	valid_cue	correct	left	n/a	n/a	20
120.968	0.318	posner	target_response	correct	left	left	left	20
125.836	0.2	posner	valid_cue	correct	left	n/a	n/a	21
126.036	0.356	posner	target_response	correct	left	left	left	21
130.305	0.2	posner	invalid_cue	correct	right	n/a	n/a	22
130.505	0.399	posner	target_response	correct	right	left	left	22
134.873	0.2	posner	invalid_cue	correct	right	n/a	n/a	23
135.073	0.377	posner	target_response	correct	right	left	left	23
137.941	0.2	posner	valid_cue	correct	right	n/a	n/a	24
138.141	0.464	posner	target_response	correct	right	right	right	24
141.509	0.2	posner	valid_cue	correct	left	n/a	n/a	25
141.709	0.358	posner	target_response	correct	left	left	left	25
144.677	0.2	posner	invalid_cue	correct	right	n/a	n/a	26
144.877	0.381	posner	target_response	correct	right	left	left	26
150.846	0.2	posner	valid_cue	correct	left	n/a	n/a	27
151.046	0.334	posner	target_response	correct	left	left	left	27
160.316	0.2	posner	valid_cue	correct	left	n/a	n/a	28
160.516	0.382	posner	target_response	correct	left	left	left	28
163.784	0.2	posner	valid_cue	correct	right	n/a	n/a	29
163.984	0.423	posner	target_response	correct	right	right	right	29
166.852	0.2	posner	invalid_cue	correct	left	n/a	n/a	30
167.052	0.471	posner	target_response	correct	left	right	right	30
174.321	0.2	posner	valid_cue	correct	right	n/a	n/a	31
174.521	0.45	posner	target_response	correct	right	right	right	31
179.89	0.2	posner	invalid_cue	correct	left	n/a	n/a	32
180.09	0.452	posner	target_response	correct	left	right	right	32
184.158	0.2	posner	valid_cue	correct	right	n/a	n/a	33
184.358	0.385	posner	target_response	correct	right	right	right	33
191.628	0.2	posner	valid_cue	correct	right	n/a	n/a	34
191.828	0.35	posner	target_response	correct	right	right	right	34
195.296	0.2	posner	invalid_cue	correct	left	n/a	n/a	35
195.496	0.447	posner	target_response	correct	left	right	right	35
200.164	0.2	posner	invalid_cue	correct	right	n/a	n/a	36
200.364	0.366	posner	target_response	correct	right	left	left	36
204.132	0.2	posner	valid_cue	correct	right	n/a	n/a	37
204.332	0.379	posner	target_response	correct	right	right	right	37
208.2	0.2	posner	invalid_cue	correct	left	n/a	n/a	38
208.4	0.384	posner	target_response	correct	left	right	right	38
211.168	0.2	posner	valid_cue	correct	left	n/a	n/a	39
211.368	0.362	posner	target_response	correct	left	left	left	39
214.536	0.2	posner	valid_cue	correct	left	n/a	n/a	40
214.736	0.295	posner	target_response	correct	left	left	left	40
218.804	0.2	posner	invalid_cue	correct	left	n/a	n/a	41
219.004	0.397	posner	target_response	correct	left	right	right	41
222.072	0.2	posner	invalid_cue	correct	right	n/a	n/a	42
222.272	0.39	posner	target_response	correct	right	left	left	42
225.44	0.2	posner	valid_cue	correct	left	n/a	n/a	43
225.64	0.327	posner	target_response	correct	left	left	left	43
228.808	0.2	posner	valid_cue	correct	right	n/a	n/a	44
229.008	0.36	posner	target_response	correct	right	right	right	44
236.278	0.2	posner	valid_cue	correct	right	n/a	n/a	45
236.478	0.341	posner	target_response	correct	right	right	right	45
243.747	0.2	posner	invalid_cue	correct	right	n/a	n/a	46
243.947	0.396	posner	target_response	correct	right	left	left	46
249.616	0.2	posner	valid_cue	correct	left	n/a	n/a	47
249.816	0.344	posner	target_response	correct	left	left	left	47
252.884	0.2	posner	invalid_cue	correct	right	n/a	n/a	48
253.084	0.458	posner	target_response	correct	right	left	left	48
255.952	0.2	posner	valid_cue	correct	left	n/a	n/a	49
256.152	0.413	posner	target_response	correct	left	left	left	49
259.92	0.2	posner	valid_cue	correct	left	n/a	n/a	50
260.12	0.337	posner	target_response	correct	left	left	left	50
263.988	0.2	posner	valid_cue	correct	right	n/a	n/a	51
264.188	0.382	posner	target_response	correct	right	right	right	51
268.956	0.2	posner	valid_cue	correct	right	n/a	n/a	52
269.156	0.346	posner	target_response	correct	right	right	right	52
272.208	0.2	posner	valid_cue	correct	left	n/a	n/a	53
272.408	0.316	posner	target_response	correct	left	left	left	53
275.275	0.2	posner	valid_cue	correct	right	n/a	n/a	54
275.475	0.423	posner	target_response	correct	right	right	right	54
278.243	0.2	posner	valid_cue	correct	left	n/a	n/a	55
278.443	0.316	posner	target_response	correct	left	left	left	55
285.713	0.2	posner	invalid_cue	correct	left	n/a	n/a	56
285.913	0.413	posner	target_response	correct	left	right	right	56
293.182	0.2	posner	valid_cue	correct	left	n/a	n/a	57
293.382	0.31	posner	target_response	correct	left	left	left	57
296.45	0.2	posner	valid_cue	correct	left	n/a	n/a	58
296.65	0.283	posner	target_response	correct	left	left	left	58
299.618	0.2	posner	valid_cue	correct	left	n/a	n/a	59
299.818	0.314	posner	target_response	correct	left	left	left	59
302.586	0.2	posner	invalid_cue	incorrect	left	n/a	n/a	60
302.786	0.25	posner	target_response	incorrect	left	right	left	60
306.654	0.2	posner	invalid_cue	correct	right	n/a	n/a	61
306.854	0.417	posner	target_response	correct	right	left	left	61
310.922	0.2	posner	invalid_cue	correct	left	n/a	n/a	62
311.122	0.385	posner	target_response	correct	left	right	right	62
318.392	0.2	posner	invalid_cue	correct	left	n/a	n/a	63
318.592	0.454	posner	target_response	correct	left	right	right	63
321.659	0.2	posner	invalid_cue	correct	right	n/a	n/a	64
321.859	0.412	posner	target_response	correct	right	left	left	64
325.628	0.2	posner	valid_cue	correct	right	n/a	n/a	65
325.828	0.423	posner	target_response	correct	right	right	right	65
332.097	0.2	posner	valid_cue	correct	right	n/a	n/a	66
332.297	0.402	posner	target_response	correct	right	right	right	66
335.765	0.2	posner	valid_cue	correct	left	n/a	n/a	67
335.965	0.374	posner	target_response	correct	left	left	left	67
339.133	0.2	posner	valid_cue	correct	left	n/a	n/a	68
339.333	0.318	posner	target_response	correct	left	left	left	68
342.2	0.2	posner	valid_cue	correct	right	n/a	n/a	69
342.4	0.383	posner	target_response	correct	right	right	right	69
345.668	0.2	posner	valid_cue	correct	right	n/a	n/a	70
345.868	0.437	posner	target_response	correct	right	right	right	70
349.036	0.2	posner	valid_cue	correct	left	n/a	n/a	71
349.236	0.333	posner	target_response	correct	left	left	left	71
356.506	0.2	posner	valid_cue	correct	right	n/a	n/a	72
356.706	0.406	posner	target_response	correct	right	right	right	72
362.074	0.2	posner	valid_cue	correct	right	n/a	n/a	73
362.275	0.386	posner	target_response	correct	right	right	right	73
365.943	0.2	posner	invalid_cue	correct	right	n/a	n/a	74
366.143	0.435	posner	target_response	correct	right	left	left	74
369.411	0.2	posner	valid_cue	correct	left	n/a	n/a	75
369.611	0.329	posner	target_response	correct	left	left	left	75
373.479	0.2	posner	invalid_cue	correct	left	n/a	n/a	76
373.679	0.428	posner	target_response	correct	left	right	right	76
380.948	0.2	posner	invalid_cue	correct	left	n/a	n/a	77
381.148	0.452	posner	target_response	correct	left	right	right	77
388.418	0.2	posner	valid_cue	correct	right	n/a	n/a	78
388.618	0.403	posner	target_response	correct	right	right	right	78
394.987	0.2	posner	valid_cue	correct	right	n/a	n/a	79
395.187	0.531	posner	target_response	correct	right	right	right	79
404.457	0.2	posner	valid_cue	correct	right	n/a	n/a	80
404.657	0.417	posner	target_response	correct	right	right	right	80
408.425	0.2	posner	valid_cue	correct	left	n/a	n/a	81
408.625	0.354	posner	target_response	correct	left	left	left	81
412.893	0.2	posner	valid_cue	correct	right	n/a	n/a	82
413.093	0.357	posner	target_response	correct	right	right	right	82
416.962	0.2	posner	invalid_cue	correct	right	n/a	n/a	83
417.162	0.433	posner	target_response	correct	right	left	left	83
423.931	0.2	posner	valid_cue	correct	right	n/a	n/a	84
424.131	0.376	posner	target_response	correct	right	right	right	84
431.1	0.2	posner	valid_cue	correct	left	n/a	n/a	85
431.3	0.359	posner	target_response	correct	left	left	left	85
434.968	0.2	posner	valid_cue	correct	left	n/a	n/a	86
435.168	0.35	posner	target_response	correct	left	left	left	86
438.536	0.2	posner	valid_cue	correct	right	n/a	n/a	87
438.736	0.401	posner	target_response	correct	right	right	right	87
443.405	0.2	posner	invalid_cue	correct	left	n/a	n/a	88
443.605	0.465	posner	target_response	correct	left	right	right	88
446.673	0.2	posner	invalid_cue	correct	left	n/a	n/a	89
446.873	0.386	posner	target_response	correct	left	right	right	89
449.74	0.2	posner	valid_cue	correct	right	n/a	n/a	90
449.941	0.388	posner	target_response	correct	right	right	right	90
453.308	0.2	posner	valid_cue	correct	right	n/a	n/a	91
453.509	0.399	posner	target_response	correct	right	right	right	91
457.777	0.2	posner	valid_cue	correct	right	n/a	n/a	92
457.977	0.292	posner	target_response	correct	right	right	right	92
462.745	0.2	posner	valid_cue	correct	right	n/a	n/a	93
462.945	0.368	posner	target_response	correct	right	right	right	93
466.313	0.2	posner	invalid_cue	correct	right	n/a	n/a	94
466.513	0.439	posner	target_response	correct	right	left	left	94
471.382	0.2	posner	invalid_cue	correct	right	n/a	n/a	95
471.582	0.414	posner	target_response	correct	right	left	left	95
474.45	0.2	posner	valid_cue	correct	left	n/a	n/a	96
474.65	0.343	posner	target_response	correct	left	left	left	96
483.62	0.2	posner	valid_cue	correct	left	n/a	n/a	97
483.82	0.353	posner	target_response	correct	left	left	left	97
487.888	0.2	posner	valid_cue	correct	left	n/a	n/a	98
488.088	0.362	posner	target_response	correct	left	left	left	98
495.357	0.2	posner	valid_cue	correct	left	n/a	n/a	99
495.558	0.376	posner	target_response	correct	left	left	left	99
502.827	0.2	posner	valid_cue	correct	right	n/a	n/a	100
503.027	0.423	posner	target_response	correct	right	right	right	100
506.195	0.2	posner	invalid_cue	correct	right	n/a	n/a	101
506.395	0.385	posner	target_response	correct	right	left	left	101
510.463	0.2	posner	invalid_cue	correct	right	n/a	n/a	102
510.663	0.394	posner	target_response	correct	right	left	left	102
513.931	0.2	posner	invalid_cue	correct	left	n/a	n/a	103
514.131	0.493	posner	target_response	correct	left	right	right	103
517.099	0.2	posner	valid_cue	correct	right	n/a	n/a	104
517.299	0.405	posner	target_response	correct	right	right	right	104
524.568	0.2	posner	invalid_cue	correct	left	n/a	n/a	105
524.768	0.445	posner	target_response	correct	left	right	right	105
529.637	0.2	posner	invalid_cue	correct	left	n/a	n/a	106
529.837	0.405	posner	target_response	correct	left	right	right	106
535.006	0.2	posner	valid_cue	correct	right	n/a	n/a	107
535.206	0.397	posner	target_response	correct	right	right	right	107
538.073	0.2	posner	valid_cue	correct	right	n/a	n/a	108
538.274	0.381	posner	target_response	correct	right	right	right	108
542.142	0.2	posner	valid_cue	correct	left	n/a	n/a	109
542.342	0.383	posner	target_response	correct	left	left	left	109
546.61	0.2	posner	valid_cue	correct	right	n/a	n/a	110
546.81	0.396	posner	target_response	correct	right	right	right	110
554.079	0.2	posner	valid_cue	correct	right	n/a	n/a	111
554.279	0.38	posner	target_response	correct	right	right	right	111
559.448	0.2	posner	invalid_cue	correct	left	n/a	n/a	112
559.648	0.438	posner	target_response	correct	left	right	right	112
563.816	0.2	posner	invalid_cue	correct	right	n/a	n/a	113
564.016	0.528	posner	target_response	correct	right	left	left	113
567.084	0.2	posner	invalid_cue	correct	right	n/a	n/a	114
567.284	0.473	posner	target_response	correct	right	left	left	114
574.554	0.2	posner	valid_cue	correct	right	n/a	n/a	115
574.754	0.433	posner	target_response	correct	right	right	right	115
577.722	0.2	posner	valid_cue	correct	left	n/a	n/a	116
577.922	0.377	posner	target_response	correct	left	left	left	116
583.39	0.2	posner	valid_cue	correct	left	n/a	n/a	117
583.59	0.343	posner	target_response	correct	left	left	left	117
587.859	0.2	posner	valid_cue	correct	right	n/a	n/a	118
588.059	0.422	posner	target_response	correct	right	right	right	118
596.328	0.2	posner	invalid_cue	correct	right	n/a	n/a	119
596.529	0.374	posner	target_response	correct	right	left	left	119
599.696	0.2	posner	valid_cue	correct	left	n/a	n/a	120
599.896	0.348	posner	target_response	correct	left	left	left	120
