onset	duration	run_type	trial_type	trial_index	cue	stimulusintensity	rating_value	rating_glmslabel	rating_value_fillna	rating_glmslabel_fillna	rating_mouseonset	rating_mousedur	stim_file_TODO	pain_onset_ttl1	pain_onset_ttl2	pain_onset_ttl3	pain_onset_ttl4	pain_stimulus_delivery_success	cognitive_correct_response	cognitive_participant_response	cognitive_response_accuracy
5.68	1.0	pain	cue	1	low_cue	n/a	n/a	n/a	n/a	n/a	n/a	n/a	task-social/cue/runtype-pain/scl/l021.png	n/a	n/a	n/a	n/a	n/a	n/a	n/a	n/a
7.7	2.95	pain	expectrating	1	low_cue	n/a	2.1	Barely detectable	2.1	Barely detectable	0.75	2.2	task-social/cue/runtype-pain/scl/l021.png	n/a	n/a	n/a	n/a	n/a	n/a	n/a	n/a
13.76	12.37	pain	stimulus	1	low_cue	med_stim	n/a	n/a	n/a	n/a	n/a	n/a	n/a	13.76	17.52	22.52	26.13	success	n/a	n/a	n/a
27.89	2.12	pain	outcomerating	1	low_cue	med_stim	70.18	Very Strong	70.18	Very Strong	0.75	2.2	task-social/outcomerating/task-pain_scale.png	n/a	n/a	n/a	n/a	success	n/a	n/a	n/a
33.39	1.0	pain	cue	2	low_cue	n/a	n/a	n/a	n/a	n/a	n/a	n/a	task-social/cue/runtype-pain/scl/l014.png	n/a	n/a	n/a	n/a	n/a	n/a	n/a	n/a
35.69	2.4	pain	expectrating	2	low_cue	n/a	6.44	Weak	6.44	Weak	0.4	2.0	task-social/cue/runtype-pain/scl/l014.png	n/a	n/a	n/a	n/a	n/a	n/a	n/a	n/a
44.51	11.899999999999999	pain	stimulus	2	low_cue	low_stim	n/a	n/a	n/a	n/a	n/a	n/a	n/a	44.51	48.01	53.01	56.41	success	n/a	n/a	n/a
55.38	1.83	pain	outcomerating	2	low_cue	low_stim	49.25	Strong	49.25	Strong	0.4	2.0	task-social/outcomerating/task-pain_scale.png	n/a	n/a	n/a	n/a	success	n/a	n/a	n/a
71.09	1.0	pain	cue	3	low_cue	n/a	n/a	n/a	n/a	n/a	n/a	n/a	task-social/cue/runtype-pain/scl/l023.png	n/a	n/a	n/a	n/a	n/a	n/a	n/a	n/a
73.39	1.57	pain	expectrating	3	low_cue	n/a	29.03	Strong	29.03	Strong	0.42	1.15	task-social/cue/runtype-pain/scl/l023.png	n/a	n/a	n/a	n/a	n/a	n/a	n/a	n/a
82.21	12.820000000000007	pain	stimulus	3	low_cue	high_stim	n/a	n/a	n/a	n/a	n/a	n/a	n/a	82.21	86.22	91.22	95.03	success	n/a	n/a	n/a
93.29	3.4	pain	outcomerating	3	low_cue	high_stim	83.56	Very Strong	83.56	Very Strong	0.42	1.15	task-social/outcomerating/task-pain_scale.png	n/a	n/a	n/a	n/a	success	n/a	n/a	n/a
100.68	1.0	pain	cue	4	high_cue	n/a	n/a	n/a	n/a	n/a	n/a	n/a	task-social/cue/runtype-pain/sch/h043.png	n/a	n/a	n/a	n/a	n/a	n/a	n/a	n/a
103.48	2.73	pain	expectrating	4	high_cue	n/a	61.97	Strong	61.97	Strong	0.4	2.33	task-social/cue/runtype-pain/sch/h043.png	n/a	n/a	n/a	n/a	n/a	n/a	n/a	n/a
112.81	11.909999999999997	pain	stimulus	4	high_cue	low_stim	n/a	n/a	n/a	n/a	n/a	n/a	n/a	112.81	116.31	121.31	124.71	success	n/a	n/a	n/a
124.69	1.92	pain	outcomerating	4	high_cue	low_stim	61.28	Strong	61.28	Strong	0.4	2.33	task-social/outcomerating/task-pain_scale.png	n/a	n/a	n/a	n/a	success	n/a	n/a	n/a
135.79	0.98	pain	cue	5	high_cue	n/a	n/a	n/a	n/a	n/a	n/a	n/a	task-social/cue/runtype-pain/sch/h018.png	n/a	n/a	n/a	n/a	n/a	n/a	n/a	n/a
137.49	3.15	pain	expectrating	5	high_cue	n/a	32.45	Strong	32.45	Strong	0.57	2.58	task-social/cue/runtype-pain/sch/h018.png	n/a	n/a	n/a	n/a	n/a	n/a	n/a	n/a
147.81	12.359999999999985	pain	stimulus	5	high_cue	med_stim	n/a	n/a	n/a	n/a	n/a	n/a	n/a	147.81	151.57	156.57	160.18	success	n/a	n/a	n/a
159.69	2.37	pain	outcomerating	5	high_cue	med_stim	72.22	Very Strong	72.22	Very Strong	0.57	2.58	task-social/outcomerating/task-pain_scale.png	n/a	n/a	n/a	n/a	success	n/a	n/a	n/a
170.59	1.0	pain	cue	6	high_cue	n/a	n/a	n/a	n/a	n/a	n/a	n/a	task-social/cue/runtype-pain/sch/h014.png	n/a	n/a	n/a	n/a	n/a	n/a	n/a	n/a
172.39	2.28	pain	expectrating	6	high_cue	n/a	99.91	Strongest sensation of any kind	99.91	Strongest sensation of any kind	0.42	1.87	task-social/cue/runtype-pain/sch/h014.png	n/a	n/a	n/a	n/a	n/a	n/a	n/a	n/a
179.0	12.819999999999993	pain	stimulus	6	high_cue	high_stim	n/a	n/a	n/a	n/a	n/a	n/a	n/a	179.0	183.01	188.01	191.82	success	n/a	n/a	n/a
190.88	2.7	pain	outcomerating	6	high_cue	high_stim	85.08	Very Strong	85.08	Very Strong	0.42	1.87	task-social/outcomerating/task-pain_scale.png	n/a	n/a	n/a	n/a	success	n/a	n/a	n/a
196.88	1.0	pain	cue	7	high_cue	n/a	n/a	n/a	n/a	n/a	n/a	n/a	task-social/cue/runtype-pain/sch/h001.png	n/a	n/a	n/a	n/a	n/a	n/a	n/a	n/a
199.88	1.82	pain	expectrating	7	high_cue	n/a	5.13	Weak	5.13	Weak	0.4	1.42	task-social/cue/runtype-pain/sch/h001.png	n/a	n/a	n/a	n/a	n/a	n/a	n/a	n/a
210.22	11.900000000000006	pain	stimulus	7	high_cue	low_stim	n/a	n/a	n/a	n/a	n/a	n/a	n/a	210.22	213.72	218.72	222.12	success	n/a	n/a	n/a
230.98	1.68	pain	outcomerating	7	high_cue	low_stim	42.72	Strong	42.72	Strong	0.4	1.42	task-social/outcomerating/task-pain_scale.png	n/a	n/a	n/a	n/a	success	n/a	n/a	n/a
236.98	1.0	pain	cue	8	low_cue	n/a	n/a	n/a	n/a	n/a	n/a	n/a	task-social/cue/runtype-pain/scl/l012.png	n/a	n/a	n/a	n/a	n/a	n/a	n/a	n/a
239.68	1.54	pain	expectrating	8	low_cue	n/a	64.58	Very Strong	64.58	Very Strong	0.38	1.16	task-social/cue/runtype-pain/scl/l012.png	n/a	n/a	n/a	n/a	n/a	n/a	n/a	n/a
249.3	12.829999999999984	pain	stimulus	8	low_cue	high_stim	n/a	n/a	n/a	n/a	n/a	n/a	n/a	249.3	253.31	258.31	262.12	success	n/a	n/a	n/a
259.29	2.74	pain	outcomerating	8	low_cue	high_stim	100.14	Strongest sensation of any kind	100.14	Strongest sensation of any kind	0.38	1.16	task-social/outcomerating/task-pain_scale.png	n/a	n/a	n/a	n/a	success	n/a	n/a	n/a
268.28	1.0	pain	cue	9	high_cue	n/a	n/a	n/a	n/a	n/a	n/a	n/a	task-social/cue/runtype-pain/sch/h050.png	n/a	n/a	n/a	n/a	n/a	n/a	n/a	n/a
271.29	2.7	pain	expectrating	9	high_cue	n/a	82.13	Very Strong	82.13	Very Strong	0.43	2.27	task-social/cue/runtype-pain/sch/h050.png	n/a	n/a	n/a	n/a	n/a	n/a	n/a	n/a
277.22	12.829999999999984	pain	stimulus	9	high_cue	high_stim	n/a	n/a	n/a	n/a	n/a	n/a	n/a	277.22	281.23	286.23	290.04	success	n/a	n/a	n/a
295.69	1.52	pain	outcomerating	9	high_cue	high_stim	78.19	Very Strong	78.19	Very Strong	0.43	2.27	task-social/outcomerating/task-pain_scale.png	n/a	n/a	n/a	n/a	success	n/a	n/a	n/a
301.89	1.0	pain	cue	10	low_cue	n/a	n/a	n/a	n/a	n/a	n/a	n/a	task-social/cue/runtype-pain/scl/l017.png	n/a	n/a	n/a	n/a	n/a	n/a	n/a	n/a
304.19	1.47	pain	expectrating	10	low_cue	n/a	33.56	Strong	33.56	Strong	0.33	1.14	task-social/cue/runtype-pain/scl/l017.png	n/a	n/a	n/a	n/a	n/a	n/a	n/a	n/a
314.52	12.360000000000014	pain	stimulus	10	low_cue	med_stim	n/a	n/a	n/a	n/a	n/a	n/a	n/a	314.52	318.28	323.28	326.89	success	n/a	n/a	n/a
327.68	1.98	pain	outcomerating	10	low_cue	med_stim	51.34	Strong	51.34	Strong	0.33	1.14	task-social/outcomerating/task-pain_scale.png	n/a	n/a	n/a	n/a	success	n/a	n/a	n/a
333.88	1.0	pain	cue	11	high_cue	n/a	n/a	n/a	n/a	n/a	n/a	n/a	task-social/cue/runtype-pain/sch/h003.png	n/a	n/a	n/a	n/a	n/a	n/a	n/a	n/a
336.88	3.06	pain	expectrating	11	high_cue	n/a	101.81	Strongest sensation of any kind	101.81	Strongest sensation of any kind	0.37	2.69	task-social/cue/runtype-pain/sch/h003.png	n/a	n/a	n/a	n/a	n/a	n/a	n/a	n/a
347.22	12.359999999999957	pain	stimulus	11	high_cue	med_stim	n/a	n/a	n/a	n/a	n/a	n/a	n/a	347.22	350.98	355.98	359.59	success	n/a	n/a	n/a
361.58	2.0	pain	outcomerating	11	high_cue	med_stim	70.11	Very Strong	70.11	Very Strong	0.37	2.69	task-social/outcomerating/task-pain_scale.png	n/a	n/a	n/a	n/a	success	n/a	n/a	n/a
372.48	1.0	pain	cue	12	low_cue	n/a	n/a	n/a	n/a	n/a	n/a	n/a	task-social/cue/runtype-pain/scl/l039.png	n/a	n/a	n/a	n/a	n/a	n/a	n/a	n/a
375.48	2.41	pain	expectrating	12	low_cue	n/a	14.78	Moderate	14.78	Moderate	0.43	1.98	task-social/cue/runtype-pain/scl/l039.png	n/a	n/a	n/a	n/a	n/a	n/a	n/a	n/a
381.41	11.899999999999977	pain	stimulus	12	low_cue	low_stim	n/a	n/a	n/a	n/a	n/a	n/a	n/a	381.41	384.91	389.91	393.31	success	n/a	n/a	n/a
394.69	2.87	pain	outcomerating	12	low_cue	low_stim	39.81	Strong	39.81	Strong	0.43	1.98	task-social/outcomerating/task-pain_scale.png	n/a	n/a	n/a	n/a	success	n/a	n/a	n/a
