onset	duration	run_type	trial_type	trial_index	cue	stimulusintensity	rating_value	rating_glmslabel	rating_value_fillna	rating_glmslabel_fillna	rating_mouseonset	rating_mousedur	stim_file	pain_onset_ttl1	pain_onset_ttl2	pain_onset_ttl3	pain_onset_ttl4	pain_stimulus_delivery_success	cognitive_correct_response	cognitive_participant_response	cognitive_response_accuracy
4.69	1.0	pain	cue	1	high_cue	n/a	n/a	n/a	n/a	n/a	n/a	n/a	task-social/cue/runtype-pain/sch/h027.png	n/a	n/a	n/a	n/a	n/a	n/a	n/a	n/a
7.11	1.44	pain	expectrating	1	high_cue	n/a	61.37	Strong	61.37	Strong	0.42	1.02	task-social/cue/runtype-pain/sch/h027.png	n/a	n/a	n/a	n/a	n/a	n/a	n/a	n/a
19.94	11.899999999999999	pain	stimulus	1	high_cue	low_stim	n/a	n/a	n/a	n/a	n/a	n/a	n/a	19.94	23.44	28.44	31.84	success	n/a	n/a	n/a
31.3	2.46	pain	outcomerating	1	high_cue	low_stim	87.7	Very Strong	87.7	Very Strong	0.8	1.66	task-social/outcomerating/task-pain_scale.png	n/a	n/a	n/a	n/a	success	n/a	n/a	n/a
37.2	1.0	pain	cue	2	low_cue	n/a	n/a	n/a	n/a	n/a	n/a	n/a	task-social/cue/runtype-pain/scl/l029.png	n/a	n/a	n/a	n/a	n/a	n/a	n/a	n/a
39.0	1.36	pain	expectrating	2	low_cue	n/a	34.78	Strong	34.78	Strong	0.42	0.94	task-social/cue/runtype-pain/scl/l029.png	n/a	n/a	n/a	n/a	n/a	n/a	n/a	n/a
44.13	11.899999999999999	pain	stimulus	2	low_cue	low_stim	n/a	n/a	n/a	n/a	n/a	n/a	n/a	44.13	47.63	52.63	56.03	success	n/a	n/a	n/a
57.29	1.95	pain	outcomerating	2	low_cue	low_stim	39.92	Strong	39.92	Strong	0.47	1.48	task-social/outcomerating/task-pain_scale.png	n/a	n/a	n/a	n/a	success	n/a	n/a	n/a
62.2	1.0	pain	cue	3	low_cue	n/a	n/a	n/a	n/a	n/a	n/a	n/a	task-social/cue/runtype-pain/scl/l055.png	n/a	n/a	n/a	n/a	n/a	n/a	n/a	n/a
64.3	2.08	pain	expectrating	3	low_cue	n/a	26.98	Moderate	26.98	Moderate	0.5	1.58	task-social/cue/runtype-pain/scl/l055.png	n/a	n/a	n/a	n/a	n/a	n/a	n/a	n/a
75.1	12.370000000000005	pain	stimulus	3	low_cue	med_stim	n/a	n/a	n/a	n/a	n/a	n/a	n/a	75.1	78.86	83.86	87.47	success	n/a	n/a	n/a
86.7	2.52	pain	outcomerating	3	low_cue	med_stim	61.98	Strong	61.98	Strong	0.72	1.81	task-social/outcomerating/task-pain_scale.png	n/a	n/a	n/a	n/a	success	n/a	n/a	n/a
91.79	1.0	pain	cue	4	low_cue	n/a	n/a	n/a	n/a	n/a	n/a	n/a	task-social/cue/runtype-pain/scl/l048.png	n/a	n/a	n/a	n/a	n/a	n/a	n/a	n/a
94.89	2.5	pain	expectrating	4	low_cue	n/a	0.94	No sensation	0.94	No sensation	0.52	1.99	task-social/cue/runtype-pain/scl/l048.png	n/a	n/a	n/a	n/a	n/a	n/a	n/a	n/a
104.14	12.819999999999993	pain	stimulus	4	low_cue	high_stim	n/a	n/a	n/a	n/a	n/a	n/a	n/a	104.14	108.15	113.15	116.96	success	n/a	n/a	n/a
115.4	1.98	pain	outcomerating	4	low_cue	high_stim	48.1	Strong	48.1	Strong	0.62	1.37	task-social/outcomerating/task-pain_scale.png	n/a	n/a	n/a	n/a	success	n/a	n/a	n/a
120.1	1.0	pain	cue	5	high_cue	n/a	n/a	n/a	n/a	n/a	n/a	n/a	task-social/cue/runtype-pain/sch/h011.png	n/a	n/a	n/a	n/a	n/a	n/a	n/a	n/a
122.5	1.75	pain	expectrating	5	high_cue	n/a	96.24	Very Strong	96.24	Very Strong	0.47	1.28	task-social/cue/runtype-pain/sch/h011.png	n/a	n/a	n/a	n/a	n/a	n/a	n/a	n/a
132.13	12.360000000000014	pain	stimulus	5	high_cue	med_stim	n/a	n/a	n/a	n/a	n/a	n/a	n/a	132.13	135.89	140.89	144.5	success	n/a	n/a	n/a
144.71	2.38	pain	outcomerating	5	high_cue	med_stim	31.91	Strong	31.91	Strong	0.72	1.67	task-social/outcomerating/task-pain_scale.png	n/a	n/a	n/a	n/a	success	n/a	n/a	n/a
149.29	1.0	pain	cue	6	high_cue	n/a	n/a	n/a	n/a	n/a	n/a	n/a	task-social/cue/runtype-pain/sch/h041.png	n/a	n/a	n/a	n/a	n/a	n/a	n/a	n/a
151.4	1.95	pain	expectrating	6	high_cue	n/a	64.16	Very Strong	64.16	Very Strong	0.43	1.52	task-social/cue/runtype-pain/sch/h041.png	n/a	n/a	n/a	n/a	n/a	n/a	n/a	n/a
160.92	12.820000000000022	pain	stimulus	6	high_cue	high_stim	n/a	n/a	n/a	n/a	n/a	n/a	n/a	160.92	164.93	169.93	173.74	success	n/a	n/a	n/a
172.6	3.21	pain	outcomerating	6	high_cue	high_stim	51.02	Strong	51.02	Strong	0.73	2.47	task-social/outcomerating/task-pain_scale.png	n/a	n/a	n/a	n/a	success	n/a	n/a	n/a
178.59	1.0	pain	cue	7	high_cue	n/a	n/a	n/a	n/a	n/a	n/a	n/a	task-social/cue/runtype-pain/sch/h022.png	n/a	n/a	n/a	n/a	n/a	n/a	n/a	n/a
180.71	2.27	pain	expectrating	7	high_cue	n/a	76.75	Very Strong	76.75	Very Strong	0.7	1.57	task-social/cue/runtype-pain/sch/h022.png	n/a	n/a	n/a	n/a	n/a	n/a	n/a	n/a
187.32	11.909999999999997	pain	stimulus	7	high_cue	low_stim	n/a	n/a	n/a	n/a	n/a	n/a	n/a	187.32	190.82	195.82	199.22	success	n/a	n/a	n/a
207.2	2.17	pain	outcomerating	7	high_cue	low_stim	26.46	Moderate	26.46	Moderate	0.4	1.77	task-social/outcomerating/task-pain_scale.png	n/a	n/a	n/a	n/a	success	n/a	n/a	n/a
218.99	1.0	pain	cue	8	high_cue	n/a	n/a	n/a	n/a	n/a	n/a	n/a	task-social/cue/runtype-pain/sch/h001.png	n/a	n/a	n/a	n/a	n/a	n/a	n/a	n/a
221.1	1.41	pain	expectrating	8	high_cue	n/a	73.8	Very Strong	73.8	Very Strong	0.4	1.01	task-social/cue/runtype-pain/sch/h001.png	n/a	n/a	n/a	n/a	n/a	n/a	n/a	n/a
226.03	12.819999999999993	pain	stimulus	8	high_cue	high_stim	n/a	n/a	n/a	n/a	n/a	n/a	n/a	226.03	230.04	235.04	238.85	success	n/a	n/a	n/a
240.6	2.8	pain	outcomerating	8	high_cue	high_stim	57.14	Strong	57.14	Strong	0.57	2.23	task-social/outcomerating/task-pain_scale.png	n/a	n/a	n/a	n/a	success	n/a	n/a	n/a
245.5	1.0	pain	cue	9	low_cue	n/a	n/a	n/a	n/a	n/a	n/a	n/a	task-social/cue/runtype-pain/scl/l039.png	n/a	n/a	n/a	n/a	n/a	n/a	n/a	n/a
248.6	1.5	pain	expectrating	9	low_cue	n/a	90.46	Very Strong	90.46	Very Strong	0.42	1.08	task-social/cue/runtype-pain/scl/l039.png	n/a	n/a	n/a	n/a	n/a	n/a	n/a	n/a
257.23	11.899999999999977	pain	stimulus	9	low_cue	low_stim	n/a	n/a	n/a	n/a	n/a	n/a	n/a	257.23	260.73	265.73	269.13	success	n/a	n/a	n/a
270.51	2.85	pain	outcomerating	9	low_cue	low_stim	15.56	Moderate	15.56	Moderate	0.35	2.5	task-social/outcomerating/task-pain_scale.png	n/a	n/a	n/a	n/a	success	n/a	n/a	n/a
276.39	1.0	pain	cue	10	low_cue	n/a	n/a	n/a	n/a	n/a	n/a	n/a	task-social/cue/runtype-pain/scl/l053.png	n/a	n/a	n/a	n/a	n/a	n/a	n/a	n/a
279.49	1.85	pain	expectrating	10	low_cue	n/a	28.11	Moderate	28.11	Moderate	0.35	1.5	task-social/cue/runtype-pain/scl/l053.png	n/a	n/a	n/a	n/a	n/a	n/a	n/a	n/a
288.82	12.360000000000014	pain	stimulus	10	low_cue	med_stim	n/a	n/a	n/a	n/a	n/a	n/a	n/a	288.82	292.58	297.58	301.19	success	n/a	n/a	n/a
302.0	2.03	pain	outcomerating	10	low_cue	med_stim	48.08	Strong	48.08	Strong	0.55	1.48	task-social/outcomerating/task-pain_scale.png	n/a	n/a	n/a	n/a	success	n/a	n/a	n/a
322.99	1.0	pain	cue	11	low_cue	n/a	n/a	n/a	n/a	n/a	n/a	n/a	task-social/cue/runtype-pain/scl/l028.png	n/a	n/a	n/a	n/a	n/a	n/a	n/a	n/a
325.39	1.4	pain	expectrating	11	low_cue	n/a	96.01	Very Strong	96.01	Very Strong	0.42	0.98	task-social/cue/runtype-pain/scl/l028.png	n/a	n/a	n/a	n/a	n/a	n/a	n/a	n/a
330.85	12.819999999999993	pain	stimulus	11	low_cue	high_stim	n/a	n/a	n/a	n/a	n/a	n/a	n/a	330.85	334.86	339.86	343.67	success	n/a	n/a	n/a
341.2	3.43	pain	outcomerating	11	low_cue	high_stim	85.16	Very Strong	85.16	Very Strong	0.72	2.72	task-social/outcomerating/task-pain_scale.png	n/a	n/a	n/a	n/a	success	n/a	n/a	n/a
362.29	1.0	pain	cue	12	high_cue	n/a	n/a	n/a	n/a	n/a	n/a	n/a	task-social/cue/runtype-pain/sch/h031.png	n/a	n/a	n/a	n/a	n/a	n/a	n/a	n/a
365.39	1.48	pain	expectrating	12	high_cue	n/a	33.56	Strong	33.56	Strong	0.33	1.15	task-social/cue/runtype-pain/sch/h031.png	n/a	n/a	n/a	n/a	n/a	n/a	n/a	n/a
375.55	12.360000000000014	pain	stimulus	12	high_cue	med_stim	n/a	n/a	n/a	n/a	n/a	n/a	n/a	375.55	379.31	384.31	387.92	success	n/a	n/a	n/a
394.1	2.1	pain	outcomerating	12	high_cue	med_stim	44.02	Strong	44.02	Strong	0.45	1.65	task-social/outcomerating/task-pain_scale.png	n/a	n/a	n/a	n/a	success	n/a	n/a	n/a
