onset	duration	trial_type	response_x	response_y	situation	context	modality	stim_file_TODO
7.826	15.333	narrative_presentation	n/a	n/a	Necessity of sacrificing loved ones	town	Audio	task-narratives/Narrative8Situation1.mp3
23.159	3.95	rating_feeling	612	707	Necessity of sacrificing loved ones	town	Audio	n/a
25.326	1.783	feeling_mouse_trajectory	612	707	Necessity of sacrificing loved ones	town	Audio	n/a
27.197	3.767	rating_expectation	777	634	Necessity of sacrificing loved ones	town	Audio	n/a
29.38	1.583	expectation_mouse_trajectory	777	634	Necessity of sacrificing loved ones	town	Audio	n/a
34.435	8.789	narrative_presentation	n/a	n/a	Abduction	town	Audio	task-narratives/Narrative8Situation2.mp3
43.224	2.935	rating_feeling	552	620	Abduction	town	Audio	n/a
43.891	2.268	feeling_mouse_trajectory	552	620	Abduction	town	Audio	n/a
47.254	2.96	rating_expectation	684	646	Abduction	town	Audio	n/a
48.154	2.06	expectation_mouse_trajectory	684	646	Abduction	town	Audio	n/a
55.327	22.15	narrative_presentation	n/a	n/a	Adultery	town	Audio	task-narratives/Narrative8Situation3.mp3
77.477	2.668	rating_feeling	837	612	Adultery	town	Audio	n/a
77.944	2.201	feeling_mouse_trajectory	837	612	Adultery	town	Audio	n/a
81.517	2.168	rating_expectation	612	461	Adultery	town	Audio	n/a
82.201	1.485	expectation_mouse_trajectory	612	461	Adultery	town	Audio	n/a
88.622	12.618	narrative_presentation	n/a	n/a	Obtaining	city	Audio	task-narratives/Narrative8Situation4.mp3
101.24	2.206	rating_feeling	721	536	Obtaining	city	Audio	n/a
101.774	1.673	feeling_mouse_trajectory	721	536	Obtaining	city	Audio	n/a
105.28	1.888	rating_expectation	589	469	Obtaining	city	Audio	n/a
105.896	1.272	expectation_mouse_trajectory	589	469	Obtaining	city	Audio	n/a
111.37	6.613	narrative_presentation	n/a	n/a	Supplication	city	Audio	task-narratives/Narrative8Situation5.mp3
117.983	3.95	rating_feeling	790	464	Supplication	city	Audio	n/a
119.55	2.383	feeling_mouse_trajectory	790	464	Supplication	city	Audio	n/a
122.017	1.701	rating_expectation	635	541	Supplication	city	Audio	n/a
122.117	1.601	expectation_mouse_trajectory	635	541	Supplication	city	Audio	n/a
128.12	5.977	narrative_presentation	n/a	n/a	Rivalry of kin	city	Audio	task-narratives/Narrative8Situation6.mp3
134.096	2.818	rating_feeling	784	587	Rivalry of kin	city	Audio	n/a
134.58	2.335	feeling_mouse_trajectory	784	587	Rivalry of kin	city	Audio	n/a
138.121	2.442	rating_expectation	660	487	Rivalry of kin	city	Audio	n/a
138.655	1.909	expectation_mouse_trajectory	660	487	Rivalry of kin	city	Audio	n/a
145.192	10.778	narrative_presentation	n/a	n/a	Recovery of a lost one	beach	Audio	task-narratives/Narrative8Situation7.mp3
155.97	2.236	rating_feeling	647	429	Recovery of a lost one	beach	Audio	n/a
156.503	1.702	feeling_mouse_trajectory	647	429	Recovery of a lost one	beach	Audio	n/a
159.996	2.068	rating_expectation	626	408	Recovery of a lost one	beach	Audio	n/a
160.396	1.668	expectation_mouse_trajectory	626	408	Recovery of a lost one	beach	Audio	n/a
167.051	11.278	narrative_presentation	n/a	n/a	Rivalry of superior versus inferior	beach	Audio	task-narratives/Narrative8Situation8.mp3
178.328	3.052	rating_feeling	583	426	Rivalry of superior versus inferior	beach	Audio	n/a
179.295	2.085	feeling_mouse_trajectory	583	426	Rivalry of superior versus inferior	beach	Audio	n/a
182.354	2.043	rating_expectation	631	426	Rivalry of superior versus inferior	beach	Audio	n/a
183.287	1.109	expectation_mouse_trajectory	631	426	Rivalry of superior versus inferior	beach	Audio	n/a
189.425	10.113	narrative_presentation	n/a	n/a	Slaying of kin unrecognized	beach	Audio	task-narratives/Narrative8Situation9.mp3
199.538	3.903	rating_feeling	829	540	Slaying of kin unrecognized	beach	Audio	n/a
200.105	3.336	feeling_mouse_trajectory	829	540	Slaying of kin unrecognized	beach	Audio	n/a
203.563	3.867	rating_expectation	823	526	Slaying of kin unrecognized	beach	Audio	n/a
204.579	2.85	expectation_mouse_trajectory	823	526	Slaying of kin unrecognized	beach	Audio	n/a
209.633	54.289	narrative_presentation	n/a	n/a	Deliverance	prison	Audio	task-narratives/Narrative7Situation1.mp3
263.921	2.135	rating_feeling	596	445	Deliverance	prison	Audio	n/a
264.521	1.535	feeling_mouse_trajectory	596	445	Deliverance	prison	Audio	n/a
267.953	1.885	rating_expectation	617	458	Deliverance	prison	Audio	n/a
268.053	1.785	expectation_mouse_trajectory	617	458	Deliverance	prison	Audio	n/a
275.007	5.947	narrative_presentation	n/a	n/a	Adultery	prison	Audio	task-narratives/Narrative7Situation2.mp3
280.954	3.939	rating_feeling	1000	601	Adultery	prison	Audio	n/a
281.587	3.306	feeling_mouse_trajectory	1000	601	Adultery	prison	Audio	n/a
284.979	2.204	rating_expectation	1019	509	Adultery	prison	Audio	n/a
285.563	1.621	expectation_mouse_trajectory	1019	509	Adultery	prison	Audio	n/a
297.033	7.442	narrative_presentation	n/a	n/a	Pursuit	prison	Audio	task-narratives/Narrative7Situation3.mp3
304.475	3.986	rating_feeling	1097	569	Pursuit	prison	Audio	n/a
305.492	2.969	feeling_mouse_trajectory	1097	569	Pursuit	prison	Audio	n/a
308.501	0.017	rating_expectation	960	707	Pursuit	prison	Audio	n/a
308.551	-0.033	expectation_mouse_trajectory	960	707	Pursuit	prison	Audio	n/a
315.572	11.484	narrative_presentation	n/a	n/a	Conflict with a god	park	Audio	task-narratives/Narrative7Situation4.mp3
327.056	3.322	rating_feeling	1028	476	Conflict with a god	park	Audio	n/a
327.806	2.572	feeling_mouse_trajectory	1028	476	Conflict with a god	park	Audio	n/a
331.096	2.12	rating_expectation	766	485	Conflict with a god	park	Audio	n/a
332.213	1.004	expectation_mouse_trajectory	766	485	Conflict with a god	park	Audio	n/a
340.148	7.977	narrative_presentation	n/a	n/a	Recovery of a lost one	park	Audio	task-narratives/Narrative7Situation5.mp3
348.125	2.618	rating_feeling	816	549	Recovery of a lost one	park	Audio	n/a
348.608	2.135	feeling_mouse_trajectory	816	549	Recovery of a lost one	park	Audio	n/a
352.15	2.151	rating_expectation	697	540	Recovery of a lost one	park	Audio	n/a
352.417	1.885	expectation_mouse_trajectory	697	540	Recovery of a lost one	park	Audio	n/a
359.206	8.778	narrative_presentation	n/a	n/a	Supplication	park	Audio	task-narratives/Narrative7Situation6.mp3
367.984	2.607	rating_feeling	908	563	Supplication	park	Audio	n/a
368.65	1.94	feeling_mouse_trajectory	908	563	Supplication	park	Audio	n/a
372.013	1.405	rating_expectation	676	509	Supplication	park	Audio	n/a
372.413	1.005	expectation_mouse_trajectory	676	509	Supplication	park	Audio	n/a
381.098	16.648	narrative_presentation	n/a	n/a	Involuntary crimes of love	hospital	Audio	task-narratives/Narrative7Situation7.mp3
397.746	2.568	rating_feeling	794	558	Involuntary crimes of love	hospital	Audio	n/a
398.929	1.385	feeling_mouse_trajectory	794	558	Involuntary crimes of love	hospital	Audio	n/a
401.769	2.151	rating_expectation	578	534	Involuntary crimes of love	hospital	Audio	n/a
402.152	1.768	expectation_mouse_trajectory	578	534	Involuntary crimes of love	hospital	Audio	n/a
407.824	8.785	narrative_presentation	n/a	n/a	An enemy loved	hospital	Audio	task-narratives/Narrative7Situation8.mp3
416.609	1.589	rating_feeling	798	547	An enemy loved	hospital	Audio	n/a
417.476	0.722	feeling_mouse_trajectory	798	547	An enemy loved	hospital	Audio	n/a
420.646	2.237	rating_expectation	592	453	An enemy loved	hospital	Audio	n/a
421.463	1.42	expectation_mouse_trajectory	592	453	An enemy loved	hospital	Audio	n/a
426.698	7.978	narrative_presentation	n/a	n/a	Ambition	hospital	Audio	task-narratives/Narrative7Situation9.mp3
434.677	2.835	rating_feeling	930	588	Ambition	hospital	Audio	n/a
435.994	1.518	feeling_mouse_trajectory	930	588	Ambition	hospital	Audio	n/a
438.7	1.984	rating_expectation	582	450	Ambition	hospital	Audio	n/a
439.1	1.584	expectation_mouse_trajectory	582	450	Ambition	hospital	Audio	n/a
