onset	duration	run_type	trial_type	trial_index	cue	stimulusintensity	rating_value	rating_glmslabel	rating_value_fillna	rating_glmslabel_fillna	rating_mouseonset	rating_mousedur	stim_file	pain_onset_ttl1	pain_onset_ttl2	pain_onset_ttl3	pain_onset_ttl4	pain_stimulus_delivery_success	cognitive_correct_response	cognitive_participant_response	cognitive_response_accuracy
11.3	0.99	cognitive	cue	1	high_cue	n/a	n/a	n/a	n/a	n/a	n/a	n/a	n/a	n/a	n/a	n/a	n/a	n/a	n/a	n/a	n/a
14.22	n/a	cognitive	expectrating	1	high_cue	n/a	n/a	n/a	71.49	Very Strong	0.05	2.42	task-social/cue/runtype-cognitive/sch/h035.png	n/a	n/a	n/a	n/a	n/a	n/a	n/a	n/a
21.31	5.0	cognitive	stimulus	1	high_cue	high_stim	n/a	n/a	n/a	n/a	n/a	n/a	task-social/stim/runtype-cognitive/14_150.jpg	n/a	n/a	n/a	n/a	n/a	same	diff	False
32.71	n/a	cognitive	outcomerating	1	high_cue	high_stim	n/a	n/a	91.4	Very Strong	0.33	2.38	task-social/outcomerating/task-cognitive_scale.png	n/a	n/a	n/a	n/a	n/a	n/a	n/a	n/a
44.3	0.99	cognitive	cue	2	low_cue	n/a	n/a	n/a	n/a	n/a	n/a	n/a	n/a	n/a	n/a	n/a	n/a	n/a	n/a	n/a	n/a
47.2	n/a	cognitive	expectrating	2	low_cue	n/a	n/a	n/a	52.17	Strong	0.15	0.65	task-social/cue/runtype-cognitive/scl/l047.png	n/a	n/a	n/a	n/a	n/a	n/a	n/a	n/a
61.41	5.0	cognitive	stimulus	2	low_cue	high_stim	n/a	n/a	n/a	n/a	n/a	n/a	task-social/stim/runtype-cognitive/14_150_R.jpg	n/a	n/a	n/a	n/a	n/a	diff	diff	True
70.71	n/a	cognitive	outcomerating	2	low_cue	high_stim	n/a	n/a	29.17	Strong	0.05	1.63	task-social/outcomerating/task-cognitive_scale.png	n/a	n/a	n/a	n/a	n/a	n/a	n/a	n/a
80.7	0.99	cognitive	cue	3	high_cue	n/a	n/a	n/a	n/a	n/a	n/a	n/a	n/a	n/a	n/a	n/a	n/a	n/a	n/a	n/a	n/a
83.71	n/a	cognitive	expectrating	3	high_cue	n/a	n/a	n/a	78.55	Very Strong	0.33	0.77	task-social/cue/runtype-cognitive/sch/h010.png	n/a	n/a	n/a	n/a	n/a	n/a	n/a	n/a
92.0	5.0	cognitive	stimulus	3	high_cue	high_stim	n/a	n/a	n/a	n/a	n/a	n/a	task-social/stim/runtype-cognitive/35_150_R.jpg	n/a	n/a	n/a	n/a	n/a	diff	diff	True
100.6	n/a	cognitive	outcomerating	3	high_cue	high_stim	n/a	n/a	117.8	Strongest sensation of any kind	0.52	1.93	task-social/outcomerating/task-cognitive_scale.png	n/a	n/a	n/a	n/a	n/a	n/a	n/a	n/a
105.61	0.98	cognitive	cue	4	low_cue	n/a	n/a	n/a	n/a	n/a	n/a	n/a	n/a	n/a	n/a	n/a	n/a	n/a	n/a	n/a	n/a
107.41	n/a	cognitive	expectrating	4	low_cue	n/a	n/a	n/a	31.2	Strong	0.58	3.17	task-social/cue/runtype-cognitive/scl/l022.png	n/a	n/a	n/a	n/a	n/a	n/a	n/a	n/a
114.51	5.0	cognitive	stimulus	4	low_cue	med_stim	n/a	n/a	n/a	n/a	n/a	n/a	task-social/stim/runtype-cognitive/26_100_R.jpg	n/a	n/a	n/a	n/a	n/a	diff	diff	True
126.11	n/a	cognitive	outcomerating	4	low_cue	med_stim	n/a	n/a	50.23	Strong	1.4	0.23	task-social/outcomerating/task-cognitive_scale.png	n/a	n/a	n/a	n/a	n/a	n/a	n/a	n/a
133.8	0.99	cognitive	cue	5	high_cue	n/a	n/a	n/a	n/a	n/a	n/a	n/a	n/a	n/a	n/a	n/a	n/a	n/a	n/a	n/a	n/a
135.6	n/a	cognitive	expectrating	5	high_cue	n/a	n/a	n/a	49.09	Strong	1.28	2.23	task-social/cue/runtype-cognitive/sch/h049.png	n/a	n/a	n/a	n/a	n/a	n/a	n/a	n/a
147.9	5.0	cognitive	stimulus	5	high_cue	low_stim	n/a	n/a	n/a	n/a	n/a	n/a	task-social/stim/runtype-cognitive/28_50.jpg	n/a	n/a	n/a	n/a	n/a	same	same	True
159.51	n/a	cognitive	outcomerating	5	high_cue	low_stim	n/a	n/a	13.25	Moderate	0.53	0.53	task-social/outcomerating/task-cognitive_scale.png	n/a	n/a	n/a	n/a	n/a	n/a	n/a	n/a
169.5	0.99	cognitive	cue	6	high_cue	n/a	n/a	n/a	n/a	n/a	n/a	n/a	n/a	n/a	n/a	n/a	n/a	n/a	n/a	n/a	n/a
172.41	n/a	cognitive	expectrating	6	high_cue	n/a	n/a	n/a	60.14	Strong	0.15	1.03	task-social/cue/runtype-cognitive/sch/h034.png	n/a	n/a	n/a	n/a	n/a	n/a	n/a	n/a
186.9	5.0	cognitive	stimulus	6	high_cue	med_stim	n/a	n/a	n/a	n/a	n/a	n/a	task-social/stim/runtype-cognitive/22_100.jpg	n/a	n/a	n/a	n/a	n/a	same	same	True
196.71	n/a	cognitive	outcomerating	6	high_cue	med_stim	n/a	n/a	41.08	Strong	0.82	1.72	task-social/outcomerating/task-cognitive_scale.png	n/a	n/a	n/a	n/a	n/a	n/a	n/a	n/a
204.41	0.98	cognitive	cue	7	low_cue	n/a	n/a	n/a	n/a	n/a	n/a	n/a	n/a	n/a	n/a	n/a	n/a	n/a	n/a	n/a	n/a
207.31	n/a	cognitive	expectrating	7	low_cue	n/a	n/a	n/a	16.86	Moderate	0.05	1.2	task-social/cue/runtype-cognitive/scl/l030.png	n/a	n/a	n/a	n/a	n/a	n/a	n/a	n/a
218.41	5.0	cognitive	stimulus	7	low_cue	high_stim	n/a	n/a	n/a	n/a	n/a	n/a	task-social/stim/runtype-cognitive/7_150.jpg	n/a	n/a	n/a	n/a	n/a	same	same	True
228.42	n/a	cognitive	outcomerating	7	low_cue	high_stim	n/a	n/a	69.39	Very Strong	0.35	1.05	task-social/outcomerating/task-cognitive_scale.png	n/a	n/a	n/a	n/a	n/a	n/a	n/a	n/a
234.3	0.99	cognitive	cue	8	high_cue	n/a	n/a	n/a	n/a	n/a	n/a	n/a	n/a	n/a	n/a	n/a	n/a	n/a	n/a	n/a	n/a
236.2	n/a	cognitive	expectrating	8	high_cue	n/a	n/a	n/a	66.32	Very Strong	0.6	1.37	task-social/cue/runtype-cognitive/sch/h045.png	n/a	n/a	n/a	n/a	n/a	n/a	n/a	n/a
244.91	5.0	cognitive	stimulus	8	high_cue	low_stim	n/a	n/a	n/a	n/a	n/a	n/a	task-social/stim/runtype-cognitive/22_50.jpg	n/a	n/a	n/a	n/a	n/a	same	same	True
255.71	n/a	cognitive	outcomerating	8	high_cue	low_stim	n/a	n/a	8.52	Weak	0.13	1.6	task-social/outcomerating/task-cognitive_scale.png	n/a	n/a	n/a	n/a	n/a	n/a	n/a	n/a
266.7	0.99	cognitive	cue	9	low_cue	n/a	n/a	n/a	n/a	n/a	n/a	n/a	n/a	n/a	n/a	n/a	n/a	n/a	n/a	n/a	n/a
268.5	n/a	cognitive	expectrating	9	low_cue	n/a	n/a	n/a	49.66	Strong	0.15	1.13	task-social/cue/runtype-cognitive/scl/l002.png	n/a	n/a	n/a	n/a	n/a	n/a	n/a	n/a
280.8	5.0	cognitive	stimulus	9	low_cue	low_stim	n/a	n/a	n/a	n/a	n/a	n/a	task-social/stim/runtype-cognitive/44_50.jpg	n/a	n/a	n/a	n/a	n/a	same	same	True
289.01	n/a	cognitive	outcomerating	9	low_cue	low_stim	n/a	n/a	26.77	Moderate	0.6	3.18	task-social/outcomerating/task-cognitive_scale.png	n/a	n/a	n/a	n/a	n/a	n/a	n/a	n/a
294.81	0.98	cognitive	cue	10	high_cue	n/a	n/a	n/a	n/a	n/a	n/a	n/a	n/a	n/a	n/a	n/a	n/a	n/a	n/a	n/a	n/a
297.31	n/a	cognitive	expectrating	10	high_cue	n/a	n/a	n/a	69.41	Very Strong	2.67	2.77	task-social/cue/runtype-cognitive/sch/h008.png	n/a	n/a	n/a	n/a	n/a	n/a	n/a	n/a
307.9	5.0	cognitive	stimulus	10	high_cue	med_stim	n/a	n/a	n/a	n/a	n/a	n/a	task-social/stim/runtype-cognitive/7_100_R.jpg	n/a	n/a	n/a	n/a	n/a	diff	diff	True
317.2	n/a	cognitive	outcomerating	10	high_cue	med_stim	n/a	n/a	35.03	Strong	0.05	2.05	task-social/outcomerating/task-cognitive_scale.png	n/a	n/a	n/a	n/a	n/a	n/a	n/a	n/a
327.11	0.99	cognitive	cue	11	low_cue	n/a	n/a	n/a	n/a	n/a	n/a	n/a	n/a	n/a	n/a	n/a	n/a	n/a	n/a	n/a	n/a
330.01	n/a	cognitive	expectrating	11	low_cue	n/a	n/a	n/a	41.92	Strong	0.12	3.4	task-social/cue/runtype-cognitive/scl/l027.png	n/a	n/a	n/a	n/a	n/a	n/a	n/a	n/a
342.91	5.0	cognitive	stimulus	11	low_cue	med_stim	n/a	n/a	n/a	n/a	n/a	n/a	task-social/stim/runtype-cognitive/19_100.jpg	n/a	n/a	n/a	n/a	n/a	same	same	True
361.52	n/a	cognitive	outcomerating	11	low_cue	med_stim	n/a	n/a	31.13	Strong	0.87	2.27	task-social/outcomerating/task-cognitive_scale.png	n/a	n/a	n/a	n/a	n/a	n/a	n/a	n/a
366.5	0.99	cognitive	cue	12	low_cue	n/a	n/a	n/a	n/a	n/a	n/a	n/a	n/a	n/a	n/a	n/a	n/a	n/a	n/a	n/a	n/a
369.4	n/a	cognitive	expectrating	12	low_cue	n/a	n/a	n/a	35.62	Strong	0.33	0.98	task-social/cue/runtype-cognitive/scl/l014.png	n/a	n/a	n/a	n/a	n/a	n/a	n/a	n/a
376.21	5.0	cognitive	stimulus	12	low_cue	low_stim	n/a	n/a	n/a	n/a	n/a	n/a	task-social/stim/runtype-cognitive/28_50_R.jpg	n/a	n/a	n/a	n/a	n/a	diff	diff	True
394.81	n/a	cognitive	outcomerating	12	low_cue	low_stim	n/a	n/a	18.73	Moderate	0.67	2.28	task-social/outcomerating/task-cognitive_scale.png	n/a	n/a	n/a	n/a	n/a	n/a	n/a	n/a
