onset	duration	run_type	trial_type	trial_index	cue	stimulusintensity	rating_value	rating_glmslabel	rating_value_fillna	rating_glmslabel_fillna	rating_mouseonset	rating_mousedur	stim_file	pain_onset_ttl1	pain_onset_ttl2	pain_onset_ttl3	pain_onset_ttl4	pain_stimulus_delivery_success	cognitive_correct_response	cognitive_participant_response	cognitive_response_accuracy
3.39	1.0	pain	cue	1	low_cue	n/a	n/a	n/a	n/a	n/a	n/a	n/a	task-social/cue/runtype-pain/scl/l022.png	n/a	n/a	n/a	n/a	n/a	n/a	n/a	n/a
6.11	n/a	pain	expectrating	1	low_cue	n/a	n/a	n/a	62.03	Strong	0.05	0.78	task-social/cue/runtype-pain/scl/l022.png	n/a	n/a	n/a	n/a	n/a	n/a	n/a	n/a
16.55	12.82	pain	stimulus	1	low_cue	high_stim	n/a	n/a	n/a	n/a	n/a	n/a	n/a	16.55	20.56	25.56	29.37	success	n/a	n/a	n/a
32.6	n/a	pain	outcomerating	1	low_cue	high_stim	n/a	n/a	86.09	Very-Strong	0.05	0.78	task-social/outcomerating/task-pain_scale.png	n/a	n/a	n/a	n/a	success	n/a	n/a	n/a
45.99	1.0	pain	cue	2	high_cue	n/a	n/a	n/a	n/a	n/a	n/a	n/a	task-social/cue/runtype-pain/sch/h047.png	n/a	n/a	n/a	n/a	n/a	n/a	n/a	n/a
49.11	n/a	pain	expectrating	2	high_cue	n/a	n/a	n/a	92.07	Very-Strong	0.05	1.37	task-social/cue/runtype-pain/sch/h047.png	n/a	n/a	n/a	n/a	n/a	n/a	n/a	n/a
57.65	12.360000000000007	pain	stimulus	2	high_cue	med_stim	n/a	n/a	n/a	n/a	n/a	n/a	n/a	57.65	61.41	66.41	70.02	success	n/a	n/a	n/a
76.0	n/a	pain	outcomerating	2	high_cue	med_stim	n/a	n/a	68.29	Very-Strong	0.05	1.37	task-social/outcomerating/task-pain_scale.png	n/a	n/a	n/a	n/a	success	n/a	n/a	n/a
80.7	1.0	pain	cue	3	low_cue	n/a	n/a	n/a	n/a	n/a	n/a	n/a	task-social/cue/runtype-pain/scl/l014.png	n/a	n/a	n/a	n/a	n/a	n/a	n/a	n/a
83.8	n/a	pain	expectrating	3	low_cue	n/a	n/a	n/a	48.33	Strong	0.63	3.67	task-social/cue/runtype-pain/scl/l014.png	n/a	n/a	n/a	n/a	n/a	n/a	n/a	n/a
88.34	11.909999999999997	pain	stimulus	3	low_cue	low_stim	n/a	n/a	n/a	n/a	n/a	n/a	n/a	88.34	91.84	96.84	100.24	success	n/a	n/a	n/a
97.81	n/a	pain	outcomerating	3	low_cue	low_stim	n/a	n/a	63.02	Strong	0.63	3.67	task-social/outcomerating/task-pain_scale.png	n/a	n/a	n/a	n/a	success	n/a	n/a	n/a
110.3	1.0	pain	cue	4	low_cue	n/a	n/a	n/a	n/a	n/a	n/a	n/a	task-social/cue/runtype-pain/scl/l042.png	n/a	n/a	n/a	n/a	n/a	n/a	n/a	n/a
111.8	n/a	pain	expectrating	4	low_cue	n/a	n/a	n/a	50.05	Strong	1.28	1.73	task-social/cue/runtype-pain/scl/l042.png	n/a	n/a	n/a	n/a	n/a	n/a	n/a	n/a
116.64	11.899999999999991	pain	stimulus	4	low_cue	low_stim	n/a	n/a	n/a	n/a	n/a	n/a	n/a	116.64	120.14	125.14	128.54	success	n/a	n/a	n/a
134.71	n/a	pain	outcomerating	4	low_cue	low_stim	n/a	n/a	63.12	Strong	1.28	1.73	task-social/outcomerating/task-pain_scale.png	n/a	n/a	n/a	n/a	success	n/a	n/a	n/a
143.79	1.0	pain	cue	5	high_cue	n/a	n/a	n/a	n/a	n/a	n/a	n/a	task-social/cue/runtype-pain/sch/h031.png	n/a	n/a	n/a	n/a	n/a	n/a	n/a	n/a
146.91	n/a	pain	expectrating	5	high_cue	n/a	n/a	n/a	94.86	Very-Strong	0.13	0.82	task-social/cue/runtype-pain/sch/h031.png	n/a	n/a	n/a	n/a	n/a	n/a	n/a	n/a
154.62	11.909999999999997	pain	stimulus	5	high_cue	low_stim	n/a	n/a	n/a	n/a	n/a	n/a	n/a	154.62	158.12	163.12	166.52	success	n/a	n/a	n/a
166.6	n/a	pain	outcomerating	5	high_cue	low_stim	n/a	n/a	41.87	Strong	0.13	0.82	task-social/outcomerating/task-pain_scale.png	n/a	n/a	n/a	n/a	success	n/a	n/a	n/a
171.3	1.0	pain	cue	6	high_cue	n/a	n/a	n/a	n/a	n/a	n/a	n/a	task-social/cue/runtype-pain/sch/h003.png	n/a	n/a	n/a	n/a	n/a	n/a	n/a	n/a
173.3	n/a	pain	expectrating	6	high_cue	n/a	n/a	n/a	62.09	Strong	0.4	1.0	task-social/cue/runtype-pain/sch/h003.png	n/a	n/a	n/a	n/a	n/a	n/a	n/a	n/a
177.82	12.360000000000014	pain	stimulus	6	high_cue	med_stim	n/a	n/a	n/a	n/a	n/a	n/a	n/a	177.82	181.58	186.58	190.19	success	n/a	n/a	n/a
189.59	n/a	pain	outcomerating	6	high_cue	med_stim	n/a	n/a	73.23	Very-Strong	0.4	1.0	task-social/outcomerating/task-pain_scale.png	n/a	n/a	n/a	n/a	success	n/a	n/a	n/a
201.1	1.0	pain	cue	7	high_cue	n/a	n/a	n/a	n/a	n/a	n/a	n/a	task-social/cue/runtype-pain/sch/h030.png	n/a	n/a	n/a	n/a	n/a	n/a	n/a	n/a
203.1	n/a	pain	expectrating	7	high_cue	n/a	n/a	n/a	76.58	Very-Strong	0.33	2.1	task-social/cue/runtype-pain/sch/h030.png	n/a	n/a	n/a	n/a	n/a	n/a	n/a	n/a
214.15	11.900000000000006	pain	stimulus	7	high_cue	low_stim	n/a	n/a	n/a	n/a	n/a	n/a	n/a	214.15	217.65	222.65	226.05	success	n/a	n/a	n/a
226.71	n/a	pain	outcomerating	7	high_cue	low_stim	n/a	n/a	60.2	Strong	0.33	2.1	task-social/outcomerating/task-pain_scale.png	n/a	n/a	n/a	n/a	success	n/a	n/a	n/a
234.79	1.0	pain	cue	8	low_cue	n/a	n/a	n/a	n/a	n/a	n/a	n/a	task-social/cue/runtype-pain/scl/l047.png	n/a	n/a	n/a	n/a	n/a	n/a	n/a	n/a
237.29	n/a	pain	expectrating	8	low_cue	n/a	n/a	n/a	24.6	Moderate	1.1	2.78	task-social/cue/runtype-pain/scl/l047.png	n/a	n/a	n/a	n/a	n/a	n/a	n/a	n/a
249.32	12.819999999999993	pain	stimulus	8	low_cue	high_stim	n/a	n/a	n/a	n/a	n/a	n/a	n/a	249.32	253.33	258.33	262.14	success	n/a	n/a	n/a
260.4	n/a	pain	outcomerating	8	low_cue	high_stim	n/a	n/a	97.96	Very-Strong	1.1	2.78	task-social/outcomerating/task-pain_scale.png	n/a	n/a	n/a	n/a	success	n/a	n/a	n/a
265.1	0.98	pain	cue	9	low_cue	n/a	n/a	n/a	n/a	n/a	n/a	n/a	task-social/cue/runtype-pain/scl/l051.png	n/a	n/a	n/a	n/a	n/a	n/a	n/a	n/a
268.21	n/a	pain	expectrating	9	low_cue	n/a	n/a	n/a	108.06	Strongest-sensation-of-any-kind	0.28	0.73	task-social/cue/runtype-pain/scl/l051.png	n/a	n/a	n/a	n/a	n/a	n/a	n/a	n/a
277.94	12.360000000000014	pain	stimulus	9	low_cue	med_stim	n/a	n/a	n/a	n/a	n/a	n/a	n/a	277.94	281.7	286.7	290.31	success	n/a	n/a	n/a
290.0	n/a	pain	outcomerating	9	low_cue	med_stim	n/a	n/a	76.08	Very-Strong	0.28	0.73	task-social/outcomerating/task-pain_scale.png	n/a	n/a	n/a	n/a	success	n/a	n/a	n/a
295.5	1.0	pain	cue	10	low_cue	n/a	n/a	n/a	n/a	n/a	n/a	n/a	task-social/cue/runtype-pain/scl/l033.png	n/a	n/a	n/a	n/a	n/a	n/a	n/a	n/a
297.4	n/a	pain	expectrating	10	low_cue	n/a	n/a	n/a	73.23	Very-Strong	0.35	1.2	task-social/cue/runtype-pain/scl/l033.png	n/a	n/a	n/a	n/a	n/a	n/a	n/a	n/a
309.12	12.360000000000014	pain	stimulus	10	low_cue	med_stim	n/a	n/a	n/a	n/a	n/a	n/a	n/a	309.12	312.88	317.88	321.49	success	n/a	n/a	n/a
321.69	n/a	pain	outcomerating	10	low_cue	med_stim	n/a	n/a	71.57	Very-Strong	0.35	1.2	task-social/outcomerating/task-pain_scale.png	n/a	n/a	n/a	n/a	success	n/a	n/a	n/a
337.9	1.0	pain	cue	11	high_cue	n/a	n/a	n/a	n/a	n/a	n/a	n/a	task-social/cue/runtype-pain/sch/h037.png	n/a	n/a	n/a	n/a	n/a	n/a	n/a	n/a
340.6	n/a	pain	expectrating	11	high_cue	n/a	n/a	n/a	n/a	n/a	n/a	n/a	task-social/cue/runtype-pain/sch/h037.png	n/a	n/a	n/a	n/a	n/a	n/a	n/a	n/a
346.03	12.82000000000005	pain	stimulus	11	high_cue	high_stim	n/a	n/a	n/a	n/a	n/a	n/a	n/a	346.03	350.04	355.04	358.85	success	n/a	n/a	n/a
355.5	n/a	pain	outcomerating	11	high_cue	high_stim	n/a	n/a	111.76	Strongest-sensation-of-any-kind	n/a	n/a	task-social/outcomerating/task-pain_scale.png	n/a	n/a	n/a	n/a	success	n/a	n/a	n/a
362.59	1.0	pain	cue	12	high_cue	n/a	n/a	n/a	n/a	n/a	n/a	n/a	task-social/cue/runtype-pain/sch/h001.png	n/a	n/a	n/a	n/a	n/a	n/a	n/a	n/a
364.81	n/a	pain	expectrating	12	high_cue	n/a	n/a	n/a	85.6	Very-Strong	0.57	0.68	task-social/cue/runtype-pain/sch/h001.png	n/a	n/a	n/a	n/a	n/a	n/a	n/a	n/a
376.52	12.819999999999993	pain	stimulus	12	high_cue	high_stim	n/a	n/a	n/a	n/a	n/a	n/a	n/a	376.52	380.53	385.53	389.34	success	n/a	n/a	n/a
394.6	n/a	pain	outcomerating	12	high_cue	high_stim	n/a	n/a	73.86	Very-Strong	0.57	0.68	task-social/outcomerating/task-pain_scale.png	n/a	n/a	n/a	n/a	success	n/a	n/a	n/a
