onset	duration	run_type	trial_type	trial_index	cue	stimulusintensity	rating_value	rating_glmslabel	rating_value_fillna	rating_glmslabel_fillna	rating_mouseonset	rating_mousedur	stim_file	pain_onset_ttl1	pain_onset_ttl2	pain_onset_ttl3	pain_onset_ttl4	pain_stimulus_delivery_success	cognitive_correct_response	cognitive_participant_response	cognitive_response_accuracy
9.79	0.99	cognitive	cue	1	high_cue	n/a	n/a	n/a	n/a	n/a	n/a	n/a	n/a	n/a	n/a	n/a	n/a	n/a	n/a	n/a	n/a
12.51	n/a	cognitive	expectrating	1	high_cue	n/a	n/a	n/a	70.89	Very Strong	0.05	1.32	task-social/cue/runtype-cognitive/sch/h051.png	n/a	n/a	n/a	n/a	n/a	n/a	n/a	n/a
24.19	5.0	cognitive	stimulus	1	high_cue	med_stim	n/a	n/a	n/a	n/a	n/a	n/a	task-social/stim/runtype-cognitive/14_100.jpg	n/a	n/a	n/a	n/a	n/a	same	same	True
33.0	n/a	cognitive	outcomerating	1	high_cue	med_stim	n/a	n/a	33.1	Strong	0.05	1.25	task-social/outcomerating/task-cognitive_scale.png	n/a	n/a	n/a	n/a	n/a	n/a	n/a	n/a
41.5	0.98	cognitive	cue	2	high_cue	n/a	n/a	n/a	n/a	n/a	n/a	n/a	n/a	n/a	n/a	n/a	n/a	n/a	n/a	n/a	n/a
43.0	n/a	cognitive	expectrating	2	high_cue	n/a	n/a	n/a	74.18	Very Strong	0.35	0.88	task-social/cue/runtype-cognitive/sch/h023.png	n/a	n/a	n/a	n/a	n/a	n/a	n/a	n/a
51.1	5.0	cognitive	stimulus	2	high_cue	high_stim	n/a	n/a	n/a	n/a	n/a	n/a	task-social/stim/runtype-cognitive/28_150.jpg	n/a	n/a	n/a	n/a	n/a	same	same	True
59.49	n/a	cognitive	outcomerating	2	high_cue	high_stim	n/a	n/a	27.5	Moderate	0.35	0.18	task-social/outcomerating/task-cognitive_scale.png	n/a	n/a	n/a	n/a	n/a	n/a	n/a	n/a
67.39	0.99	cognitive	cue	3	low_cue	n/a	n/a	n/a	n/a	n/a	n/a	n/a	n/a	n/a	n/a	n/a	n/a	n/a	n/a	n/a	n/a
69.49	n/a	cognitive	expectrating	3	low_cue	n/a	n/a	n/a	25.11	Moderate	0.05	1.42	task-social/cue/runtype-cognitive/scl/l013.png	n/a	n/a	n/a	n/a	n/a	n/a	n/a	n/a
77.7	5.0	cognitive	stimulus	3	low_cue	high_stim	n/a	n/a	n/a	n/a	n/a	n/a	task-social/stim/runtype-cognitive/28_150_R.jpg	n/a	n/a	n/a	n/a	n/a	diff	diff	True
87.5	n/a	cognitive	outcomerating	3	low_cue	high_stim	n/a	n/a	32.11	Strong	0.37	0.72	task-social/outcomerating/task-cognitive_scale.png	n/a	n/a	n/a	n/a	n/a	n/a	n/a	n/a
96.79	0.99	cognitive	cue	4	high_cue	n/a	n/a	n/a	n/a	n/a	n/a	n/a	n/a	n/a	n/a	n/a	n/a	n/a	n/a	n/a	n/a
100.69	n/a	cognitive	expectrating	4	high_cue	n/a	n/a	n/a	65.46	Very Strong	0.65	1.98	task-social/cue/runtype-cognitive/sch/h006.png	n/a	n/a	n/a	n/a	n/a	n/a	n/a	n/a
110.89	5.0	cognitive	stimulus	4	high_cue	low_stim	n/a	n/a	n/a	n/a	n/a	n/a	task-social/stim/runtype-cognitive/44_50_R.jpg	n/a	n/a	n/a	n/a	n/a	diff	diff	True
119.3	n/a	cognitive	outcomerating	4	high_cue	low_stim	n/a	n/a	52.76	Strong	0.47	1.17	task-social/outcomerating/task-cognitive_scale.png	n/a	n/a	n/a	n/a	n/a	n/a	n/a	n/a
128.4	0.98	cognitive	cue	5	high_cue	n/a	n/a	n/a	n/a	n/a	n/a	n/a	n/a	n/a	n/a	n/a	n/a	n/a	n/a	n/a	n/a
132.3	n/a	cognitive	expectrating	5	high_cue	n/a	n/a	n/a	52.99	Strong	0.65	2.97	task-social/cue/runtype-cognitive/sch/h003.png	n/a	n/a	n/a	n/a	n/a	n/a	n/a	n/a
147.01	5.0	cognitive	stimulus	5	high_cue	med_stim	n/a	n/a	n/a	n/a	n/a	n/a	task-social/stim/runtype-cognitive/27_100.jpg	n/a	n/a	n/a	n/a	n/a	same	same	True
156.81	n/a	cognitive	outcomerating	5	high_cue	med_stim	n/a	n/a	33.18	Strong	0.4	2.12	task-social/outcomerating/task-cognitive_scale.png	n/a	n/a	n/a	n/a	n/a	n/a	n/a	n/a
171.0	0.98	cognitive	cue	6	low_cue	n/a	n/a	n/a	n/a	n/a	n/a	n/a	n/a	n/a	n/a	n/a	n/a	n/a	n/a	n/a	n/a
174.9	n/a	cognitive	expectrating	6	low_cue	n/a	n/a	n/a	28.63	Moderate	0.67	2.32	task-social/cue/runtype-cognitive/scl/l012.png	n/a	n/a	n/a	n/a	n/a	n/a	n/a	n/a
181.79	5.0	cognitive	stimulus	6	low_cue	low_stim	n/a	n/a	n/a	n/a	n/a	n/a	task-social/stim/runtype-cognitive/22_50_R.jpg	n/a	n/a	n/a	n/a	n/a	diff	diff	True
191.69	n/a	cognitive	outcomerating	6	low_cue	low_stim	n/a	n/a	11.68	Moderate	0.58	2.38	task-social/outcomerating/task-cognitive_scale.png	n/a	n/a	n/a	n/a	n/a	n/a	n/a	n/a
198.29	0.99	cognitive	cue	7	low_cue	n/a	n/a	n/a	n/a	n/a	n/a	n/a	n/a	n/a	n/a	n/a	n/a	n/a	n/a	n/a	n/a
199.79	n/a	cognitive	expectrating	7	low_cue	n/a	n/a	n/a	21.42	Moderate	0.35	3.73	task-social/cue/runtype-cognitive/scl/l055.png	n/a	n/a	n/a	n/a	n/a	n/a	n/a	n/a
210.1	5.0	cognitive	stimulus	7	low_cue	med_stim	n/a	n/a	n/a	n/a	n/a	n/a	task-social/stim/runtype-cognitive/27_100_R.jpg	n/a	n/a	n/a	n/a	n/a	diff	diff	True
228.9	n/a	cognitive	outcomerating	7	low_cue	med_stim	n/a	n/a	23.77	Moderate	0.5	1.7	task-social/outcomerating/task-cognitive_scale.png	n/a	n/a	n/a	n/a	n/a	n/a	n/a	n/a
234.89	0.99	cognitive	cue	8	low_cue	n/a	n/a	n/a	n/a	n/a	n/a	n/a	n/a	n/a	n/a	n/a	n/a	n/a	n/a	n/a	n/a
236.99	n/a	cognitive	expectrating	8	low_cue	n/a	n/a	n/a	24.2	Moderate	0.1	1.87	task-social/cue/runtype-cognitive/scl/l005.png	n/a	n/a	n/a	n/a	n/a	n/a	n/a	n/a
246.29	5.0	cognitive	stimulus	8	low_cue	med_stim	n/a	n/a	n/a	n/a	n/a	n/a	task-social/stim/runtype-cognitive/28_100_R.jpg	n/a	n/a	n/a	n/a	n/a	diff	diff	True
256.2	n/a	cognitive	outcomerating	8	low_cue	med_stim	n/a	n/a	9.95	Weak	0.68	0.58	task-social/outcomerating/task-cognitive_scale.png	n/a	n/a	n/a	n/a	n/a	n/a	n/a	n/a
262.2	0.98	cognitive	cue	9	high_cue	n/a	n/a	n/a	n/a	n/a	n/a	n/a	n/a	n/a	n/a	n/a	n/a	n/a	n/a	n/a	n/a
264.9	n/a	cognitive	expectrating	9	high_cue	n/a	n/a	n/a	45.87	Strong	1.48	2.23	task-social/cue/runtype-cognitive/sch/h040.png	n/a	n/a	n/a	n/a	n/a	n/a	n/a	n/a
274.19	5.0	cognitive	stimulus	9	high_cue	high_stim	n/a	n/a	n/a	n/a	n/a	n/a	task-social/stim/runtype-cognitive/26_150.jpg	n/a	n/a	n/a	n/a	n/a	same	same	True
285.81	n/a	cognitive	outcomerating	9	high_cue	high_stim	n/a	n/a	61.79	Strong	0.42	2.43	task-social/outcomerating/task-cognitive_scale.png	n/a	n/a	n/a	n/a	n/a	n/a	n/a	n/a
291.09	0.99	cognitive	cue	10	low_cue	n/a	n/a	n/a	n/a	n/a	n/a	n/a	n/a	n/a	n/a	n/a	n/a	n/a	n/a	n/a	n/a
293.29	n/a	cognitive	expectrating	10	low_cue	n/a	n/a	n/a	23.94	Moderate	0.88	3.68	task-social/cue/runtype-cognitive/scl/l019.png	n/a	n/a	n/a	n/a	n/a	n/a	n/a	n/a
308.0	5.0	cognitive	stimulus	10	low_cue	low_stim	n/a	n/a	n/a	n/a	n/a	n/a	task-social/stim/runtype-cognitive/27_50_R.jpg	n/a	n/a	n/a	n/a	n/a	diff	diff	True
322.99	n/a	cognitive	outcomerating	10	low_cue	low_stim	n/a	n/a	11.08	Moderate	0.08	0.52	task-social/outcomerating/task-cognitive_scale.png	n/a	n/a	n/a	n/a	n/a	n/a	n/a	n/a
336.59	0.99	cognitive	cue	11	high_cue	n/a	n/a	n/a	n/a	n/a	n/a	n/a	n/a	n/a	n/a	n/a	n/a	n/a	n/a	n/a	n/a
338.29	n/a	cognitive	expectrating	11	high_cue	n/a	n/a	n/a	52.81	Strong	0.77	3.55	task-social/cue/runtype-cognitive/sch/h022.png	n/a	n/a	n/a	n/a	n/a	n/a	n/a	n/a
354.0	5.0	cognitive	stimulus	11	high_cue	low_stim	n/a	n/a	n/a	n/a	n/a	n/a	task-social/stim/runtype-cognitive/7_50_R.jpg	n/a	n/a	n/a	n/a	n/a	diff	diff	True
367.11	n/a	cognitive	outcomerating	11	high_cue	low_stim	n/a	n/a	27.69	Moderate	0.95	1.23	task-social/outcomerating/task-cognitive_scale.png	n/a	n/a	n/a	n/a	n/a	n/a	n/a	n/a
371.59	0.99	cognitive	cue	12	low_cue	n/a	n/a	n/a	n/a	n/a	n/a	n/a	n/a	n/a	n/a	n/a	n/a	n/a	n/a	n/a	n/a
373.39	n/a	cognitive	expectrating	12	low_cue	n/a	n/a	n/a	29.74	Strong	0.18	1.73	task-social/cue/runtype-cognitive/scl/l035.png	n/a	n/a	n/a	n/a	n/a	n/a	n/a	n/a
380.29	5.0	cognitive	stimulus	12	low_cue	high_stim	n/a	n/a	n/a	n/a	n/a	n/a	task-social/stim/runtype-cognitive/19_150.jpg	n/a	n/a	n/a	n/a	n/a	same	diff	False
394.8	n/a	cognitive	outcomerating	12	low_cue	high_stim	n/a	n/a	30.06	Strong	0.05	2.63	task-social/outcomerating/task-cognitive_scale.png	n/a	n/a	n/a	n/a	n/a	n/a	n/a	n/a
