onset	duration	run_type	trial_type	trial_index	cue	stimulusintensity	rating_value	rating_glmslabel	rating_value_fillna	rating_glmslabel_fillna	rating_mouseonset	rating_mousedur	stim_file	pain_onset_ttl1	pain_onset_ttl2	pain_onset_ttl3	pain_onset_ttl4	pain_stimulus_delivery_success	cognitive_correct_response	cognitive_participant_response	cognitive_response_accuracy
4.8	0.99	cognitive	cue	1	high_cue	n/a	n/a	n/a	n/a	n/a	n/a	n/a	task-social/cue/runtype-cognitive/sch/h041.png	n/a	n/a	n/a	n/a	n/a	n/a	n/a	n/a
7.21	1.84	cognitive	expectrating	1	high_cue	n/a	66.65	Very-Strong	66.65	Very-Strong	0.1	1.74	task-social/cue/runtype-cognitive/sch/h041.png	n/a	n/a	n/a	n/a	n/a	n/a	n/a	n/a
17.8	5.0	cognitive	stimulus	1	high_cue	low_stim	n/a	n/a	n/a	n/a	n/a	n/a	task-social/stim/runtype-cognitive/27_50.jpg	n/a	n/a	n/a	n/a	n/a	same	diff	False
27.2	2.07	cognitive	outcomerating	1	high_cue	low_stim	60.83	Strong	60.83	Strong	0.1	1.74	task-social/outcomerating/task-cognitive_scale.png	n/a	n/a	n/a	n/a	n/a	n/a	n/a	n/a
33.09	0.99	cognitive	cue	2	low_cue	n/a	n/a	n/a	n/a	n/a	n/a	n/a	task-social/cue/runtype-cognitive/scl/l036.png	n/a	n/a	n/a	n/a	n/a	n/a	n/a	n/a
34.91	2.57	cognitive	expectrating	2	low_cue	n/a	13.51	Moderate	13.51	Moderate	0.88	1.68	task-social/cue/runtype-cognitive/scl/l036.png	n/a	n/a	n/a	n/a	n/a	n/a	n/a	n/a
46.2	5.0	cognitive	stimulus	2	low_cue	low_stim	n/a	n/a	n/a	n/a	n/a	n/a	task-social/stim/runtype-cognitive/1_50.jpg	n/a	n/a	n/a	n/a	n/a	same	same	True
56.1	2.46	cognitive	outcomerating	2	low_cue	low_stim	13.76	Moderate	13.76	Moderate	0.88	1.68	task-social/outcomerating/task-cognitive_scale.png	n/a	n/a	n/a	n/a	n/a	n/a	n/a	n/a
61.1	0.98	cognitive	cue	3	low_cue	n/a	n/a	n/a	n/a	n/a	n/a	n/a	task-social/cue/runtype-cognitive/scl/l039.png	n/a	n/a	n/a	n/a	n/a	n/a	n/a	n/a
63.2	2.87	cognitive	expectrating	3	low_cue	n/a	19.67	Moderate	19.67	Moderate	1.47	1.4	task-social/cue/runtype-cognitive/scl/l039.png	n/a	n/a	n/a	n/a	n/a	n/a	n/a	n/a
71.8	5.0	cognitive	stimulus	3	low_cue	med_stim	n/a	n/a	n/a	n/a	n/a	n/a	task-social/stim/runtype-cognitive/7_100.jpg	n/a	n/a	n/a	n/a	n/a	same	diff	False
81.39	2.1	cognitive	outcomerating	3	low_cue	med_stim	38.08	Strong	38.08	Strong	1.47	1.4	task-social/outcomerating/task-cognitive_scale.png	n/a	n/a	n/a	n/a	n/a	n/a	n/a	n/a
86.49	0.99	cognitive	cue	4	low_cue	n/a	n/a	n/a	n/a	n/a	n/a	n/a	task-social/cue/runtype-cognitive/scl/l054.png	n/a	n/a	n/a	n/a	n/a	n/a	n/a	n/a
89.59	1.43	cognitive	expectrating	4	low_cue	n/a	7.38	Weak	7.38	Weak	0.42	1.02	task-social/cue/runtype-cognitive/scl/l054.png	n/a	n/a	n/a	n/a	n/a	n/a	n/a	n/a
100.8	5.0	cognitive	stimulus	4	low_cue	high_stim	n/a	n/a	n/a	n/a	n/a	n/a	task-social/stim/runtype-cognitive/22_150_R.jpg	n/a	n/a	n/a	n/a	n/a	diff	diff	True
110.1	2.14	cognitive	outcomerating	4	low_cue	high_stim	37.01	Strong	37.01	Strong	0.42	1.02	task-social/outcomerating/task-cognitive_scale.png	n/a	n/a	n/a	n/a	n/a	n/a	n/a	n/a
114.8	0.98	cognitive	cue	5	high_cue	n/a	n/a	n/a	n/a	n/a	n/a	n/a	task-social/cue/runtype-cognitive/sch/h038.png	n/a	n/a	n/a	n/a	n/a	n/a	n/a	n/a
117.21	2.7	cognitive	expectrating	5	high_cue	n/a	74.72	Very-Strong	74.72	Very-Strong	0.17	2.53	task-social/cue/runtype-cognitive/sch/h038.png	n/a	n/a	n/a	n/a	n/a	n/a	n/a	n/a
124.61	5.0	cognitive	stimulus	5	high_cue	med_stim	n/a	n/a	n/a	n/a	n/a	n/a	task-social/stim/runtype-cognitive/44_100_R.jpg	n/a	n/a	n/a	n/a	n/a	diff	n/a	False
133.89	1.42	cognitive	outcomerating	5	high_cue	med_stim	62.71	Strong	62.71	Strong	0.17	2.53	task-social/outcomerating/task-cognitive_scale.png	n/a	n/a	n/a	n/a	n/a	n/a	n/a	n/a
138.5	0.99	cognitive	cue	6	high_cue	n/a	n/a	n/a	n/a	n/a	n/a	n/a	task-social/cue/runtype-cognitive/sch/h026.png	n/a	n/a	n/a	n/a	n/a	n/a	n/a	n/a
140.6	2.29	cognitive	expectrating	6	high_cue	n/a	52.81	Strong	52.81	Strong	0.08	2.21	task-social/cue/runtype-cognitive/sch/h026.png	n/a	n/a	n/a	n/a	n/a	n/a	n/a	n/a
147.9	5.0	cognitive	stimulus	6	high_cue	high_stim	n/a	n/a	n/a	n/a	n/a	n/a	task-social/stim/runtype-cognitive/20_150.jpg	n/a	n/a	n/a	n/a	n/a	same	same	True
157.6	n/a	cognitive	outcomerating	6	high_cue	high_stim	n/a	n/a	77.6	Very-Strong	0.08	2.21	task-social/outcomerating/task-cognitive_scale.png	n/a	n/a	n/a	n/a	n/a	n/a	n/a	n/a
163.49	0.99	cognitive	cue	7	high_cue	n/a	n/a	n/a	n/a	n/a	n/a	n/a	task-social/cue/runtype-cognitive/sch/h005.png	n/a	n/a	n/a	n/a	n/a	n/a	n/a	n/a
165.61	1.72	cognitive	expectrating	7	high_cue	n/a	59.08	Strong	59.08	Strong	0.87	0.85	task-social/cue/runtype-cognitive/sch/h005.png	n/a	n/a	n/a	n/a	n/a	n/a	n/a	n/a
178.39	5.0	cognitive	stimulus	7	high_cue	low_stim	n/a	n/a	n/a	n/a	n/a	n/a	task-social/stim/runtype-cognitive/19_50_R.jpg	n/a	n/a	n/a	n/a	n/a	diff	diff	True
197.6	2.52	cognitive	outcomerating	7	high_cue	low_stim	20.18	Moderate	20.18	Moderate	0.87	0.85	task-social/outcomerating/task-cognitive_scale.png	n/a	n/a	n/a	n/a	n/a	n/a	n/a	n/a
209.39	0.99	cognitive	cue	8	high_cue	n/a	n/a	n/a	n/a	n/a	n/a	n/a	task-social/cue/runtype-cognitive/sch/h014.png	n/a	n/a	n/a	n/a	n/a	n/a	n/a	n/a
211.51	1.22	cognitive	expectrating	8	high_cue	n/a	44.19	Strong	44.19	Strong	0.4	0.82	task-social/cue/runtype-cognitive/sch/h014.png	n/a	n/a	n/a	n/a	n/a	n/a	n/a	n/a
218.39	5.0	cognitive	stimulus	8	high_cue	high_stim	n/a	n/a	n/a	n/a	n/a	n/a	task-social/stim/runtype-cognitive/27_150.jpg	n/a	n/a	n/a	n/a	n/a	same	same	True
229.7	2.21	cognitive	outcomerating	8	high_cue	high_stim	62.58	Strong	62.58	Strong	0.4	0.82	task-social/outcomerating/task-cognitive_scale.png	n/a	n/a	n/a	n/a	n/a	n/a	n/a	n/a
234.6	0.98	cognitive	cue	9	low_cue	n/a	n/a	n/a	n/a	n/a	n/a	n/a	task-social/cue/runtype-cognitive/scl/l028.png	n/a	n/a	n/a	n/a	n/a	n/a	n/a	n/a
237.7	1.42	cognitive	expectrating	9	low_cue	n/a	29.37	Strong	29.37	Strong	0.93	0.49	task-social/cue/runtype-cognitive/scl/l028.png	n/a	n/a	n/a	n/a	n/a	n/a	n/a	n/a
252.51	5.0	cognitive	stimulus	9	low_cue	low_stim	n/a	n/a	n/a	n/a	n/a	n/a	task-social/stim/runtype-cognitive/19_50.jpg	n/a	n/a	n/a	n/a	n/a	same	same	True
265.09	3.67	cognitive	outcomerating	9	low_cue	low_stim	43.01	Strong	43.01	Strong	0.93	0.49	task-social/outcomerating/task-cognitive_scale.png	n/a	n/a	n/a	n/a	n/a	n/a	n/a	n/a
271.0	0.99	cognitive	cue	10	low_cue	n/a	n/a	n/a	n/a	n/a	n/a	n/a	task-social/cue/runtype-cognitive/scl/l043.png	n/a	n/a	n/a	n/a	n/a	n/a	n/a	n/a
274.1	1.64	cognitive	expectrating	10	low_cue	n/a	14.93	Moderate	14.93	Moderate	0.62	1.03	task-social/cue/runtype-cognitive/scl/l043.png	n/a	n/a	n/a	n/a	n/a	n/a	n/a	n/a
285.4	5.0	cognitive	stimulus	10	low_cue	med_stim	n/a	n/a	n/a	n/a	n/a	n/a	task-social/stim/runtype-cognitive/1_100.jpg	n/a	n/a	n/a	n/a	n/a	same	same	True
296.61	3.57	cognitive	outcomerating	10	low_cue	med_stim	12.75	Moderate	12.75	Moderate	0.62	1.03	task-social/outcomerating/task-cognitive_scale.png	n/a	n/a	n/a	n/a	n/a	n/a	n/a	n/a
317.6	0.99	cognitive	cue	11	low_cue	n/a	n/a	n/a	n/a	n/a	n/a	n/a	task-social/cue/runtype-cognitive/scl/l009.png	n/a	n/a	n/a	n/a	n/a	n/a	n/a	n/a
320.0	1.89	cognitive	expectrating	11	low_cue	n/a	7.15	Weak	7.15	Weak	0.83	1.06	task-social/cue/runtype-cognitive/scl/l009.png	n/a	n/a	n/a	n/a	n/a	n/a	n/a	n/a
327.4	5.0	cognitive	stimulus	11	low_cue	high_stim	n/a	n/a	n/a	n/a	n/a	n/a	task-social/stim/runtype-cognitive/35_150.jpg	n/a	n/a	n/a	n/a	n/a	same	same	True
337.1	2.3	cognitive	outcomerating	11	low_cue	high_stim	47.6	Strong	47.6	Strong	0.83	1.06	task-social/outcomerating/task-cognitive_scale.png	n/a	n/a	n/a	n/a	n/a	n/a	n/a	n/a
358.09	0.99	cognitive	cue	12	high_cue	n/a	n/a	n/a	n/a	n/a	n/a	n/a	task-social/cue/runtype-cognitive/sch/h030.png	n/a	n/a	n/a	n/a	n/a	n/a	n/a	n/a
361.2	2.41	cognitive	expectrating	12	high_cue	n/a	57.14	Strong	57.14	Strong	0.52	1.89	task-social/cue/runtype-cognitive/sch/h030.png	n/a	n/a	n/a	n/a	n/a	n/a	n/a	n/a
377.5	5.0	cognitive	stimulus	12	high_cue	med_stim	n/a	n/a	n/a	n/a	n/a	n/a	task-social/stim/runtype-cognitive/20_100.jpg	n/a	n/a	n/a	n/a	n/a	same	diff	False
394.09	n/a	cognitive	outcomerating	12	high_cue	med_stim	n/a	n/a	50.22	Strong	0.52	1.89	task-social/outcomerating/task-cognitive_scale.png	n/a	n/a	n/a	n/a	n/a	n/a	n/a	n/a
