onset	duration	run_type	trial_type	trial_index	cue	stimulusintensity	rating_value	rating_glmslabel	rating_value_fillna	rating_glmslabel_fillna	rating_mouseonset	rating_mousedur	stim_file	pain_onset_ttl1	pain_onset_ttl2	pain_onset_ttl3	pain_onset_ttl4	pain_stimulus_delivery_success	cognitive_correct_response	cognitive_participant_response	cognitive_response_accuracy
5.71	0.98	cognitive	cue	1	high_cue	n/a	n/a	n/a	n/a	n/a	n/a	n/a	task-social/cue/runtype-cognitive/sch/h004.png	n/a	n/a	n/a	n/a	n/a	n/a	n/a	n/a
8.34	n/a	cognitive	expectrating	1	high_cue	n/a	n/a	n/a	114.1	Strongest-sensation-of-any-kind	0.95	3.78	task-social/cue/runtype-cognitive/sch/h004.png	n/a	n/a	n/a	n/a	n/a	n/a	n/a	n/a
14.91	5.0	cognitive	stimulus	1	high_cue	high_stim	n/a	n/a	n/a	n/a	n/a	n/a	task-social/stim/runtype-cognitive/29_150.jpg	n/a	n/a	n/a	n/a	n/a	same	n/a	False
23.92	n/a	cognitive	outcomerating	1	high_cue	high_stim	n/a	n/a	138.87	Strongest-sensation-of-any-kind	0.95	3.78	task-social/outcomerating/task-cognitive_scale.png	n/a	n/a	n/a	n/a	n/a	n/a	n/a	n/a
32.3	0.99	cognitive	cue	2	low_cue	n/a	n/a	n/a	n/a	n/a	n/a	n/a	task-social/cue/runtype-cognitive/scl/l009.png	n/a	n/a	n/a	n/a	n/a	n/a	n/a	n/a
35.3	n/a	cognitive	expectrating	2	low_cue	n/a	n/a	n/a	119.16	Strongest-sensation-of-any-kind	0.12	3.98	task-social/cue/runtype-cognitive/scl/l009.png	n/a	n/a	n/a	n/a	n/a	n/a	n/a	n/a
47.21	5.0	cognitive	stimulus	2	low_cue	high_stim	n/a	n/a	n/a	n/a	n/a	n/a	task-social/stim/runtype-cognitive/27_150_R.jpg	n/a	n/a	n/a	n/a	n/a	diff	n/a	False
58.51	n/a	cognitive	outcomerating	2	low_cue	high_stim	n/a	n/a	116.8	Strongest-sensation-of-any-kind	0.12	3.98	task-social/outcomerating/task-cognitive_scale.png	n/a	n/a	n/a	n/a	n/a	n/a	n/a	n/a
63.1	0.99	cognitive	cue	3	low_cue	n/a	n/a	n/a	n/a	n/a	n/a	n/a	task-social/cue/runtype-cognitive/scl/l050.png	n/a	n/a	n/a	n/a	n/a	n/a	n/a	n/a
65.51	n/a	cognitive	expectrating	3	low_cue	n/a	n/a	n/a	114.1	Strongest-sensation-of-any-kind	0.17	3.57	task-social/cue/runtype-cognitive/scl/l050.png	n/a	n/a	n/a	n/a	n/a	n/a	n/a	n/a
72.1	5.0	cognitive	stimulus	3	low_cue	high_stim	n/a	n/a	n/a	n/a	n/a	n/a	task-social/stim/runtype-cognitive/34_150_R.jpg	n/a	n/a	n/a	n/a	n/a	diff	n/a	False
81.9	n/a	cognitive	outcomerating	3	low_cue	high_stim	n/a	n/a	132.02	Strongest-sensation-of-any-kind	0.17	3.57	task-social/outcomerating/task-cognitive_scale.png	n/a	n/a	n/a	n/a	n/a	n/a	n/a	n/a
95.11	0.98	cognitive	cue	4	high_cue	n/a	n/a	n/a	n/a	n/a	n/a	n/a	task-social/cue/runtype-cognitive/sch/h043.png	n/a	n/a	n/a	n/a	n/a	n/a	n/a	n/a
97.51	n/a	cognitive	expectrating	4	high_cue	n/a	n/a	n/a	108.22	Strongest-sensation-of-any-kind	0.05	2.35	task-social/cue/runtype-cognitive/sch/h043.png	n/a	n/a	n/a	n/a	n/a	n/a	n/a	n/a
104.7	5.0	cognitive	stimulus	4	high_cue	high_stim	n/a	n/a	n/a	n/a	n/a	n/a	task-social/stim/runtype-cognitive/43_150_R.jpg	n/a	n/a	n/a	n/a	n/a	diff	n/a	False
115.6	n/a	cognitive	outcomerating	4	high_cue	high_stim	n/a	n/a	67.34	Very-Strong	0.05	2.35	task-social/outcomerating/task-cognitive_scale.png	n/a	n/a	n/a	n/a	n/a	n/a	n/a	n/a
120.2	0.99	cognitive	cue	5	low_cue	n/a	n/a	n/a	n/a	n/a	n/a	n/a	task-social/cue/runtype-cognitive/scl/l005.png	n/a	n/a	n/a	n/a	n/a	n/a	n/a	n/a
123.2	n/a	cognitive	expectrating	5	low_cue	n/a	n/a	n/a	98.07	Strongest-sensation-of-any-kind	0.55	3.63	task-social/cue/runtype-cognitive/scl/l005.png	n/a	n/a	n/a	n/a	n/a	n/a	n/a	n/a
140.41	5.0	cognitive	stimulus	5	low_cue	low_stim	n/a	n/a	n/a	n/a	n/a	n/a	task-social/stim/runtype-cognitive/27_50_R.jpg	n/a	n/a	n/a	n/a	n/a	diff	n/a	False
149.01	n/a	cognitive	outcomerating	5	low_cue	low_stim	n/a	n/a	65.92	Very-Strong	0.55	3.63	task-social/outcomerating/task-cognitive_scale.png	n/a	n/a	n/a	n/a	n/a	n/a	n/a	n/a
159.9	0.99	cognitive	cue	6	high_cue	n/a	n/a	n/a	n/a	n/a	n/a	n/a	task-social/cue/runtype-cognitive/sch/h037.png	n/a	n/a	n/a	n/a	n/a	n/a	n/a	n/a
162.9	n/a	cognitive	expectrating	6	high_cue	n/a	n/a	n/a	85.95	Very-Strong	0.63	3.02	task-social/cue/runtype-cognitive/sch/h037.png	n/a	n/a	n/a	n/a	n/a	n/a	n/a	n/a
188.99	5.0	cognitive	stimulus	6	high_cue	low_stim	n/a	n/a	n/a	n/a	n/a	n/a	task-social/stim/runtype-cognitive/17_50.jpg	n/a	n/a	n/a	n/a	n/a	same	n/a	False
208.4	n/a	cognitive	outcomerating	6	high_cue	low_stim	n/a	n/a	142.17	Strongest-sensation-of-any-kind	0.63	3.02	task-social/outcomerating/task-cognitive_scale.png	n/a	n/a	n/a	n/a	n/a	n/a	n/a	n/a
219.31	0.98	cognitive	cue	7	low_cue	n/a	n/a	n/a	n/a	n/a	n/a	n/a	task-social/cue/runtype-cognitive/scl/l025.png	n/a	n/a	n/a	n/a	n/a	n/a	n/a	n/a
221.51	n/a	cognitive	expectrating	7	low_cue	n/a	n/a	n/a	109.32	Strongest-sensation-of-any-kind	0.37	2.78	task-social/cue/runtype-cognitive/scl/l025.png	n/a	n/a	n/a	n/a	n/a	n/a	n/a	n/a
230.49	5.0	cognitive	stimulus	7	low_cue	med_stim	n/a	n/a	n/a	n/a	n/a	n/a	task-social/stim/runtype-cognitive/6_100_R.jpg	n/a	n/a	n/a	n/a	n/a	diff	n/a	False
241.4	n/a	cognitive	outcomerating	7	low_cue	med_stim	n/a	n/a	116.15	Strongest-sensation-of-any-kind	0.37	2.78	task-social/outcomerating/task-cognitive_scale.png	n/a	n/a	n/a	n/a	n/a	n/a	n/a	n/a
252.5	0.99	cognitive	cue	8	high_cue	n/a	n/a	n/a	n/a	n/a	n/a	n/a	task-social/cue/runtype-cognitive/sch/h028.png	n/a	n/a	n/a	n/a	n/a	n/a	n/a	n/a
255.1	n/a	cognitive	expectrating	8	high_cue	n/a	n/a	n/a	100.22	Strongest-sensation-of-any-kind	0.23	3.72	task-social/cue/runtype-cognitive/sch/h028.png	n/a	n/a	n/a	n/a	n/a	n/a	n/a	n/a
262.1	5.0	cognitive	stimulus	8	high_cue	med_stim	n/a	n/a	n/a	n/a	n/a	n/a	task-social/stim/runtype-cognitive/4_100_R.jpg	n/a	n/a	n/a	n/a	n/a	diff	n/a	False
274.01	n/a	cognitive	outcomerating	8	high_cue	med_stim	n/a	n/a	130.25	Strongest-sensation-of-any-kind	0.23	3.72	task-social/outcomerating/task-cognitive_scale.png	n/a	n/a	n/a	n/a	n/a	n/a	n/a	n/a
283.9	0.99	cognitive	cue	9	high_cue	n/a	n/a	n/a	n/a	n/a	n/a	n/a	task-social/cue/runtype-cognitive/sch/h042.png	n/a	n/a	n/a	n/a	n/a	n/a	n/a	n/a
285.8	n/a	cognitive	expectrating	9	high_cue	n/a	n/a	n/a	73.74	Very-Strong	0.7	3.68	task-social/cue/runtype-cognitive/sch/h042.png	n/a	n/a	n/a	n/a	n/a	n/a	n/a	n/a
293.4	5.0	cognitive	stimulus	9	high_cue	med_stim	n/a	n/a	n/a	n/a	n/a	n/a	task-social/stim/runtype-cognitive/31_100.jpg	n/a	n/a	n/a	n/a	n/a	same	n/a	False
302.8	n/a	cognitive	outcomerating	9	high_cue	med_stim	n/a	n/a	97.38	Very-Strong	0.7	3.68	task-social/outcomerating/task-cognitive_scale.png	n/a	n/a	n/a	n/a	n/a	n/a	n/a	n/a
311.91	0.98	cognitive	cue	10	low_cue	n/a	n/a	n/a	n/a	n/a	n/a	n/a	task-social/cue/runtype-cognitive/scl/l051.png	n/a	n/a	n/a	n/a	n/a	n/a	n/a	n/a
314.91	n/a	cognitive	expectrating	10	low_cue	n/a	n/a	n/a	85.18	Very-Strong	0.73	1.8	task-social/cue/runtype-cognitive/scl/l051.png	n/a	n/a	n/a	n/a	n/a	n/a	n/a	n/a
322.49	5.0	cognitive	stimulus	10	low_cue	med_stim	n/a	n/a	n/a	n/a	n/a	n/a	task-social/stim/runtype-cognitive/27_100_R.jpg	n/a	n/a	n/a	n/a	n/a	diff	n/a	False
335.0	n/a	cognitive	outcomerating	10	low_cue	med_stim	n/a	n/a	136.8	Strongest-sensation-of-any-kind	0.73	1.8	task-social/outcomerating/task-cognitive_scale.png	n/a	n/a	n/a	n/a	n/a	n/a	n/a	n/a
341.3	0.99	cognitive	cue	11	high_cue	n/a	n/a	n/a	n/a	n/a	n/a	n/a	task-social/cue/runtype-cognitive/sch/h036.png	n/a	n/a	n/a	n/a	n/a	n/a	n/a	n/a
343.2	n/a	cognitive	expectrating	11	high_cue	n/a	n/a	n/a	106.32	Strongest-sensation-of-any-kind	1.05	3.17	task-social/cue/runtype-cognitive/sch/h036.png	n/a	n/a	n/a	n/a	n/a	n/a	n/a	n/a
355.51	5.0	cognitive	stimulus	11	high_cue	low_stim	n/a	n/a	n/a	n/a	n/a	n/a	task-social/stim/runtype-cognitive/27_50.jpg	n/a	n/a	n/a	n/a	n/a	same	n/a	False
365.31	n/a	cognitive	outcomerating	11	high_cue	low_stim	n/a	n/a	70.11	Very-Strong	1.05	3.17	task-social/outcomerating/task-cognitive_scale.png	n/a	n/a	n/a	n/a	n/a	n/a	n/a	n/a
371.6	0.99	cognitive	cue	12	low_cue	n/a	n/a	n/a	n/a	n/a	n/a	n/a	task-social/cue/runtype-cognitive/scl/l031.png	n/a	n/a	n/a	n/a	n/a	n/a	n/a	n/a
373.51	n/a	cognitive	expectrating	12	low_cue	n/a	n/a	n/a	93.0	Very-Strong	1.68	3.7	task-social/cue/runtype-cognitive/scl/l031.png	n/a	n/a	n/a	n/a	n/a	n/a	n/a	n/a
380.3	5.0	cognitive	stimulus	12	low_cue	low_stim	n/a	n/a	n/a	n/a	n/a	n/a	task-social/stim/runtype-cognitive/8_50.jpg	n/a	n/a	n/a	n/a	n/a	same	n/a	False
395.0	n/a	cognitive	outcomerating	12	low_cue	low_stim	n/a	n/a	61.48	Strong	1.68	3.7	task-social/outcomerating/task-cognitive_scale.png	n/a	n/a	n/a	n/a	n/a	n/a	n/a	n/a
