onset	duration	trial_type	response_x	response_y	situation	context	modality	stim_file
4.821	54.294	narrative_presentation	n/a	n/a	Deliverance	prison	Audio	task-narratives/Narrative7Situation1.mp3
59.116	3.705	rating_feeling	704	512	Deliverance	prison	Audio	n/a
60.082	2.738	feeling_mouse_trajectory	704	512	Deliverance	prison	Audio	n/a
63.16	2.954	rating_expectation	659	471	Deliverance	prison	Audio	n/a
64.476	1.637	expectation_mouse_trajectory	659	471	Deliverance	prison	Audio	n/a
70.311	5.944	narrative_presentation	n/a	n/a	Adultery	prison	Audio	task-narratives/Narrative7Situation2.mp3
76.255	2.635	rating_feeling	704	512	Adultery	prison	Audio	n/a
77.472	1.418	feeling_mouse_trajectory	704	512	Adultery	prison	Audio	n/a
80.279	2.518	rating_expectation	659	471	Adultery	prison	Audio	n/a
81.079	1.718	expectation_mouse_trajectory	659	471	Adultery	prison	Audio	n/a
92.354	7.447	narrative_presentation	n/a	n/a	Pursuit	prison	Audio	task-narratives/Narrative7Situation3.mp3
99.801	3.29	rating_feeling	704	512	Pursuit	prison	Audio	n/a
101.034	2.057	feeling_mouse_trajectory	704	512	Pursuit	prison	Audio	n/a
103.838	3.155	rating_expectation	659	471	Pursuit	prison	Audio	n/a
105.055	1.938	expectation_mouse_trajectory	659	471	Pursuit	prison	Audio	n/a
110.928	11.475	narrative_presentation	n/a	n/a	Conflict with a god	park	Audio	task-narratives/Narrative7Situation4.mp3
122.403	2.468	rating_feeling	704	512	Conflict with a god	park	Audio	n/a
123.12	1.751	feeling_mouse_trajectory	704	512	Conflict with a god	park	Audio	n/a
126.429	1.918	rating_expectation	659	471	Conflict with a god	park	Audio	n/a
126.946	1.401	expectation_mouse_trajectory	659	471	Conflict with a god	park	Audio	n/a
135.505	8.001	narrative_presentation	n/a	n/a	Recovery of a lost one	park	Audio	task-narratives/Narrative7Situation5.mp3
143.506	2.074	rating_feeling	704	512	Recovery of a lost one	park	Audio	n/a
144.223	1.357	feeling_mouse_trajectory	704	512	Recovery of a lost one	park	Audio	n/a
147.545	1.522	rating_expectation	659	471	Recovery of a lost one	park	Audio	n/a
148.061	1.005	expectation_mouse_trajectory	659	471	Recovery of a lost one	park	Audio	n/a
154.644	8.775	narrative_presentation	n/a	n/a	Supplication	park	Audio	task-narratives/Narrative7Situation6.mp3
163.419	2.018	rating_feeling	704	512	Supplication	park	Audio	n/a
164.086	1.351	feeling_mouse_trajectory	704	512	Supplication	park	Audio	n/a
167.445	2.701	rating_expectation	659	471	Supplication	park	Audio	n/a
167.878	2.268	expectation_mouse_trajectory	659	471	Supplication	park	Audio	n/a
176.517	16.661	narrative_presentation	n/a	n/a	Involuntary crimes of love	hospital	Audio	task-narratives/Narrative7Situation7.mp3
193.178	1.822	rating_feeling	704	512	Involuntary crimes of love	hospital	Audio	n/a
193.695	1.305	feeling_mouse_trajectory	704	512	Involuntary crimes of love	hospital	Audio	n/a
197.209	1.653	rating_expectation	659	471	Involuntary crimes of love	hospital	Audio	n/a
197.676	1.187	expectation_mouse_trajectory	659	471	Involuntary crimes of love	hospital	Audio	n/a
203.262	8.78	narrative_presentation	n/a	n/a	An enemy loved	hospital	Audio	task-narratives/Narrative7Situation8.mp3
212.042	1.534	rating_feeling	704	512	An enemy loved	hospital	Audio	n/a
212.625	0.951	feeling_mouse_trajectory	704	512	An enemy loved	hospital	Audio	n/a
216.063	2.018	rating_expectation	659	471	An enemy loved	hospital	Audio	n/a
216.979	1.101	expectation_mouse_trajectory	659	471	An enemy loved	hospital	Audio	n/a
222.118	7.974	narrative_presentation	n/a	n/a	Ambition	hospital	Audio	task-narratives/Narrative7Situation9.mp3
230.092	1.841	rating_feeling	704	512	Ambition	hospital	Audio	n/a
230.376	1.558	feeling_mouse_trajectory	704	512	Ambition	hospital	Audio	n/a
234.125	2.523	rating_expectation	659	471	Ambition	hospital	Audio	n/a
235.842	0.806	expectation_mouse_trajectory	659	471	Ambition	hospital	Audio	n/a
243.208	15.311	narrative_presentation	n/a	n/a	Necessity of sacrificing loved ones	town	Audio	task-narratives/Narrative8Situation1.mp3
258.52	1.551	rating_feeling	704	512	Necessity of sacrificing loved ones	town	Audio	n/a
259.036	1.034	feeling_mouse_trajectory	704	512	Necessity of sacrificing loved ones	town	Audio	n/a
262.546	2.284	rating_expectation	659	471	Necessity of sacrificing loved ones	town	Audio	n/a
263.863	0.968	expectation_mouse_trajectory	659	471	Necessity of sacrificing loved ones	town	Audio	n/a
269.602	8.782	narrative_presentation	n/a	n/a	Abduction	town	Audio	task-narratives/Narrative8Situation2.mp3
278.384	1.44	rating_feeling	704	512	Abduction	town	Audio	n/a
278.884	0.94	feeling_mouse_trajectory	704	512	Abduction	town	Audio	n/a
282.421	2.272	rating_expectation	659	471	Abduction	town	Audio	n/a
282.854	1.838	expectation_mouse_trajectory	659	471	Abduction	town	Audio	n/a
290.494	22.148	narrative_presentation	n/a	n/a	Adultery	town	Audio	task-narratives/Narrative8Situation3.mp3
312.643	3.994	rating_feeling	704	512	Adultery	town	Audio	n/a
313.359	3.277	feeling_mouse_trajectory	704	512	Adultery	town	Audio	n/a
316.675	2.559	rating_expectation	659	471	Adultery	town	Audio	n/a
317.592	1.642	expectation_mouse_trajectory	659	471	Adultery	town	Audio	n/a
323.739	12.613	narrative_presentation	n/a	n/a	Obtaining	city	Audio	task-narratives/Narrative8Situation4.mp3
336.351	1.935	rating_feeling	704	512	Obtaining	city	Audio	n/a
337.018	1.268	feeling_mouse_trajectory	704	512	Obtaining	city	Audio	n/a
340.375	1.101	rating_expectation	659	471	Obtaining	city	Audio	n/a
340.875	0.601	expectation_mouse_trajectory	659	471	Obtaining	city	Audio	n/a
346.43	6.611	narrative_presentation	n/a	n/a	Supplication	city	Audio	task-narratives/Narrative8Situation5.mp3
353.041	3.752	rating_feeling	704	512	Supplication	city	Audio	n/a
354.041	2.752	feeling_mouse_trajectory	704	512	Supplication	city	Audio	n/a
357.065	3.285	rating_expectation	659	471	Supplication	city	Audio	n/a
358.065	2.285	expectation_mouse_trajectory	659	471	Supplication	city	Audio	n/a
363.137	5.982	narrative_presentation	n/a	n/a	Rivalry of kin	city	Audio	task-narratives/Narrative8Situation6.mp3
369.119	2.406	rating_feeling	704	512	Rivalry of kin	city	Audio	n/a
370.085	1.439	feeling_mouse_trajectory	704	512	Rivalry of kin	city	Audio	n/a
373.142	1.971	rating_expectation	659	471	Rivalry of kin	city	Audio	n/a
373.859	1.255	expectation_mouse_trajectory	659	471	Rivalry of kin	city	Audio	n/a
380.211	10.78	narrative_presentation	n/a	n/a	Recovery of a lost one	beach	Audio	task-narratives/Narrative8Situation7.mp3
390.992	2.001	rating_feeling	704	512	Recovery of a lost one	beach	Audio	n/a
391.792	1.201	feeling_mouse_trajectory	704	512	Recovery of a lost one	beach	Audio	n/a
395.012	1.767	rating_expectation	659	471	Recovery of a lost one	beach	Audio	n/a
395.645	1.134	expectation_mouse_trajectory	659	471	Recovery of a lost one	beach	Audio	n/a
402.068	11.288	narrative_presentation	n/a	n/a	Rivalry of superior versus inferior	beach	Audio	task-narratives/Narrative8Situation8.mp3
413.355	2.156	rating_feeling	704	512	Rivalry of superior versus inferior	beach	Audio	n/a
413.689	1.823	feeling_mouse_trajectory	704	512	Rivalry of superior versus inferior	beach	Audio	n/a
417.392	1.555	rating_expectation	659	471	Rivalry of superior versus inferior	beach	Audio	n/a
417.875	1.071	expectation_mouse_trajectory	659	471	Rivalry of superior versus inferior	beach	Audio	n/a
424.444	10.112	narrative_presentation	n/a	n/a	Slaying of kin unrecognized	beach	Audio	task-narratives/Narrative8Situation9.mp3
434.556	2.885	rating_feeling	704	512	Slaying of kin unrecognized	beach	Audio	n/a
435.256	2.185	feeling_mouse_trajectory	704	512	Slaying of kin unrecognized	beach	Audio	n/a
438.579	2.451	rating_expectation	659	471	Slaying of kin unrecognized	beach	Audio	n/a
439.729	1.301	expectation_mouse_trajectory	659	471	Slaying of kin unrecognized	beach	Audio	n/a
