onset	duration	trial_type	response_value	rating_type	expression	sex	race	age	stim_file
3.861	1.318	face	n/a	age	surprise	male	African	old	task-faces/2Surprise_Model3_2Male_3African_2Old.mp4
5.179	1.8	rating	0.6926	age	surprise	male	African	old	n/a
5.629	1.35	rating_mouse_trajectory	0.6926	age	surprise	male	African	old	n/a
7.233	1.33	face	n/a	age	happy	male	WC	old	task-faces/1Happy_Model1_2Male_1WC_2Old.mp4
8.563	1.02	rating	0.8422	age	happy	male	WC	old	n/a
8.863	0.72	rating_mouse_trajectory	0.8422	age	happy	male	WC	old	n/a
10.503	1.312	face	n/a	age	sad	male	African	young	task-faces/6Sad_Model2_2Male_3African_1Young.mp4
11.814	0.952	rating	0.1161	age	sad	male	African	young	n/a
12.064	0.702	rating_mouse_trajectory	0.1161	age	sad	male	African	young	n/a
14.738	2.061	face	n/a	age	pleasure	female	EA	young	task-faces/8Pleasure_Model2_1Female_2EA_1Young.mp4
16.8	0.894	rating	0.1545	age	pleasure	female	EA	young	n/a
17.083	0.61	rating_mouse_trajectory	0.1545	age	pleasure	female	EA	young	n/a
18.714	1.32	face	n/a	age	fear	female	African	old	task-faces/3Fear_Model2_1Female_3African_2Old.mp4
20.034	1.085	rating	0.9494	age	fear	female	African	old	n/a
20.267	0.852	rating_mouse_trajectory	0.9494	age	fear	female	African	old	n/a
25.982	1.305	face	n/a	age	fear	male	African	young	task-faces/3Fear_Model1_2Male_3African_1Young.mp4
27.287	1.007	rating	0.0716	age	fear	male	African	young	n/a
27.62	0.674	rating_mouse_trajectory	0.0716	age	fear	male	African	young	n/a
29.214	1.307	face	n/a	age	happy	female	EA	old	task-faces/1Happy_Model5_1Female_2EA_2Old.mp4
30.521	1.505	rating	0.8948	age	happy	female	EA	old	n/a
30.855	1.172	rating_mouse_trajectory	0.8948	age	happy	female	EA	old	n/a
32.444	1.312	face	n/a	age	happy	female	WC	young	task-faces/1Happy_Model2_1Female_1WC_1Young.mp4
33.756	0.304	rating	0.466	age	happy	female	WC	young	n/a
n/a	n/a	rating_mouse_trajectory	0.466	age	happy	female	WC	young	n/a
35.678	1.312	face	n/a	age	disgust	female	African	old	task-faces/4Disgust_Model3_1Female_3African_2Old.mp4
36.99	1.403	rating	0.8625	age	disgust	female	African	old	n/a
37.257	1.137	rating_mouse_trajectory	0.8625	age	disgust	female	African	old	n/a
38.914	1.328	face	n/a	age	happy	female	WC	old	task-faces/1Happy_Model5_1Female_1WC_2Old.mp4
40.242	1.218	rating	1.0	age	happy	female	WC	old	n/a
40.892	0.568	rating_mouse_trajectory	1.0	age	happy	female	WC	old	n/a
44.148	1.312	face	n/a	age	happy	female	EA	young	task-faces/1Happy_Model4_1Female_2EA_1Young.mp4
45.46	0.501	rating	0.466	age	happy	female	EA	young	n/a
n/a	n/a	rating_mouse_trajectory	0.466	age	happy	female	EA	young	n/a
48.367	2.045	face	n/a	age	pain	male	African	young	task-faces/7Pain_Model4_2Male_3African_1Young.mp4
50.412	0.918	rating	0.0352	age	pain	male	African	young	n/a
50.462	0.868	rating_mouse_trajectory	0.0352	age	pain	male	African	young	n/a
54.331	1.316	face	n/a	age	anger	male	EA	young	task-faces/5Anger_Model3_2Male_2EA_1Young.mp4
55.647	1.168	rating	0.015	age	anger	male	EA	young	n/a
56.164	0.652	rating_mouse_trajectory	0.015	age	anger	male	EA	young	n/a
58.554	1.311	face	n/a	age	sad	male	EA	young	task-faces/6Sad_Model4_2Male_2EA_1Young.mp4
59.866	1.444	rating	0.371	age	sad	male	EA	young	n/a
60.199	1.111	rating_mouse_trajectory	0.371	age	sad	male	EA	young	n/a
62.776	1.308	face	n/a	age	sad	female	WC	young	task-faces/6Sad_Model5_1Female_1WC_1Young.mp4
64.084	0.418	rating	0.466	age	sad	female	WC	young	n/a
n/a	n/a	rating_mouse_trajectory	0.466	age	sad	female	WC	young	n/a
67.015	1.304	face	n/a	age	happy	male	EA	old	task-faces/1Happy_Model1_2Male_2EA_2Old.mp4
68.319	0.974	rating	0.8463	age	happy	male	EA	old	n/a
68.602	0.691	rating_mouse_trajectory	0.8463	age	happy	male	EA	old	n/a
71.246	2.058	face	n/a	age	pleasure	male	WC	old	task-faces/8Pleasure_Model2_2Male_1WC_2Old.mp4
73.304	1.406	rating	0.9312	age	pleasure	male	WC	old	n/a
73.571	1.139	rating_mouse_trajectory	0.9312	age	pleasure	male	WC	old	n/a
76.228	1.328	face	n/a	age	fear	male	African	old	task-faces/3Fear_Model4_2Male_3African_2Old.mp4
77.556	1.038	rating	0.9272	age	fear	male	African	old	n/a
77.956	0.638	rating_mouse_trajectory	0.9272	age	fear	male	African	old	n/a
82.485	1.306	face	n/a	age	disgust	female	African	young	task-faces/4Disgust_Model4_1Female_3African_1Young.mp4
83.791	0.402	rating	0.466	age	disgust	female	African	young	n/a
n/a	n/a	rating_mouse_trajectory	0.466	age	disgust	female	African	young	n/a
85.697	1.312	face	n/a	age	surprise	male	WC	young	task-faces/2Surprise_Model3_2Male_1WC_1Young.mp4
87.009	1.202	rating	0.6056	age	surprise	male	WC	young	n/a
87.326	0.885	rating_mouse_trajectory	0.6056	age	surprise	male	WC	young	n/a
89.94	2.054	face	n/a	age	pleasure	male	EA	young	task-faces/8Pleasure_Model4_2Male_2EA_1Young.mp4
91.994	0.768	rating	0.6642	age	pleasure	male	EA	young	n/a
92.294	0.468	rating_mouse_trajectory	0.6642	age	pleasure	male	EA	young	n/a
93.899	1.313	face	n/a	age	anger	male	WC	old	task-faces/5Anger_Model3_2Male_1WC_2Old.mp4
95.212	1.185	rating	0.8948	age	anger	male	WC	old	n/a
95.562	0.835	rating_mouse_trajectory	0.8948	age	anger	male	WC	old	n/a
98.135	1.312	face	n/a	age	disgust	female	WC	young	task-faces/4Disgust_Model5_1Female_1WC_1Young.mp4
99.447	0.318	rating	0.466	age	disgust	female	WC	young	n/a
n/a	n/a	rating_mouse_trajectory	0.466	age	disgust	female	WC	young	n/a
102.354	1.311	face	n/a	age	surprise	female	WC	old	task-faces/2Surprise_Model3_1Female_1WC_2Old.mp4
103.665	0.935	rating	0.915	age	surprise	female	WC	old	n/a
103.982	0.618	rating_mouse_trajectory	0.915	age	surprise	female	WC	old	n/a
106.586	1.314	face	n/a	age	sad	male	African	old	task-faces/6Sad_Model2_2Male_3African_2Old.mp4
107.9	1.61	rating	0.9009	age	sad	male	African	old	n/a
108.234	1.276	rating_mouse_trajectory	0.9009	age	sad	male	African	old	n/a
109.807	1.311	face	n/a	age	disgust	male	WC	young	task-faces/4Disgust_Model2_2Male_1WC_1Young.mp4
111.118	0.735	rating	0.3993	age	disgust	male	WC	young	n/a
111.585	0.268	rating_mouse_trajectory	0.3993	age	disgust	male	WC	young	n/a
113.041	1.312	face	n/a	age	anger	female	African	old	task-faces/5Anger_Model3_1Female_3African_2Old.mp4
114.353	1.024	rating	0.913	age	anger	female	African	old	n/a
114.653	0.724	rating_mouse_trajectory	0.913	age	anger	female	African	old	n/a
116.276	2.045	face	n/a	age	pain	female	African	young	task-faces/7Pain_Model3_1Female_3African_1Young.mp4
118.321	0.989	rating	0.1889	age	pain	female	African	young	n/a
118.704	0.606	rating_mouse_trajectory	0.1889	age	pain	female	African	young	n/a
121.245	1.311	face	n/a	age	surprise	male	EA	young	task-faces/2Surprise_Model2_2Male_2EA_1Young.mp4
122.556	1.704	rating	0.286	age	surprise	male	EA	young	n/a
123.106	1.154	rating_mouse_trajectory	0.286	age	surprise	male	EA	young	n/a
125.464	1.31	face	n/a	age	happy	male	WC	young	task-faces/1Happy_Model2_2Male_1WC_1Young.mp4
126.774	0.786	rating	0.6986	age	happy	male	WC	young	n/a
127.074	0.486	rating_mouse_trajectory	0.6986	age	happy	male	WC	young	n/a
129.684	1.308	face	n/a	age	disgust	female	EA	young	task-faces/4Disgust_Model5_1Female_2EA_1Young.mp4
130.992	0.401	rating	0.466	age	disgust	female	EA	young	n/a
n/a	n/a	rating_mouse_trajectory	0.466	age	disgust	female	EA	young	n/a
132.898	1.312	face	n/a	age	happy	male	African	old	task-faces/1Happy_Model3_2Male_3African_2Old.mp4
134.21	1.052	rating	0.8463	age	happy	male	African	old	n/a
134.543	0.718	rating_mouse_trajectory	0.8463	age	happy	male	African	old	n/a
136.114	2.047	face	n/a	age	pleasure	male	African	young	task-faces/8Pleasure_Model2_2Male_3African_1Young.mp4
138.161	0.635	rating	0.466	age	pleasure	male	African	young	n/a
n/a	n/a	rating_mouse_trajectory	0.466	age	pleasure	male	African	young	n/a
141.085	1.311	face	n/a	age	anger	female	WC	old	task-faces/5Anger_Model1_1Female_1WC_2Old.mp4
142.396	1.085	rating	0.8281	age	anger	female	WC	old	n/a
142.73	0.752	rating_mouse_trajectory	0.8281	age	anger	female	WC	old	n/a
144.315	1.316	face	n/a	age	disgust	female	EA	old	task-faces/4Disgust_Model3_1Female_2EA_2Old.mp4
145.631	1.018	rating	0.6703	age	disgust	female	EA	old	n/a
146.098	0.552	rating_mouse_trajectory	0.6703	age	disgust	female	EA	old	n/a
147.537	1.312	face	n/a	age	surprise	female	African	old	task-faces/2Surprise_Model1_1Female_3African_2Old.mp4
148.849	0.961	rating	0.9009	age	surprise	female	African	old	n/a
149.115	0.694	rating_mouse_trajectory	0.9009	age	surprise	female	African	old	n/a
152.757	1.31	face	n/a	age	anger	female	EA	young	task-faces/5Anger_Model1_1Female_2EA_1Young.mp4
154.067	0.343	rating	0.466	age	anger	female	EA	young	n/a
n/a	n/a	rating_mouse_trajectory	0.466	age	anger	female	EA	young	n/a
157.991	1.311	face	n/a	age	fear	male	WC	old	task-faces/3Fear_Model1_2Male_1WC_2Old.mp4
159.303	0.824	rating	0.7573	age	fear	male	WC	old	n/a
159.586	0.54	rating_mouse_trajectory	0.7573	age	fear	male	WC	old	n/a
164.227	1.312	face	n/a	age	fear	male	EA	young	task-faces/3Fear_Model1_2Male_2EA_1Young.mp4
165.538	0.788	rating	0.2516	age	fear	male	EA	young	n/a
165.972	0.355	rating_mouse_trajectory	0.2516	age	fear	male	EA	young	n/a
168.462	1.311	face	n/a	age	anger	female	African	young	task-faces/5Anger_Model2_1Female_3African_1Young.mp4
169.773	0.57	rating	0.466	age	anger	female	African	young	n/a
n/a	n/a	rating_mouse_trajectory	0.466	age	anger	female	African	young	n/a
172.697	1.311	face	n/a	age	anger	male	African	young	task-faces/5Anger_Model1_2Male_3African_1Young.mp4
174.008	0.635	rating	0.6076	age	anger	male	African	young	n/a
174.258	0.385	rating_mouse_trajectory	0.6076	age	anger	male	African	young	n/a
175.912	2.048	face	n/a	age	pleasure	male	African	old	task-faces/8Pleasure_Model2_2Male_3African_2Old.mp4
177.96	0.918	rating	0.9231	age	pleasure	male	African	old	n/a
178.16	0.718	rating_mouse_trajectory	0.9231	age	pleasure	male	African	old	n/a
180.882	1.312	face	n/a	age	disgust	male	African	old	task-faces/4Disgust_Model1_2Male_3African_2Old.mp4
182.195	1.402	rating	0.9737	age	disgust	male	African	old	n/a
182.511	1.085	rating_mouse_trajectory	0.9737	age	disgust	male	African	old	n/a
184.115	1.315	face	n/a	age	disgust	male	WC	old	task-faces/4Disgust_Model3_2Male_1WC_2Old.mp4
185.429	1.802	rating	0.9535	age	disgust	male	WC	old	n/a
185.729	1.502	rating_mouse_trajectory	0.9535	age	disgust	male	WC	old	n/a
189.348	1.316	face	n/a	age	surprise	female	EA	old	task-faces/2Surprise_Model4_1Female_2EA_2Old.mp4
190.664	1.485	rating	0.9676	age	surprise	female	EA	old	n/a
190.964	1.185	rating_mouse_trajectory	0.9676	age	surprise	female	EA	old	n/a
194.582	1.317	face	n/a	age	anger	male	African	old	task-faces/5Anger_Model5_2Male_3African_2Old.mp4
195.9	1.085	rating	0.8827	age	anger	male	African	old	n/a
196.2	0.785	rating_mouse_trajectory	0.8827	age	anger	male	African	old	n/a
198.807	1.311	face	n/a	age	anger	male	WC	young	task-faces/5Anger_Model4_2Male_1WC_1Young.mp4
200.118	0.508	rating	0.466	age	anger	male	WC	young	n/a
n/a	n/a	rating_mouse_trajectory	0.466	age	anger	male	WC	young	n/a
203.042	1.311	face	n/a	age	surprise	male	WC	old	task-faces/2Surprise_Model5_2Male_1WC_2Old.mp4
204.353	0.857	rating	0.6663	age	surprise	male	WC	old	n/a
204.686	0.524	rating_mouse_trajectory	0.6663	age	surprise	male	WC	old	n/a
207.277	2.045	face	n/a	age	pain	male	WC	young	task-faces/7Pain_Model5_2Male_1WC_1Young.mp4
209.321	0.322	rating	0.466	age	pain	male	WC	young	n/a
n/a	n/a	rating_mouse_trajectory	0.466	age	pain	male	WC	young	n/a
212.245	1.311	face	n/a	age	disgust	female	WC	old	task-faces/4Disgust_Model2_1Female_1WC_2Old.mp4
213.556	0.887	rating	0.7148	age	disgust	female	WC	old	n/a
213.79	0.654	rating_mouse_trajectory	0.7148	age	disgust	female	WC	old	n/a
216.464	2.044	face	n/a	age	pain	female	EA	young	task-faces/7Pain_Model4_1Female_2EA_1Young.mp4
218.508	0.302	rating	0.466	age	pain	female	EA	young	n/a
n/a	n/a	rating_mouse_trajectory	0.466	age	pain	female	EA	young	n/a
221.416	1.311	face	n/a	age	sad	male	WC	old	task-faces/6Sad_Model1_2Male_1WC_2Old.mp4
222.726	1.469	rating	0.7714	age	sad	male	WC	old	n/a
223.01	1.185	rating_mouse_trajectory	0.7714	age	sad	male	WC	old	n/a
225.649	2.046	face	n/a	age	pleasure	female	WC	old	task-faces/8Pleasure_Model1_1Female_1WC_2Old.mp4
227.695	1.168	rating	0.8685	age	pleasure	female	WC	old	n/a
227.845	1.018	rating_mouse_trajectory	0.8685	age	pleasure	female	WC	old	n/a
229.614	1.315	face	n/a	age	fear	female	WC	old	task-faces/3Fear_Model3_1Female_1WC_2Old.mp4
230.929	0.818	rating	0.7512	age	fear	female	WC	old	n/a
231.213	0.535	rating_mouse_trajectory	0.7512	age	fear	female	WC	old	n/a
232.848	2.05	face	n/a	age	pain	male	WC	old	task-faces/7Pain_Model1_2Male_1WC_2Old.mp4
234.898	1.702	rating	0.8483	age	pain	male	WC	old	n/a
235.198	1.402	rating_mouse_trajectory	0.8483	age	pain	male	WC	old	n/a
238.816	1.3	face	n/a	age	disgust	male	African	young	task-faces/4Disgust_Model2_2Male_3African_1Young.mp4
240.116	1.144	rating	0.7472	age	disgust	male	African	young	n/a
240.666	0.594	rating_mouse_trajectory	0.7472	age	disgust	male	African	young	n/a
242.032	2.036	face	n/a	age	pain	female	WC	young	task-faces/7Pain_Model2_1Female_1WC_1Young.mp4
244.068	0.992	rating	0.1808	age	pain	female	WC	young	n/a
244.351	0.709	rating_mouse_trajectory	0.1808	age	pain	female	WC	young	n/a
249.991	1.313	face	n/a	age	anger	female	EA	old	task-faces/5Anger_Model3_1Female_2EA_2Old.mp4
251.304	1.089	rating	0.6744	age	anger	female	EA	old	n/a
251.87	0.523	rating_mouse_trajectory	0.6744	age	anger	female	EA	old	n/a
253.227	1.312	face	n/a	age	surprise	female	African	young	task-faces/2Surprise_Model4_1Female_3African_1Young.mp4
254.538	0.988	rating	0.2577	age	surprise	female	African	young	n/a
254.922	0.605	rating_mouse_trajectory	0.2577	age	surprise	female	African	young	n/a
257.462	1.311	face	n/a	age	fear	female	EA	old	task-faces/3Fear_Model2_1Female_2EA_2Old.mp4
258.773	0.987	rating	0.64	age	fear	female	EA	old	n/a
259.04	0.72	rating_mouse_trajectory	0.64	age	fear	female	EA	old	n/a
261.699	2.043	face	n/a	age	pleasure	female	African	young	task-faces/8Pleasure_Model5_1Female_3African_1Young.mp4
263.742	0.985	rating	0.2091	age	pleasure	female	African	young	n/a
264.058	0.668	rating_mouse_trajectory	0.2091	age	pleasure	female	African	young	n/a
266.648	2.046	face	n/a	age	pleasure	female	African	old	task-faces/8Pleasure_Model4_1Female_3African_2Old.mp4
268.693	0.818	rating	0.7917	age	pleasure	female	African	old	n/a
268.943	0.568	rating_mouse_trajectory	0.7917	age	pleasure	female	African	old	n/a
270.616	2.045	face	n/a	age	pleasure	male	WC	young	task-faces/8Pleasure_Model5_2Male_1WC_1Young.mp4
272.662	0.268	rating	0.466	age	pleasure	male	WC	young	n/a
n/a	n/a	rating_mouse_trajectory	0.466	age	pleasure	male	WC	young	n/a
275.582	1.315	face	n/a	age	happy	male	African	young	task-faces/1Happy_Model5_2Male_3African_1Young.mp4
276.897	0.685	rating	0.6076	age	happy	male	African	young	n/a
277.163	0.418	rating_mouse_trajectory	0.6076	age	happy	male	African	young	n/a
278.815	1.299	face	n/a	age	surprise	male	African	young	task-faces/2Surprise_Model4_2Male_3African_1Young.mp4
280.114	0.985	rating	0.6117	age	surprise	male	African	young	n/a
280.731	0.368	rating_mouse_trajectory	0.6117	age	surprise	male	African	young	n/a
283.031	2.051	face	n/a	age	pain	female	EA	old	task-faces/7Pain_Model3_1Female_2EA_2Old.mp4
285.083	0.918	rating	0.9373	age	pain	female	EA	old	n/a
285.416	0.585	rating_mouse_trajectory	0.9373	age	pain	female	EA	old	n/a
287.989	1.312	face	n/a	age	disgust	male	EA	old	task-faces/4Disgust_Model4_2Male_2EA_2Old.mp4
289.301	1.025	rating	0.6339	age	disgust	male	EA	old	n/a
289.635	0.692	rating_mouse_trajectory	0.6339	age	disgust	male	EA	old	n/a
291.223	2.046	face	n/a	age	pain	male	African	old	task-faces/7Pain_Model4_2Male_3African_2Old.mp4
293.269	1.157	rating	0.7816	age	pain	male	African	old	n/a
293.519	0.907	rating_mouse_trajectory	0.7816	age	pain	male	African	old	n/a
297.193	1.311	face	n/a	age	sad	female	African	young	task-faces/6Sad_Model5_1Female_3African_1Young.mp4
298.505	0.788	rating	0.0878	age	sad	female	African	young	n/a
298.838	0.455	rating_mouse_trajectory	0.0878	age	sad	female	African	young	n/a
301.428	2.045	face	n/a	age	pain	male	EA	young	task-faces/7Pain_Model3_2Male_2EA_1Young.mp4
303.473	0.837	rating	0.5934	age	pain	male	EA	young	n/a
303.956	0.353	rating_mouse_trajectory	0.5934	age	pain	male	EA	young	n/a
306.397	1.311	face	n/a	age	sad	female	EA	young	task-faces/6Sad_Model3_1Female_2EA_1Young.mp4
307.708	0.952	rating	0.371	age	sad	female	EA	young	n/a
308.241	0.419	rating_mouse_trajectory	0.371	age	sad	female	EA	young	n/a
309.612	2.048	face	n/a	age	pleasure	female	WC	young	task-faces/8Pleasure_Model1_1Female_1WC_1Young.mp4
311.66	0.785	rating	0.2415	age	pleasure	female	WC	young	n/a
311.926	0.518	rating_mouse_trajectory	0.2415	age	pleasure	female	WC	young	n/a
313.582	1.312	face	n/a	age	surprise	female	EA	young	task-faces/2Surprise_Model3_1Female_2EA_1Young.mp4
314.894	0.334	rating	0.466	age	surprise	female	EA	young	n/a
n/a	n/a	rating_mouse_trajectory	0.466	age	surprise	female	EA	young	n/a
317.815	1.314	face	n/a	age	sad	female	WC	old	task-faces/6Sad_Model1_1Female_1WC_2Old.mp4
319.129	1.414	rating	0.8018	age	sad	female	WC	old	n/a
319.529	1.014	rating_mouse_trajectory	0.8018	age	sad	female	WC	old	n/a
322.049	1.315	face	n/a	age	fear	female	African	young	task-faces/3Fear_Model5_1Female_3African_1Young.mp4
323.364	1.152	rating	0.7168	age	fear	female	African	young	n/a
323.847	0.669	rating_mouse_trajectory	0.7168	age	fear	female	African	young	n/a
326.271	2.045	face	n/a	age	pain	female	WC	old	task-faces/7Pain_Model5_1Female_1WC_2Old.mp4
328.316	1.094	rating	0.8483	age	pain	female	WC	old	n/a
328.666	0.744	rating_mouse_trajectory	0.8483	age	pain	female	WC	old	n/a
330.221	2.046	face	n/a	age	pain	female	African	old	task-faces/7Pain_Model3_1Female_3African_2Old.mp4
332.267	1.652	rating	0.8766	age	pain	female	African	old	n/a
332.651	1.268	rating_mouse_trajectory	0.8766	age	pain	female	African	old	n/a
336.181	1.304	face	n/a	age	anger	male	EA	old	task-faces/5Anger_Model3_2Male_2EA_2Old.mp4
337.486	1.857	rating	0.8584	age	anger	male	EA	old	n/a
338.336	1.007	rating_mouse_trajectory	0.8584	age	anger	male	EA	old	n/a
340.409	1.312	face	n/a	age	happy	male	EA	young	task-faces/1Happy_Model2_2Male_2EA_1Young.mp4
341.721	1.106	rating	0.6764	age	happy	male	EA	young	n/a
342.554	0.272	rating_mouse_trajectory	0.6764	age	happy	male	EA	young	n/a
345.648	1.308	face	n/a	age	sad	male	EA	old	task-faces/6Sad_Model2_2Male_2EA_2Old.mp4
346.956	1.871	rating	0.8928	age	sad	male	EA	old	n/a
347.373	1.454	rating_mouse_trajectory	0.8928	age	sad	male	EA	old	n/a
349.864	2.043	face	n/a	age	pleasure	male	EA	old	task-faces/8Pleasure_Model4_2Male_2EA_2Old.mp4
351.908	1.535	rating	0.8867	age	pleasure	male	EA	old	n/a
352.175	1.269	rating_mouse_trajectory	0.8867	age	pleasure	male	EA	old	n/a
354.814	1.312	face	n/a	age	disgust	male	EA	young	task-faces/4Disgust_Model2_2Male_2EA_1Young.mp4
356.126	0.885	rating	0.466	age	disgust	male	EA	young	n/a
n/a	n/a	rating_mouse_trajectory	0.466	age	disgust	male	EA	young	n/a
360.032	1.312	face	n/a	age	fear	female	WC	young	task-faces/3Fear_Model2_1Female_1WC_1Young.mp4
361.345	0.351	rating	0.466	age	fear	female	WC	young	n/a
n/a	n/a	rating_mouse_trajectory	0.466	age	fear	female	WC	young	n/a
363.264	1.315	face	n/a	age	fear	male	WC	young	task-faces/3Fear_Model5_2Male_1WC_1Young.mp4
364.579	0.752	rating	0.6339	age	fear	male	WC	young	n/a
364.813	0.518	rating_mouse_trajectory	0.6339	age	fear	male	WC	young	n/a
366.498	1.316	face	n/a	age	surprise	female	WC	young	task-faces/2Surprise_Model2_1Female_1WC_1Young.mp4
367.814	0.351	rating	0.466	age	surprise	female	WC	young	n/a
n/a	n/a	rating_mouse_trajectory	0.466	age	surprise	female	WC	young	n/a
371.732	1.317	face	n/a	age	anger	female	WC	young	task-faces/5Anger_Model5_1Female_1WC_1Young.mp4
373.049	0.885	rating	0.5672	age	anger	female	WC	young	n/a
373.416	0.518	rating_mouse_trajectory	0.5672	age	anger	female	WC	young	n/a
375.964	1.303	face	n/a	age	surprise	male	EA	old	task-faces/2Surprise_Model1_2Male_2EA_2Old.mp4
377.267	1.176	rating	0.8443	age	surprise	male	EA	old	n/a
377.634	0.809	rating_mouse_trajectory	0.8443	age	surprise	male	EA	old	n/a
380.191	1.312	face	n/a	age	fear	male	EA	old	task-faces/3Fear_Model2_2Male_2EA_2Old.mp4
381.502	1.158	rating	0.907	age	fear	male	EA	old	n/a
381.819	0.841	rating_mouse_trajectory	0.907	age	fear	male	EA	old	n/a
386.426	1.312	face	n/a	age	happy	female	African	old	task-faces/1Happy_Model4_1Female_3African_2Old.mp4
387.738	1.172	rating	0.8362	age	happy	female	African	old	n/a
388.038	0.872	rating_mouse_trajectory	0.8362	age	happy	female	African	old	n/a
389.664	2.042	face	n/a	age	pleasure	female	EA	old	task-faces/8Pleasure_Model3_1Female_2EA_2Old.mp4
391.706	1.504	rating	0.818	age	pleasure	female	EA	old	n/a
392.006	1.204	rating_mouse_trajectory	0.818	age	pleasure	female	EA	old	n/a
395.614	1.311	face	n/a	age	fear	female	EA	young	task-faces/3Fear_Model2_1Female_2EA_1Young.mp4
396.925	0.869	rating	0.0777	age	fear	female	EA	young	n/a
397.225	0.569	rating_mouse_trajectory	0.0777	age	fear	female	EA	young	n/a
399.832	1.311	face	n/a	age	sad	female	African	old	task-faces/6Sad_Model4_1Female_3African_2Old.mp4
401.143	1.735	rating	0.8847	age	sad	female	African	old	n/a
401.41	1.469	rating_mouse_trajectory	0.8847	age	sad	female	African	old	n/a
405.066	2.045	face	n/a	age	pain	male	EA	old	task-faces/7Pain_Model1_2Male_2EA_2Old.mp4
407.112	0.835	rating	0.735	age	pain	male	EA	old	n/a
407.345	0.601	rating_mouse_trajectory	0.735	age	pain	male	EA	old	n/a
410.033	1.314	face	n/a	age	sad	female	EA	old	task-faces/6Sad_Model1_1Female_2EA_2Old.mp4
411.347	1.101	rating	0.8625	age	sad	female	EA	old	n/a
411.697	0.751	rating_mouse_trajectory	0.8625	age	sad	female	EA	old	n/a
413.253	1.312	face	n/a	age	happy	female	African	young	task-faces/1Happy_Model4_1Female_3African_1Young.mp4
414.565	1.535	rating	0.6683	age	happy	female	African	young	n/a
414.998	1.102	rating_mouse_trajectory	0.6683	age	happy	female	African	young	n/a
416.481	1.302	face	n/a	age	sad	male	WC	young	task-faces/6Sad_Model5_2Male_1WC_1Young.mp4
417.782	0.744	rating	0.2557	age	sad	male	WC	young	n/a
418.182	0.344	rating_mouse_trajectory	0.2557	age	sad	male	WC	young	n/a
