onset	duration	run_type	trial_type	trial_index	cue	stimulusintensity	rating_value	rating_glmslabel	rating_value_fillna	rating_glmslabel_fillna	rating_mouseonset	rating_mousedur	stim_file	pain_onset_ttl1	pain_onset_ttl2	pain_onset_ttl3	pain_onset_ttl4	pain_stimulus_delivery_success	cognitive_correct_response	cognitive_participant_response	cognitive_response_accuracy
5.0	0.98	pain	cue	1	low_cue	n/a	n/a	n/a	n/a	n/a	n/a	n/a	task-social/cue/runtype-pain/scl/l044.png	n/a	n/a	n/a	n/a	n/a	n/a	n/a	n/a
7.6	2.82	pain	expectrating	1	low_cue	n/a	62.51	Strong	62.51	Strong	0.33	2.48	task-social/cue/runtype-pain/scl/l044.png	n/a	n/a	n/a	n/a	n/a	n/a	n/a	n/a
16.81	12.82	pain	stimulus	1	low_cue	high_stim	n/a	n/a	n/a	n/a	n/a	n/a	n/a	16.81	20.82	25.82	29.63	success	n/a	n/a	n/a
28.79	2.31	pain	outcomerating	1	low_cue	high_stim	118.27	Strongest sensation of any kind	118.27	Strongest sensation of any kind	0.33	2.48	task-social/outcomerating/task-pain_scale.png	n/a	n/a	n/a	n/a	success	n/a	n/a	n/a
37.4	1.0	pain	cue	2	high_cue	n/a	n/a	n/a	n/a	n/a	n/a	n/a	task-social/cue/runtype-pain/sch/h047.png	n/a	n/a	n/a	n/a	n/a	n/a	n/a	n/a
39.7	1.82	pain	expectrating	2	high_cue	n/a	98.52	Strongest sensation of any kind	98.52	Strongest sensation of any kind	0.32	1.51	task-social/cue/runtype-pain/sch/h047.png	n/a	n/a	n/a	n/a	n/a	n/a	n/a	n/a
50.02	12.369999999999997	pain	stimulus	2	high_cue	med_stim	n/a	n/a	n/a	n/a	n/a	n/a	n/a	50.02	53.78	58.78	62.39	success	n/a	n/a	n/a
65.49	2.98	pain	outcomerating	2	high_cue	med_stim	57.58	Strong	57.58	Strong	0.32	1.51	task-social/outcomerating/task-pain_scale.png	n/a	n/a	n/a	n/a	success	n/a	n/a	n/a
70.69	1.0	pain	cue	3	low_cue	n/a	n/a	n/a	n/a	n/a	n/a	n/a	task-social/cue/runtype-pain/scl/l055.png	n/a	n/a	n/a	n/a	n/a	n/a	n/a	n/a
72.99	1.85	pain	expectrating	3	low_cue	n/a	46.46	Strong	46.46	Strong	0.3	1.55	task-social/cue/runtype-pain/scl/l055.png	n/a	n/a	n/a	n/a	n/a	n/a	n/a	n/a
77.9	11.909999999999997	pain	stimulus	3	low_cue	low_stim	n/a	n/a	n/a	n/a	n/a	n/a	n/a	77.9	81.4	86.4	89.8	success	n/a	n/a	n/a
88.3	3.09	pain	outcomerating	3	low_cue	low_stim	47.46	Strong	47.46	Strong	0.3	1.55	task-social/outcomerating/task-pain_scale.png	n/a	n/a	n/a	n/a	success	n/a	n/a	n/a
100.19	1.0	pain	cue	4	high_cue	n/a	n/a	n/a	n/a	n/a	n/a	n/a	task-social/cue/runtype-pain/sch/h033.png	n/a	n/a	n/a	n/a	n/a	n/a	n/a	n/a
102.8	2.83	pain	expectrating	4	high_cue	n/a	87.68	Very Strong	87.68	Very Strong	0.8	2.03	task-social/cue/runtype-pain/sch/h033.png	n/a	n/a	n/a	n/a	n/a	n/a	n/a	n/a
108.22	11.900000000000006	pain	stimulus	4	high_cue	low_stim	n/a	n/a	n/a	n/a	n/a	n/a	n/a	108.22	111.72	116.72	120.12	success	n/a	n/a	n/a
123.69	3.37	pain	outcomerating	4	high_cue	low_stim	63.54	Strong	63.54	Strong	0.8	2.03	task-social/outcomerating/task-pain_scale.png	n/a	n/a	n/a	n/a	success	n/a	n/a	n/a
132.6	1.0	pain	cue	5	low_cue	n/a	n/a	n/a	n/a	n/a	n/a	n/a	task-social/cue/runtype-pain/scl/l043.png	n/a	n/a	n/a	n/a	n/a	n/a	n/a	n/a
135.2	2.55	pain	expectrating	5	low_cue	n/a	47.76	Strong	47.76	Strong	0.18	2.37	task-social/cue/runtype-pain/scl/l043.png	n/a	n/a	n/a	n/a	n/a	n/a	n/a	n/a
145.53	12.359999999999985	pain	stimulus	5	low_cue	med_stim	n/a	n/a	n/a	n/a	n/a	n/a	n/a	145.53	149.29	154.29	157.9	success	n/a	n/a	n/a
156.39	n/a	pain	outcomerating	5	low_cue	med_stim	n/a	n/a	43.66	Strong	0.18	2.37	task-social/outcomerating/task-pain_scale.png	n/a	n/a	n/a	n/a	success	n/a	n/a	n/a
165.29	1.0	pain	cue	6	high_cue	n/a	n/a	n/a	n/a	n/a	n/a	n/a	task-social/cue/runtype-pain/sch/h053.png	n/a	n/a	n/a	n/a	n/a	n/a	n/a	n/a
167.59	1.56	pain	expectrating	6	high_cue	n/a	95.62	Very Strong	95.62	Very Strong	0.32	1.24	task-social/cue/runtype-pain/sch/h053.png	n/a	n/a	n/a	n/a	n/a	n/a	n/a	n/a
177.84	12.819999999999993	pain	stimulus	6	high_cue	high_stim	n/a	n/a	n/a	n/a	n/a	n/a	n/a	177.84	181.85	186.85	190.66	success	n/a	n/a	n/a
190.6	3.05	pain	outcomerating	6	high_cue	high_stim	84.54	Very Strong	84.54	Very Strong	0.32	1.24	task-social/outcomerating/task-pain_scale.png	n/a	n/a	n/a	n/a	success	n/a	n/a	n/a
199.39	1.0	pain	cue	7	low_cue	n/a	n/a	n/a	n/a	n/a	n/a	n/a	task-social/cue/runtype-pain/scl/l015.png	n/a	n/a	n/a	n/a	n/a	n/a	n/a	n/a
201.79	1.33	pain	expectrating	7	low_cue	n/a	46.96	Strong	46.96	Strong	0.07	1.27	task-social/cue/runtype-pain/scl/l015.png	n/a	n/a	n/a	n/a	n/a	n/a	n/a	n/a
212.12	11.900000000000006	pain	stimulus	7	low_cue	low_stim	n/a	n/a	n/a	n/a	n/a	n/a	n/a	212.12	215.62	220.62	224.02	success	n/a	n/a	n/a
231.0	2.47	pain	outcomerating	7	low_cue	low_stim	27.91	Moderate	27.91	Moderate	0.07	1.27	task-social/outcomerating/task-pain_scale.png	n/a	n/a	n/a	n/a	success	n/a	n/a	n/a
236.39	1.0	pain	cue	8	low_cue	n/a	n/a	n/a	n/a	n/a	n/a	n/a	task-social/cue/runtype-pain/scl/l053.png	n/a	n/a	n/a	n/a	n/a	n/a	n/a	n/a
239.1	2.7	pain	expectrating	8	low_cue	n/a	53.64	Strong	53.64	Strong	1.18	1.52	task-social/cue/runtype-pain/scl/l053.png	n/a	n/a	n/a	n/a	n/a	n/a	n/a	n/a
245.42	12.820000000000022	pain	stimulus	8	low_cue	high_stim	n/a	n/a	n/a	n/a	n/a	n/a	n/a	245.42	249.43	254.43	258.24	success	n/a	n/a	n/a
261.2	3.21	pain	outcomerating	8	low_cue	high_stim	108.36	Strongest sensation of any kind	108.36	Strongest sensation of any kind	1.18	1.52	task-social/outcomerating/task-pain_scale.png	n/a	n/a	n/a	n/a	success	n/a	n/a	n/a
266.5	1.0	pain	cue	9	high_cue	n/a	n/a	n/a	n/a	n/a	n/a	n/a	task-social/cue/runtype-pain/sch/h015.png	n/a	n/a	n/a	n/a	n/a	n/a	n/a	n/a
269.7	2.62	pain	expectrating	9	high_cue	n/a	77.37	Very Strong	77.37	Very Strong	0.33	2.29	task-social/cue/runtype-pain/sch/h015.png	n/a	n/a	n/a	n/a	n/a	n/a	n/a	n/a
278.24	12.819999999999993	pain	stimulus	9	high_cue	high_stim	n/a	n/a	n/a	n/a	n/a	n/a	n/a	278.24	282.25	287.25	291.06	success	n/a	n/a	n/a
290.69	2.75	pain	outcomerating	9	high_cue	high_stim	110.69	Strongest sensation of any kind	110.69	Strongest sensation of any kind	0.33	2.29	task-social/outcomerating/task-pain_scale.png	n/a	n/a	n/a	n/a	success	n/a	n/a	n/a
304.5	1.0	pain	cue	10	high_cue	n/a	n/a	n/a	n/a	n/a	n/a	n/a	task-social/cue/runtype-pain/sch/h027.png	n/a	n/a	n/a	n/a	n/a	n/a	n/a	n/a
307.4	1.82	pain	expectrating	10	high_cue	n/a	104.37	Strongest sensation of any kind	104.37	Strongest sensation of any kind	0.3	1.52	task-social/cue/runtype-pain/sch/h027.png	n/a	n/a	n/a	n/a	n/a	n/a	n/a	n/a
317.62	12.370000000000005	pain	stimulus	10	high_cue	med_stim	n/a	n/a	n/a	n/a	n/a	n/a	n/a	317.62	321.38	326.38	329.99	success	n/a	n/a	n/a
329.69	2.73	pain	outcomerating	10	high_cue	med_stim	77.97	Very Strong	77.97	Very Strong	0.3	1.52	task-social/outcomerating/task-pain_scale.png	n/a	n/a	n/a	n/a	success	n/a	n/a	n/a
335.89	1.0	pain	cue	11	high_cue	n/a	n/a	n/a	n/a	n/a	n/a	n/a	task-social/cue/runtype-pain/sch/h010.png	n/a	n/a	n/a	n/a	n/a	n/a	n/a	n/a
338.29	2.03	pain	expectrating	11	high_cue	n/a	89.31	Very Strong	89.31	Very Strong	0.08	1.94	task-social/cue/runtype-pain/sch/h010.png	n/a	n/a	n/a	n/a	n/a	n/a	n/a	n/a
344.62	11.899999999999977	pain	stimulus	11	high_cue	low_stim	n/a	n/a	n/a	n/a	n/a	n/a	n/a	344.62	348.12	353.12	356.52	success	n/a	n/a	n/a
358.3	3.2	pain	outcomerating	11	high_cue	low_stim	86.54	Very Strong	86.54	Very Strong	0.08	1.94	task-social/outcomerating/task-pain_scale.png	n/a	n/a	n/a	n/a	success	n/a	n/a	n/a
371.19	1.0	pain	cue	12	low_cue	n/a	n/a	n/a	n/a	n/a	n/a	n/a	task-social/cue/runtype-pain/scl/l021.png	n/a	n/a	n/a	n/a	n/a	n/a	n/a	n/a
373.1	1.77	pain	expectrating	12	low_cue	n/a	60.14	Strong	60.14	Strong	0.27	1.5	task-social/cue/runtype-pain/scl/l021.png	n/a	n/a	n/a	n/a	n/a	n/a	n/a	n/a
383.23	12.359999999999957	pain	stimulus	12	low_cue	med_stim	n/a	n/a	n/a	n/a	n/a	n/a	n/a	383.23	386.99	391.99	395.6	success	n/a	n/a	n/a
394.9	2.86	pain	outcomerating	12	low_cue	med_stim	63.54	Strong	63.54	Strong	0.27	1.5	task-social/outcomerating/task-pain_scale.png	n/a	n/a	n/a	n/a	success	n/a	n/a	n/a
