onset	duration	run_type	trial_type	trial_index	cue	stimulusintensity	rating_value	rating_glmslabel	rating_value_fillna	rating_glmslabel_fillna	rating_mouseonset	rating_mousedur	stim_file_TODO	pain_onset_ttl1	pain_onset_ttl2	pain_onset_ttl3	pain_onset_ttl4	pain_stimulus_delivery_success	cognitive_correct_response	cognitive_participant_response	cognitive_response_accuracy
5.7	1.0	pain	cue	1	low_cue	n/a	n/a	n/a	n/a	n/a	n/a	n/a	task-social/cue/runtype-pain/scl/l018.png	n/a	n/a	n/a	n/a	n/a	n/a	n/a	n/a
9.02	1.8	pain	expectrating	1	low_cue	n/a	8.75	Weak	8.75	Weak	0.17	1.63	task-social/cue/runtype-pain/scl/l018.png	n/a	n/a	n/a	n/a	n/a	n/a	n/a	n/a
17.42	12.36	pain	stimulus	1	low_cue	med_stim	n/a	n/a	n/a	n/a	n/a	n/a	n/a	17.42	21.18	26.18	29.79	success	n/a	n/a	n/a
28.1	n/a	pain	outcomerating	1	low_cue	med_stim	n/a	n/a	84.22	Very Strong	0.17	1.63	task-social/outcomerating/task-pain_scale.png	n/a	n/a	n/a	n/a	success	n/a	n/a	n/a
35.0	1.0	pain	cue	2	high_cue	n/a	n/a	n/a	n/a	n/a	n/a	n/a	task-social/cue/runtype-pain/sch/h017.png	n/a	n/a	n/a	n/a	n/a	n/a	n/a	n/a
37.7	2.69	pain	expectrating	2	high_cue	n/a	92.3	Very Strong	92.3	Very Strong	0.58	2.11	task-social/cue/runtype-pain/sch/h017.png	n/a	n/a	n/a	n/a	n/a	n/a	n/a	n/a
42.73	11.900000000000006	pain	stimulus	2	high_cue	low_stim	n/a	n/a	n/a	n/a	n/a	n/a	n/a	42.73	46.23	51.23	54.63	success	n/a	n/a	n/a
58.21	2.7	pain	outcomerating	2	high_cue	low_stim	33.95	Strong	33.95	Strong	0.58	2.11	task-social/outcomerating/task-pain_scale.png	n/a	n/a	n/a	n/a	success	n/a	n/a	n/a
62.69	1.0	pain	cue	3	low_cue	n/a	n/a	n/a	n/a	n/a	n/a	n/a	task-social/cue/runtype-pain/scl/l023.png	n/a	n/a	n/a	n/a	n/a	n/a	n/a	n/a
65.89	3.47	pain	expectrating	3	low_cue	n/a	26.89	Moderate	26.89	Moderate	0.38	3.09	task-social/cue/runtype-pain/scl/l023.png	n/a	n/a	n/a	n/a	n/a	n/a	n/a	n/a
76.43	12.819999999999993	pain	stimulus	3	low_cue	high_stim	n/a	n/a	n/a	n/a	n/a	n/a	n/a	76.43	80.44	85.44	89.25	success	n/a	n/a	n/a
91.6	3.44	pain	outcomerating	3	low_cue	high_stim	75.96	Very Strong	75.96	Very Strong	0.38	3.09	task-social/outcomerating/task-pain_scale.png	n/a	n/a	n/a	n/a	success	n/a	n/a	n/a
96.1	0.98	pain	cue	4	high_cue	n/a	n/a	n/a	n/a	n/a	n/a	n/a	task-social/cue/runtype-pain/sch/h038.png	n/a	n/a	n/a	n/a	n/a	n/a	n/a	n/a
98.41	2.0	pain	expectrating	4	high_cue	n/a	63.33	Strong	63.33	Strong	0.57	1.43	task-social/cue/runtype-pain/sch/h038.png	n/a	n/a	n/a	n/a	n/a	n/a	n/a	n/a
104.65	12.36	pain	stimulus	4	high_cue	med_stim	n/a	n/a	n/a	n/a	n/a	n/a	n/a	104.65	108.41	113.41	117.02	success	n/a	n/a	n/a
114.8	2.53	pain	outcomerating	4	high_cue	med_stim	66.13	Very Strong	66.13	Very Strong	0.57	1.43	task-social/outcomerating/task-pain_scale.png	n/a	n/a	n/a	n/a	success	n/a	n/a	n/a
131.6	1.0	pain	cue	5	low_cue	n/a	n/a	n/a	n/a	n/a	n/a	n/a	task-social/cue/runtype-pain/scl/l004.png	n/a	n/a	n/a	n/a	n/a	n/a	n/a	n/a
134.3	1.35	pain	expectrating	5	low_cue	n/a	54.14	Strong	54.14	Strong	0.17	1.19	task-social/cue/runtype-pain/scl/l004.png	n/a	n/a	n/a	n/a	n/a	n/a	n/a	n/a
141.05	12.359999999999985	pain	stimulus	5	low_cue	med_stim	n/a	n/a	n/a	n/a	n/a	n/a	n/a	141.05	144.81	149.81	153.42	success	n/a	n/a	n/a
156.19	2.55	pain	outcomerating	5	low_cue	med_stim	59.08	Strong	59.08	Strong	0.17	1.19	task-social/outcomerating/task-pain_scale.png	n/a	n/a	n/a	n/a	success	n/a	n/a	n/a
163.4	1.0	pain	cue	6	low_cue	n/a	n/a	n/a	n/a	n/a	n/a	n/a	task-social/cue/runtype-pain/scl/l012.png	n/a	n/a	n/a	n/a	n/a	n/a	n/a	n/a
165.7	2.98	pain	expectrating	6	low_cue	n/a	0.0	n/a	0.0	n/a	0.05	2.93	task-social/cue/runtype-pain/scl/l012.png	n/a	n/a	n/a	n/a	n/a	n/a	n/a	n/a
178.85	12.819999999999993	pain	stimulus	6	low_cue	high_stim	n/a	n/a	n/a	n/a	n/a	n/a	n/a	178.85	182.86	187.86	191.67	success	n/a	n/a	n/a
188.61	2.63	pain	outcomerating	6	low_cue	high_stim	87.0	Very Strong	87.0	Very Strong	0.05	2.93	task-social/outcomerating/task-pain_scale.png	n/a	n/a	n/a	n/a	success	n/a	n/a	n/a
193.39	1.0	pain	cue	7	high_cue	n/a	n/a	n/a	n/a	n/a	n/a	n/a	task-social/cue/runtype-pain/sch/h042.png	n/a	n/a	n/a	n/a	n/a	n/a	n/a	n/a
195.01	2.13	pain	expectrating	7	high_cue	n/a	82.27	Very Strong	82.27	Very Strong	0.68	1.45	task-social/cue/runtype-pain/sch/h042.png	n/a	n/a	n/a	n/a	n/a	n/a	n/a	n/a
201.21	12.829999999999984	pain	stimulus	7	high_cue	high_stim	n/a	n/a	n/a	n/a	n/a	n/a	n/a	201.21	205.22	210.22	214.03	success	n/a	n/a	n/a
227.9	3.04	pain	outcomerating	7	high_cue	high_stim	81.56	Very Strong	81.56	Very Strong	0.68	1.45	task-social/outcomerating/task-pain_scale.png	n/a	n/a	n/a	n/a	success	n/a	n/a	n/a
234.39	1.0	pain	cue	8	low_cue	n/a	n/a	n/a	n/a	n/a	n/a	n/a	task-social/cue/runtype-pain/scl/l020.png	n/a	n/a	n/a	n/a	n/a	n/a	n/a	n/a
236.01	3.1	pain	expectrating	8	low_cue	n/a	25.74	Moderate	25.74	Moderate	0.77	2.33	task-social/cue/runtype-pain/scl/l020.png	n/a	n/a	n/a	n/a	n/a	n/a	n/a	n/a
241.93	11.909999999999997	pain	stimulus	8	low_cue	low_stim	n/a	n/a	n/a	n/a	n/a	n/a	n/a	241.93	245.43	250.43	253.83	success	n/a	n/a	n/a
252.9	1.39	pain	outcomerating	8	low_cue	low_stim	25.74	Moderate	25.74	Moderate	0.77	2.33	task-social/outcomerating/task-pain_scale.png	n/a	n/a	n/a	n/a	success	n/a	n/a	n/a
259.1	1.0	pain	cue	9	low_cue	n/a	n/a	n/a	n/a	n/a	n/a	n/a	task-social/cue/runtype-pain/scl/l019.png	n/a	n/a	n/a	n/a	n/a	n/a	n/a	n/a
261.0	2.67	pain	expectrating	9	low_cue	n/a	72.9	Very Strong	72.9	Very Strong	0.73	1.94	task-social/cue/runtype-pain/scl/l019.png	n/a	n/a	n/a	n/a	n/a	n/a	n/a	n/a
274.12	11.909999999999968	pain	stimulus	9	low_cue	low_stim	n/a	n/a	n/a	n/a	n/a	n/a	n/a	274.12	277.62	282.62	286.02	success	n/a	n/a	n/a
290.99	1.9	pain	outcomerating	9	low_cue	low_stim	34.2	Strong	34.2	Strong	0.73	1.94	task-social/outcomerating/task-pain_scale.png	n/a	n/a	n/a	n/a	success	n/a	n/a	n/a
307.8	1.0	pain	cue	10	high_cue	n/a	n/a	n/a	n/a	n/a	n/a	n/a	task-social/cue/runtype-pain/sch/h039.png	n/a	n/a	n/a	n/a	n/a	n/a	n/a	n/a
311.0	1.29	pain	expectrating	10	high_cue	n/a	61.04	Strong	61.04	Strong	0.17	1.12	task-social/cue/runtype-pain/sch/h039.png	n/a	n/a	n/a	n/a	n/a	n/a	n/a	n/a
316.96	11.910000000000025	pain	stimulus	10	high_cue	low_stim	n/a	n/a	n/a	n/a	n/a	n/a	n/a	316.96	320.46	325.46	328.86	success	n/a	n/a	n/a
327.61	1.63	pain	outcomerating	10	high_cue	low_stim	59.59	Strong	59.59	Strong	0.17	1.12	task-social/outcomerating/task-pain_scale.png	n/a	n/a	n/a	n/a	success	n/a	n/a	n/a
340.7	1.0	pain	cue	11	high_cue	n/a	n/a	n/a	n/a	n/a	n/a	n/a	task-social/cue/runtype-pain/sch/h032.png	n/a	n/a	n/a	n/a	n/a	n/a	n/a	n/a
342.6	1.28	pain	expectrating	11	high_cue	n/a	61.06	Strong	61.06	Strong	0.48	0.8	task-social/cue/runtype-pain/sch/h032.png	n/a	n/a	n/a	n/a	n/a	n/a	n/a	n/a
353.35	12.370000000000005	pain	stimulus	11	high_cue	med_stim	n/a	n/a	n/a	n/a	n/a	n/a	n/a	353.35	357.11	362.11	365.72	success	n/a	n/a	n/a
363.8	1.79	pain	outcomerating	11	high_cue	med_stim	52.99	Strong	52.99	Strong	0.48	0.8	task-social/outcomerating/task-pain_scale.png	n/a	n/a	n/a	n/a	success	n/a	n/a	n/a
371.49	1.0	pain	cue	12	high_cue	n/a	n/a	n/a	n/a	n/a	n/a	n/a	task-social/cue/runtype-pain/sch/h025.png	n/a	n/a	n/a	n/a	n/a	n/a	n/a	n/a
374.81	2.98	pain	expectrating	12	high_cue	n/a	78.96	Very Strong	78.96	Very Strong	1.45	1.53	task-social/cue/runtype-pain/sch/h025.png	n/a	n/a	n/a	n/a	n/a	n/a	n/a	n/a
385.34	12.82000000000005	pain	stimulus	12	high_cue	high_stim	n/a	n/a	n/a	n/a	n/a	n/a	n/a	385.34	389.35	394.35	398.16	success	n/a	n/a	n/a
395.1	2.22	pain	outcomerating	12	high_cue	high_stim	90.7	Very Strong	90.7	Very Strong	1.45	1.53	task-social/outcomerating/task-pain_scale.png	n/a	n/a	n/a	n/a	success	n/a	n/a	n/a
