onset	duration	run_type	trial_type	trial_index	cue	stimulusintensity	rating_value	rating_glmslabel	rating_value_fillna	rating_glmslabel_fillna	rating_mouseonset	rating_mousedur	stim_file	pain_onset_ttl1	pain_onset_ttl2	pain_onset_ttl3	pain_onset_ttl4	pain_stimulus_delivery_success	cognitive_correct_response	cognitive_participant_response	cognitive_response_accuracy
9.79	0.99	vicarious	cue	1	high_cue	n/a	n/a	n/a	n/a	n/a	n/a	n/a	task-social/cue/runtype-vicarious/sch/h025.png	n/a	n/a	n/a	n/a	n/a	n/a	n/a	n/a
12.51	1.83	vicarious	expectrating	1	high_cue	n/a	75.07	Very-Strong	75.07	Very-Strong	0.33	1.5	task-social/cue/runtype-vicarious/sch/h025.png	n/a	n/a	n/a	n/a	n/a	n/a	n/a	n/a
24.19	5.0	vicarious	stimulus	1	high_cue	med_stim	n/a	n/a	n/a	n/a	n/a	n/a	task-social/stim/runtype-vicarious/ak064t1aiaff_M.mp4	n/a	n/a	n/a	n/a	n/a	n/a	n/a	n/a
33.0	2.09	vicarious	outcomerating	1	high_cue	med_stim	11.85	Moderate	11.85	Moderate	0.33	1.5	task-social/outcomerating/task-vicarious_scale.png	n/a	n/a	n/a	n/a	n/a	n/a	n/a	n/a
41.49	1.0	vicarious	cue	2	high_cue	n/a	n/a	n/a	n/a	n/a	n/a	n/a	task-social/cue/runtype-vicarious/sch/h050.png	n/a	n/a	n/a	n/a	n/a	n/a	n/a	n/a
43.01	2.23	vicarious	expectrating	2	high_cue	n/a	49.37	Strong	49.37	Strong	0.63	1.6	task-social/cue/runtype-vicarious/sch/h050.png	n/a	n/a	n/a	n/a	n/a	n/a	n/a	n/a
51.09	5.0	vicarious	stimulus	2	high_cue	high_stim	n/a	n/a	n/a	n/a	n/a	n/a	task-social/stim/runtype-vicarious/dn124t1aiaff_H.mp4	n/a	n/a	n/a	n/a	n/a	n/a	n/a	n/a
59.51	3.65	vicarious	outcomerating	2	high_cue	high_stim	85.35	Very-Strong	85.35	Very-Strong	0.63	1.6	task-social/outcomerating/task-vicarious_scale.png	n/a	n/a	n/a	n/a	n/a	n/a	n/a	n/a
67.4	0.98	vicarious	cue	3	low_cue	n/a	n/a	n/a	n/a	n/a	n/a	n/a	task-social/cue/runtype-vicarious/scl/l047.png	n/a	n/a	n/a	n/a	n/a	n/a	n/a	n/a
69.5	1.73	vicarious	expectrating	3	low_cue	n/a	2.34	Barely-detectable	2.34	Barely-detectable	0.05	1.68	task-social/cue/runtype-vicarious/scl/l047.png	n/a	n/a	n/a	n/a	n/a	n/a	n/a	n/a
77.69	5.0	vicarious	stimulus	3	low_cue	high_stim	n/a	n/a	n/a	n/a	n/a	n/a	task-social/stim/runtype-vicarious/dr052t1aiaff_H.mp4	n/a	n/a	n/a	n/a	n/a	n/a	n/a	n/a
87.51	2.18	vicarious	outcomerating	3	low_cue	high_stim	73.23	Very-Strong	73.23	Very-Strong	0.05	1.68	task-social/outcomerating/task-vicarious_scale.png	n/a	n/a	n/a	n/a	n/a	n/a	n/a	n/a
96.8	0.99	vicarious	cue	4	high_cue	n/a	n/a	n/a	n/a	n/a	n/a	n/a	task-social/cue/runtype-vicarious/sch/h012.png	n/a	n/a	n/a	n/a	n/a	n/a	n/a	n/a
100.7	1.62	vicarious	expectrating	4	high_cue	n/a	59.94	Strong	59.94	Strong	0.37	1.25	task-social/cue/runtype-vicarious/sch/h012.png	n/a	n/a	n/a	n/a	n/a	n/a	n/a	n/a
110.89	5.0	vicarious	stimulus	4	high_cue	low_stim	n/a	n/a	n/a	n/a	n/a	n/a	task-social/stim/runtype-vicarious/jh123t1aaunaff_L.mp4	n/a	n/a	n/a	n/a	n/a	n/a	n/a	n/a
119.31	1.54	vicarious	outcomerating	4	high_cue	low_stim	2.31	Barely-detectable	2.31	Barely-detectable	0.37	1.25	task-social/outcomerating/task-vicarious_scale.png	n/a	n/a	n/a	n/a	n/a	n/a	n/a	n/a
128.39	0.99	vicarious	cue	5	high_cue	n/a	n/a	n/a	n/a	n/a	n/a	n/a	task-social/cue/runtype-vicarious/sch/h045.png	n/a	n/a	n/a	n/a	n/a	n/a	n/a	n/a
132.31	1.63	vicarious	expectrating	5	high_cue	n/a	81.67	Very-Strong	81.67	Very-Strong	0.47	1.17	task-social/cue/runtype-vicarious/sch/h045.png	n/a	n/a	n/a	n/a	n/a	n/a	n/a	n/a
146.99	5.0	vicarious	stimulus	5	high_cue	med_stim	n/a	n/a	n/a	n/a	n/a	n/a	task-social/stim/runtype-vicarious/kz120t2aeaff_M.mp4	n/a	n/a	n/a	n/a	n/a	n/a	n/a	n/a
156.8	2.09	vicarious	outcomerating	5	high_cue	med_stim	17.78	Moderate	17.78	Moderate	0.47	1.17	task-social/outcomerating/task-vicarious_scale.png	n/a	n/a	n/a	n/a	n/a	n/a	n/a	n/a
170.99	0.99	vicarious	cue	6	low_cue	n/a	n/a	n/a	n/a	n/a	n/a	n/a	task-social/cue/runtype-vicarious/scl/l030.png	n/a	n/a	n/a	n/a	n/a	n/a	n/a	n/a
174.9	2.14	vicarious	expectrating	6	low_cue	n/a	18.94	Moderate	18.94	Moderate	0.23	1.9	task-social/cue/runtype-vicarious/scl/l030.png	n/a	n/a	n/a	n/a	n/a	n/a	n/a	n/a
181.79	5.0	vicarious	stimulus	6	low_cue	low_stim	n/a	n/a	n/a	n/a	n/a	n/a	task-social/stim/runtype-vicarious/dr052t1aeunaff_L.mp4	n/a	n/a	n/a	n/a	n/a	n/a	n/a	n/a
191.7	2.52	vicarious	outcomerating	6	low_cue	low_stim	1.84	Barely-detectable	1.84	Barely-detectable	0.23	1.9	task-social/outcomerating/task-vicarious_scale.png	n/a	n/a	n/a	n/a	n/a	n/a	n/a	n/a
198.3	0.98	vicarious	cue	7	low_cue	n/a	n/a	n/a	n/a	n/a	n/a	n/a	task-social/cue/runtype-vicarious/scl/l032.png	n/a	n/a	n/a	n/a	n/a	n/a	n/a	n/a
199.81	1.63	vicarious	expectrating	7	low_cue	n/a	4.86	Weak	4.86	Weak	0.5	1.13	task-social/cue/runtype-vicarious/scl/l032.png	n/a	n/a	n/a	n/a	n/a	n/a	n/a	n/a
210.09	5.0	vicarious	stimulus	7	low_cue	med_stim	n/a	n/a	n/a	n/a	n/a	n/a	task-social/stim/runtype-vicarious/dr052t2aaaff_M.mp4	n/a	n/a	n/a	n/a	n/a	n/a	n/a	n/a
228.9	3.87	vicarious	outcomerating	7	low_cue	med_stim	18.8	Moderate	18.8	Moderate	0.5	1.13	task-social/outcomerating/task-vicarious_scale.png	n/a	n/a	n/a	n/a	n/a	n/a	n/a	n/a
234.9	0.98	vicarious	cue	8	low_cue	n/a	n/a	n/a	n/a	n/a	n/a	n/a	task-social/cue/runtype-vicarious/scl/l033.png	n/a	n/a	n/a	n/a	n/a	n/a	n/a	n/a
237.0	1.7	vicarious	expectrating	8	low_cue	n/a	4.82	Weak	4.82	Weak	0.33	1.37	task-social/cue/runtype-vicarious/scl/l033.png	n/a	n/a	n/a	n/a	n/a	n/a	n/a	n/a
246.29	5.0	vicarious	stimulus	8	low_cue	med_stim	n/a	n/a	n/a	n/a	n/a	n/a	task-social/stim/runtype-vicarious/jh123t2aaaff_M.mp4	n/a	n/a	n/a	n/a	n/a	n/a	n/a	n/a
256.21	1.76	vicarious	outcomerating	8	low_cue	med_stim	0.92	No-sensation	0.92	No-sensation	0.33	1.37	task-social/outcomerating/task-vicarious_scale.png	n/a	n/a	n/a	n/a	n/a	n/a	n/a	n/a
262.2	0.99	vicarious	cue	9	high_cue	n/a	n/a	n/a	n/a	n/a	n/a	n/a	task-social/cue/runtype-vicarious/sch/h001.png	n/a	n/a	n/a	n/a	n/a	n/a	n/a	n/a
264.9	2.07	vicarious	expectrating	9	high_cue	n/a	49.22	Strong	49.22	Strong	0.47	1.6	task-social/cue/runtype-vicarious/sch/h001.png	n/a	n/a	n/a	n/a	n/a	n/a	n/a	n/a
274.19	5.0	vicarious	stimulus	9	high_cue	high_stim	n/a	n/a	n/a	n/a	n/a	n/a	task-social/stim/runtype-vicarious/jh123t1aeaff_H.mp4	n/a	n/a	n/a	n/a	n/a	n/a	n/a	n/a
285.81	1.98	vicarious	outcomerating	9	high_cue	high_stim	65.19	Very-Strong	65.19	Very-Strong	0.47	1.6	task-social/outcomerating/task-vicarious_scale.png	n/a	n/a	n/a	n/a	n/a	n/a	n/a	n/a
291.09	0.99	vicarious	cue	10	low_cue	n/a	n/a	n/a	n/a	n/a	n/a	n/a	task-social/cue/runtype-vicarious/scl/l023.png	n/a	n/a	n/a	n/a	n/a	n/a	n/a	n/a
293.29	3.01	vicarious	expectrating	10	low_cue	n/a	33.69	Strong	33.69	Strong	0.27	2.74	task-social/cue/runtype-vicarious/scl/l023.png	n/a	n/a	n/a	n/a	n/a	n/a	n/a	n/a
307.99	5.0	vicarious	stimulus	10	low_cue	low_stim	n/a	n/a	n/a	n/a	n/a	n/a	task-social/stim/runtype-vicarious/dn124t1aaunaff_L.mp4	n/a	n/a	n/a	n/a	n/a	n/a	n/a	n/a
323.01	2.18	vicarious	outcomerating	10	low_cue	low_stim	67.64	Very-Strong	67.64	Very-Strong	0.27	2.74	task-social/outcomerating/task-vicarious_scale.png	n/a	n/a	n/a	n/a	n/a	n/a	n/a	n/a
336.59	0.99	vicarious	cue	11	high_cue	n/a	n/a	n/a	n/a	n/a	n/a	n/a	task-social/cue/runtype-vicarious/sch/h023.png	n/a	n/a	n/a	n/a	n/a	n/a	n/a	n/a
338.3	2.14	vicarious	expectrating	11	high_cue	n/a	67.68	Very-Strong	67.68	Very-Strong	0.43	1.71	task-social/cue/runtype-vicarious/sch/h023.png	n/a	n/a	n/a	n/a	n/a	n/a	n/a	n/a
353.99	5.0	vicarious	stimulus	11	high_cue	low_stim	n/a	n/a	n/a	n/a	n/a	n/a	task-social/stim/runtype-vicarious/aa048t2aaunaff_L.mp4	n/a	n/a	n/a	n/a	n/a	n/a	n/a	n/a
367.11	2.22	vicarious	outcomerating	11	high_cue	low_stim	0.0	n/a	0.0	n/a	0.43	1.71	task-social/outcomerating/task-vicarious_scale.png	n/a	n/a	n/a	n/a	n/a	n/a	n/a	n/a
371.59	0.99	vicarious	cue	12	low_cue	n/a	n/a	n/a	n/a	n/a	n/a	n/a	task-social/cue/runtype-vicarious/scl/l035.png	n/a	n/a	n/a	n/a	n/a	n/a	n/a	n/a
373.39	2.43	vicarious	expectrating	12	low_cue	n/a	10.53	Moderate	10.53	Moderate	0.42	2.02	task-social/cue/runtype-vicarious/scl/l035.png	n/a	n/a	n/a	n/a	n/a	n/a	n/a	n/a
380.29	5.0	vicarious	stimulus	12	low_cue	high_stim	n/a	n/a	n/a	n/a	n/a	n/a	task-social/stim/runtype-vicarious/ll042t1aiaff_H.mp4	n/a	n/a	n/a	n/a	n/a	n/a	n/a	n/a
394.8	1.82	vicarious	outcomerating	12	low_cue	high_stim	93.03	Very-Strong	93.03	Very-Strong	0.42	2.02	task-social/outcomerating/task-vicarious_scale.png	n/a	n/a	n/a	n/a	n/a	n/a	n/a	n/a
