onset	duration	run_type	trial_type	trial_index	cue	stimulusintensity	rating_value	rating_glmslabel	rating_value_fillna	rating_glmslabel_fillna	rating_mouseonset	rating_mousedur	stim_file	pain_onset_ttl1	pain_onset_ttl2	pain_onset_ttl3	pain_onset_ttl4	pain_stimulus_delivery_success	cognitive_correct_response	cognitive_participant_response	cognitive_response_accuracy
5.7	1.0	pain	cue	1	high_cue	n/a	n/a	n/a	n/a	n/a	n/a	n/a	task-social/cue/runtype-pain/sch/h020.png	n/a	n/a	n/a	n/a	n/a	n/a	n/a	n/a
8.32	2.2	pain	expectrating	1	high_cue	n/a	54.33	Strong	54.33	Strong	0.53	1.67	task-social/cue/runtype-pain/sch/h020.png	n/a	n/a	n/a	n/a	n/a	n/a	n/a	n/a
12.95	12.82	pain	stimulus	1	high_cue	high_stim	n/a	n/a	n/a	n/a	n/a	n/a	n/a	12.95	16.96	21.96	25.77	success	n/a	n/a	n/a
23.9	2.57	pain	outcomerating	1	high_cue	high_stim	55.29	Strong	55.29	Strong	0.53	1.67	task-social/outcomerating/task-pain_scale.png	n/a	n/a	n/a	n/a	success	n/a	n/a	n/a
32.29	1.0	pain	cue	2	low_cue	n/a	n/a	n/a	n/a	n/a	n/a	n/a	task-social/cue/runtype-pain/scl/l020.png	n/a	n/a	n/a	n/a	n/a	n/a	n/a	n/a
35.29	2.42	pain	expectrating	2	low_cue	n/a	11.63	Moderate	11.63	Moderate	1.05	1.37	task-social/cue/runtype-pain/scl/l020.png	n/a	n/a	n/a	n/a	n/a	n/a	n/a	n/a
45.23	12.82	pain	stimulus	2	low_cue	high_stim	n/a	n/a	n/a	n/a	n/a	n/a	n/a	45.23	49.24	54.24	58.05	success	n/a	n/a	n/a
58.5	2.01	pain	outcomerating	2	low_cue	high_stim	36.82	Strong	36.82	Strong	1.05	1.37	task-social/outcomerating/task-pain_scale.png	n/a	n/a	n/a	n/a	success	n/a	n/a	n/a
63.1	1.0	pain	cue	3	low_cue	n/a	n/a	n/a	n/a	n/a	n/a	n/a	task-social/cue/runtype-pain/scl/l011.png	n/a	n/a	n/a	n/a	n/a	n/a	n/a	n/a
65.5	2.24	pain	expectrating	3	low_cue	n/a	29.66	Strong	29.66	Strong	0.95	1.29	task-social/cue/runtype-pain/scl/l011.png	n/a	n/a	n/a	n/a	n/a	n/a	n/a	n/a
70.12	12.829999999999998	pain	stimulus	3	low_cue	high_stim	n/a	n/a	n/a	n/a	n/a	n/a	n/a	70.12	74.13	79.13	82.94	success	n/a	n/a	n/a
81.89	3.28	pain	outcomerating	3	low_cue	high_stim	33.05	Strong	33.05	Strong	0.95	1.29	task-social/outcomerating/task-pain_scale.png	n/a	n/a	n/a	n/a	success	n/a	n/a	n/a
95.1	1.0	pain	cue	4	high_cue	n/a	n/a	n/a	n/a	n/a	n/a	n/a	task-social/cue/runtype-pain/sch/h047.png	n/a	n/a	n/a	n/a	n/a	n/a	n/a	n/a
97.5	n/a	pain	expectrating	4	high_cue	n/a	n/a	n/a	40.13	Strong	0.42	3.68	task-social/cue/runtype-pain/sch/h047.png	n/a	n/a	n/a	n/a	n/a	n/a	n/a	n/a
102.73	12.819999999999993	pain	stimulus	4	high_cue	high_stim	n/a	n/a	n/a	n/a	n/a	n/a	n/a	102.73	106.74	111.74	115.55	success	n/a	n/a	n/a
115.61	2.55	pain	outcomerating	4	high_cue	high_stim	37.29	Strong	37.29	Strong	0.42	3.68	task-social/outcomerating/task-pain_scale.png	n/a	n/a	n/a	n/a	success	n/a	n/a	n/a
120.19	1.0	pain	cue	5	low_cue	n/a	n/a	n/a	n/a	n/a	n/a	n/a	task-social/cue/runtype-pain/scl/l012.png	n/a	n/a	n/a	n/a	n/a	n/a	n/a	n/a
123.19	3.68	pain	expectrating	5	low_cue	n/a	8.75	Weak	8.75	Weak	0.58	3.1	task-social/cue/runtype-pain/scl/l012.png	n/a	n/a	n/a	n/a	n/a	n/a	n/a	n/a
138.44	11.900000000000006	pain	stimulus	5	low_cue	low_stim	n/a	n/a	n/a	n/a	n/a	n/a	n/a	138.44	141.94	146.94	150.34	success	n/a	n/a	n/a
149.0	3.24	pain	outcomerating	5	low_cue	low_stim	17.19	Moderate	17.19	Moderate	0.58	3.1	task-social/outcomerating/task-pain_scale.png	n/a	n/a	n/a	n/a	success	n/a	n/a	n/a
159.89	1.0	pain	cue	6	high_cue	n/a	n/a	n/a	n/a	n/a	n/a	n/a	task-social/cue/runtype-pain/sch/h014.png	n/a	n/a	n/a	n/a	n/a	n/a	n/a	n/a
162.91	n/a	pain	expectrating	6	high_cue	n/a	n/a	n/a	34.39	Strong	0.52	3.97	task-social/cue/runtype-pain/sch/h014.png	n/a	n/a	n/a	n/a	n/a	n/a	n/a	n/a
187.03	11.900000000000006	pain	stimulus	6	high_cue	low_stim	n/a	n/a	n/a	n/a	n/a	n/a	n/a	187.03	190.53	195.53	198.93	success	n/a	n/a	n/a
208.41	3.18	pain	outcomerating	6	high_cue	low_stim	47.76	Strong	47.76	Strong	0.52	3.97	task-social/outcomerating/task-pain_scale.png	n/a	n/a	n/a	n/a	success	n/a	n/a	n/a
219.29	1.0	pain	cue	7	low_cue	n/a	n/a	n/a	n/a	n/a	n/a	n/a	task-social/cue/runtype-pain/scl/l014.png	n/a	n/a	n/a	n/a	n/a	n/a	n/a	n/a
221.49	2.63	pain	expectrating	7	low_cue	n/a	27.49	Moderate	27.49	Moderate	0.15	2.48	task-social/cue/runtype-pain/scl/l014.png	n/a	n/a	n/a	n/a	n/a	n/a	n/a	n/a
228.52	12.359999999999985	pain	stimulus	7	low_cue	med_stim	n/a	n/a	n/a	n/a	n/a	n/a	n/a	228.52	232.28	237.28	240.89	success	n/a	n/a	n/a
241.4	3.64	pain	outcomerating	7	low_cue	med_stim	35.54	Strong	35.54	Strong	0.15	2.48	task-social/outcomerating/task-pain_scale.png	n/a	n/a	n/a	n/a	success	n/a	n/a	n/a
252.49	1.0	pain	cue	8	high_cue	n/a	n/a	n/a	n/a	n/a	n/a	n/a	task-social/cue/runtype-pain/sch/h031.png	n/a	n/a	n/a	n/a	n/a	n/a	n/a	n/a
255.11	1.88	pain	expectrating	8	high_cue	n/a	45.16	Strong	45.16	Strong	0.67	1.22	task-social/cue/runtype-pain/sch/h031.png	n/a	n/a	n/a	n/a	n/a	n/a	n/a	n/a
260.14	12.360000000000014	pain	stimulus	8	high_cue	med_stim	n/a	n/a	n/a	n/a	n/a	n/a	n/a	260.14	263.9	268.9	272.51	success	n/a	n/a	n/a
274.0	1.96	pain	outcomerating	8	high_cue	med_stim	43.54	Strong	43.54	Strong	0.67	1.22	task-social/outcomerating/task-pain_scale.png	n/a	n/a	n/a	n/a	success	n/a	n/a	n/a
283.9	1.0	pain	cue	9	high_cue	n/a	n/a	n/a	n/a	n/a	n/a	n/a	task-social/cue/runtype-pain/sch/h006.png	n/a	n/a	n/a	n/a	n/a	n/a	n/a	n/a
285.8	2.66	pain	expectrating	9	high_cue	n/a	50.22	Strong	50.22	Strong	0.15	2.51	task-social/cue/runtype-pain/sch/h006.png	n/a	n/a	n/a	n/a	n/a	n/a	n/a	n/a
291.42	12.359999999999957	pain	stimulus	9	high_cue	med_stim	n/a	n/a	n/a	n/a	n/a	n/a	n/a	291.42	295.18	300.18	303.79	success	n/a	n/a	n/a
302.81	1.82	pain	outcomerating	9	high_cue	med_stim	31.2	Strong	31.2	Strong	0.15	2.51	task-social/outcomerating/task-pain_scale.png	n/a	n/a	n/a	n/a	success	n/a	n/a	n/a
311.89	1.0	pain	cue	10	low_cue	n/a	n/a	n/a	n/a	n/a	n/a	n/a	task-social/cue/runtype-pain/scl/l028.png	n/a	n/a	n/a	n/a	n/a	n/a	n/a	n/a
314.9	2.08	pain	expectrating	10	low_cue	n/a	13.7	Moderate	13.7	Moderate	0.58	1.5	task-social/cue/runtype-pain/scl/l028.png	n/a	n/a	n/a	n/a	n/a	n/a	n/a	n/a
320.53	12.360000000000014	pain	stimulus	10	low_cue	med_stim	n/a	n/a	n/a	n/a	n/a	n/a	n/a	320.53	324.29	329.29	332.9	success	n/a	n/a	n/a
335.0	1.39	pain	outcomerating	10	low_cue	med_stim	31.71	Strong	31.71	Strong	0.58	1.5	task-social/outcomerating/task-pain_scale.png	n/a	n/a	n/a	n/a	success	n/a	n/a	n/a
341.29	1.0	pain	cue	11	high_cue	n/a	n/a	n/a	n/a	n/a	n/a	n/a	task-social/cue/runtype-pain/sch/h002.png	n/a	n/a	n/a	n/a	n/a	n/a	n/a	n/a
343.21	1.25	pain	expectrating	11	high_cue	n/a	48.46	Strong	48.46	Strong	0.05	1.2	task-social/cue/runtype-pain/sch/h002.png	n/a	n/a	n/a	n/a	n/a	n/a	n/a	n/a
353.52	11.910000000000025	pain	stimulus	11	high_cue	low_stim	n/a	n/a	n/a	n/a	n/a	n/a	n/a	353.52	357.02	362.02	365.42	success	n/a	n/a	n/a
365.3	1.64	pain	outcomerating	11	high_cue	low_stim	44.67	Strong	44.67	Strong	0.05	1.2	task-social/outcomerating/task-pain_scale.png	n/a	n/a	n/a	n/a	success	n/a	n/a	n/a
371.6	1.0	pain	cue	12	low_cue	n/a	n/a	n/a	n/a	n/a	n/a	n/a	task-social/cue/runtype-pain/scl/l003.png	n/a	n/a	n/a	n/a	n/a	n/a	n/a	n/a
373.5	2.57	pain	expectrating	12	low_cue	n/a	40.13	Strong	40.13	Strong	0.05	2.52	task-social/cue/runtype-pain/scl/l003.png	n/a	n/a	n/a	n/a	n/a	n/a	n/a	n/a
378.35	11.899999999999977	pain	stimulus	12	low_cue	low_stim	n/a	n/a	n/a	n/a	n/a	n/a	n/a	378.35	381.85	386.85	390.25	success	n/a	n/a	n/a
394.99	2.93	pain	outcomerating	12	low_cue	low_stim	20.91	Moderate	20.91	Moderate	0.05	2.52	task-social/outcomerating/task-pain_scale.png	n/a	n/a	n/a	n/a	success	n/a	n/a	n/a
