onset	duration	run_type	trial_type	trial_index	cue	stimulusintensity	rating_value	rating_glmslabel	rating_value_fillna	rating_glmslabel_fillna	rating_mouseonset	rating_mousedur	stim_file	pain_onset_ttl1	pain_onset_ttl2	pain_onset_ttl3	pain_onset_ttl4	pain_stimulus_delivery_success	cognitive_correct_response	cognitive_participant_response	cognitive_response_accuracy
3.39	0.99	cognitive	cue	1	low_cue	n/a	n/a	n/a	n/a	n/a	n/a	n/a	n/a	n/a	n/a	n/a	n/a	n/a	n/a	n/a	n/a
6.12	2.55	cognitive	expectrating	1	low_cue	n/a	19.16	Moderate	19.16	Moderate	0.12	2.43	task-social/cue/runtype-cognitive/scl/l019.png	n/a	n/a	n/a	n/a	n/a	n/a	n/a	n/a
18.51	5.0	cognitive	stimulus	1	low_cue	high_stim	n/a	n/a	n/a	n/a	n/a	n/a	task-social/stim/runtype-cognitive/47_150.jpg	n/a	n/a	n/a	n/a	n/a	same	same	True
32.6	n/a	cognitive	outcomerating	1	low_cue	high_stim	n/a	n/a	25.94	Moderate	1.33	2.1	task-social/outcomerating/task-cognitive_scale.png	n/a	n/a	n/a	n/a	n/a	n/a	n/a	n/a
41.6	0.98	cognitive	cue	2	high_cue	n/a	n/a	n/a	n/a	n/a	n/a	n/a	n/a	n/a	n/a	n/a	n/a	n/a	n/a	n/a	n/a
44.7	2.37	cognitive	expectrating	2	high_cue	n/a	66.11	Very Strong	66.11	Very Strong	0.55	1.82	task-social/cue/runtype-cognitive/sch/h046.png	n/a	n/a	n/a	n/a	n/a	n/a	n/a	n/a
55.2	5.0	cognitive	stimulus	2	high_cue	med_stim	n/a	n/a	n/a	n/a	n/a	n/a	task-social/stim/runtype-cognitive/44_100.jpg	n/a	n/a	n/a	n/a	n/a	same	same	True
69.29	n/a	cognitive	outcomerating	2	high_cue	med_stim	n/a	n/a	30.29	Strong	0.73	2.07	task-social/outcomerating/task-cognitive_scale.png	n/a	n/a	n/a	n/a	n/a	n/a	n/a	n/a
78.4	0.98	cognitive	cue	3	low_cue	n/a	n/a	n/a	n/a	n/a	n/a	n/a	n/a	n/a	n/a	n/a	n/a	n/a	n/a	n/a	n/a
81.5	n/a	cognitive	expectrating	3	low_cue	n/a	n/a	n/a	n/a	n/a	n/a	n/a	task-social/cue/runtype-cognitive/scl/l022.png	n/a	n/a	n/a	n/a	n/a	n/a	n/a	n/a
88.0	5.0	cognitive	stimulus	3	low_cue	low_stim	n/a	n/a	n/a	n/a	n/a	n/a	task-social/stim/runtype-cognitive/10_50.jpg	n/a	n/a	n/a	n/a	n/a	same	same	True
97.79	1.8	cognitive	outcomerating	3	low_cue	low_stim	17.05	Moderate	17.05	Moderate	0.07	1.73	task-social/outcomerating/task-cognitive_scale.png	n/a	n/a	n/a	n/a	n/a	n/a	n/a	n/a
105.89	0.99	cognitive	cue	4	low_cue	n/a	n/a	n/a	n/a	n/a	n/a	n/a	n/a	n/a	n/a	n/a	n/a	n/a	n/a	n/a	n/a
107.41	2.03	cognitive	expectrating	4	low_cue	n/a	9.04	Weak	9.04	Weak	0.57	1.47	task-social/cue/runtype-cognitive/scl/l030.png	n/a	n/a	n/a	n/a	n/a	n/a	n/a	n/a
114.19	5.0	cognitive	stimulus	4	low_cue	low_stim	n/a	n/a	n/a	n/a	n/a	n/a	task-social/stim/runtype-cognitive/5_50_R.jpg	n/a	n/a	n/a	n/a	n/a	diff	diff	True
128.0	3.87	cognitive	outcomerating	4	low_cue	low_stim	34.52	Strong	34.52	Strong	1.53	2.34	task-social/outcomerating/task-cognitive_scale.png	n/a	n/a	n/a	n/a	n/a	n/a	n/a	n/a
137.1	0.98	cognitive	cue	5	high_cue	n/a	n/a	n/a	n/a	n/a	n/a	n/a	n/a	n/a	n/a	n/a	n/a	n/a	n/a	n/a	n/a
140.2	1.67	cognitive	expectrating	5	high_cue	n/a	28.72	Moderate	28.72	Moderate	0.63	1.03	task-social/cue/runtype-cognitive/sch/h055.png	n/a	n/a	n/a	n/a	n/a	n/a	n/a	n/a
149.91	5.0	cognitive	stimulus	5	high_cue	low_stim	n/a	n/a	n/a	n/a	n/a	n/a	task-social/stim/runtype-cognitive/11_50_R.jpg	n/a	n/a	n/a	n/a	n/a	diff	n/a	False
159.89	n/a	cognitive	outcomerating	5	high_cue	low_stim	n/a	n/a	40.52	Strong	0.23	3.72	task-social/outcomerating/task-cognitive_scale.png	n/a	n/a	n/a	n/a	n/a	n/a	n/a	n/a
169.0	0.98	cognitive	cue	6	high_cue	n/a	n/a	n/a	n/a	n/a	n/a	n/a	n/a	n/a	n/a	n/a	n/a	n/a	n/a	n/a	n/a
171.0	1.32	cognitive	expectrating	6	high_cue	n/a	53.08	Strong	53.08	Strong	0.07	1.25	task-social/cue/runtype-cognitive/sch/h033.png	n/a	n/a	n/a	n/a	n/a	n/a	n/a	n/a
177.5	5.0	cognitive	stimulus	6	high_cue	med_stim	n/a	n/a	n/a	n/a	n/a	n/a	task-social/stim/runtype-cognitive/10_100_R.jpg	n/a	n/a	n/a	n/a	n/a	diff	diff	True
187.29	2.32	cognitive	outcomerating	6	high_cue	med_stim	53.96	Strong	53.96	Strong	0.05	2.27	task-social/outcomerating/task-cognitive_scale.png	n/a	n/a	n/a	n/a	n/a	n/a	n/a	n/a
194.39	0.99	cognitive	cue	7	high_cue	n/a	n/a	n/a	n/a	n/a	n/a	n/a	n/a	n/a	n/a	n/a	n/a	n/a	n/a	n/a	n/a
196.41	2.22	cognitive	expectrating	7	high_cue	n/a	56.12	Strong	56.12	Strong	0.3	1.92	task-social/cue/runtype-cognitive/sch/h018.png	n/a	n/a	n/a	n/a	n/a	n/a	n/a	n/a
209.4	5.0	cognitive	stimulus	7	high_cue	low_stim	n/a	n/a	n/a	n/a	n/a	n/a	task-social/stim/runtype-cognitive/43_50_R.jpg	n/a	n/a	n/a	n/a	n/a	diff	diff	True
222.3	1.32	cognitive	outcomerating	7	high_cue	low_stim	44.67	Strong	44.67	Strong	0.4	0.92	task-social/outcomerating/task-cognitive_scale.png	n/a	n/a	n/a	n/a	n/a	n/a	n/a	n/a
234.79	0.99	cognitive	cue	8	low_cue	n/a	n/a	n/a	n/a	n/a	n/a	n/a	n/a	n/a	n/a	n/a	n/a	n/a	n/a	n/a	n/a
237.31	1.68	cognitive	expectrating	8	low_cue	n/a	33.49	Strong	33.49	Strong	0.1	1.58	task-social/cue/runtype-cognitive/scl/l013.png	n/a	n/a	n/a	n/a	n/a	n/a	n/a	n/a
251.29	5.0	cognitive	stimulus	8	low_cue	high_stim	n/a	n/a	n/a	n/a	n/a	n/a	task-social/stim/runtype-cognitive/35_150_R.jpg	n/a	n/a	n/a	n/a	n/a	diff	same	False
262.7	3.1	cognitive	outcomerating	8	low_cue	high_stim	55.8	Strong	55.8	Strong	0.05	3.05	task-social/outcomerating/task-cognitive_scale.png	n/a	n/a	n/a	n/a	n/a	n/a	n/a	n/a
271.79	0.99	cognitive	cue	9	low_cue	n/a	n/a	n/a	n/a	n/a	n/a	n/a	n/a	n/a	n/a	n/a	n/a	n/a	n/a	n/a	n/a
274.89	n/a	cognitive	expectrating	9	low_cue	n/a	n/a	n/a	50.19	Strong	0.68	3.68	task-social/cue/runtype-cognitive/scl/l029.png	n/a	n/a	n/a	n/a	n/a	n/a	n/a	n/a
286.59	5.0	cognitive	stimulus	9	low_cue	med_stim	n/a	n/a	n/a	n/a	n/a	n/a	task-social/stim/runtype-cognitive/18_100.jpg	n/a	n/a	n/a	n/a	n/a	same	same	True
294.39	2.88	cognitive	outcomerating	9	low_cue	med_stim	21.12	Moderate	21.12	Moderate	0.23	2.64	task-social/outcomerating/task-cognitive_scale.png	n/a	n/a	n/a	n/a	n/a	n/a	n/a	n/a
299.9	0.98	cognitive	cue	10	low_cue	n/a	n/a	n/a	n/a	n/a	n/a	n/a	n/a	n/a	n/a	n/a	n/a	n/a	n/a	n/a	n/a
301.8	1.49	cognitive	expectrating	10	low_cue	n/a	47.76	Strong	47.76	Strong	0.32	1.17	task-social/cue/runtype-cognitive/scl/l044.png	n/a	n/a	n/a	n/a	n/a	n/a	n/a	n/a
315.5	5.0	cognitive	stimulus	10	low_cue	med_stim	n/a	n/a	n/a	n/a	n/a	n/a	task-social/stim/runtype-cognitive/29_100_R.jpg	n/a	n/a	n/a	n/a	n/a	diff	diff	True
326.09	2.77	cognitive	outcomerating	10	low_cue	med_stim	44.35	Strong	44.35	Strong	1.5	1.27	task-social/outcomerating/task-cognitive_scale.png	n/a	n/a	n/a	n/a	n/a	n/a	n/a	n/a
337.89	0.99	cognitive	cue	11	high_cue	n/a	n/a	n/a	n/a	n/a	n/a	n/a	n/a	n/a	n/a	n/a	n/a	n/a	n/a	n/a	n/a
340.59	1.36	cognitive	expectrating	11	high_cue	n/a	45.65	Strong	45.65	Strong	0.18	1.18	task-social/cue/runtype-cognitive/sch/h039.png	n/a	n/a	n/a	n/a	n/a	n/a	n/a	n/a
348.0	5.0	cognitive	stimulus	11	high_cue	high_stim	n/a	n/a	n/a	n/a	n/a	n/a	task-social/stim/runtype-cognitive/18_150_R.jpg	n/a	n/a	n/a	n/a	n/a	diff	diff	True
355.5	2.57	cognitive	outcomerating	11	high_cue	high_stim	38.34	Strong	38.34	Strong	1.37	1.2	task-social/outcomerating/task-cognitive_scale.png	n/a	n/a	n/a	n/a	n/a	n/a	n/a	n/a
362.59	0.99	cognitive	cue	12	high_cue	n/a	n/a	n/a	n/a	n/a	n/a	n/a	n/a	n/a	n/a	n/a	n/a	n/a	n/a	n/a	n/a
364.8	1.38	cognitive	expectrating	12	high_cue	n/a	60.86	Strong	60.86	Strong	0.18	1.2	task-social/cue/runtype-cognitive/sch/h042.png	n/a	n/a	n/a	n/a	n/a	n/a	n/a	n/a
378.49	5.0	cognitive	stimulus	12	high_cue	high_stim	n/a	n/a	n/a	n/a	n/a	n/a	task-social/stim/runtype-cognitive/29_150.jpg	n/a	n/a	n/a	n/a	n/a	same	n/a	False
394.6	n/a	cognitive	outcomerating	12	high_cue	high_stim	n/a	n/a	n/a	n/a	n/a	n/a	task-social/outcomerating/task-cognitive_scale.png	n/a	n/a	n/a	n/a	n/a	n/a	n/a	n/a
