onset	duration	trial_type	response_value	rating_type	expression	sex	race	age	stim_file
3.929	1.363	face	n/a	sex	surprise	female	African	old	task-faces/2Surprise_Model4_1Female_3African_2Old.mp4
5.291	1.519	rating	0.002	sex	surprise	female	African	old	n/a
5.325	1.485	rating_mouse_trajectory	0.002	sex	surprise	female	African	old	n/a
7.525	1.318	face	n/a	sex	disgust	male	EA	young	task-faces/4Disgust_Model4_2Male_2EA_1Young.mp4
8.843	1.052	rating	0.0008	sex	disgust	male	EA	young	n/a
9.093	0.802	rating_mouse_trajectory	0.0008	sex	disgust	male	EA	young	n/a
10.785	1.308	face	n/a	sex	sad	female	WC	young	task-faces/6Sad_Model4_1Female_1WC_1Young.mp4
12.094	1.269	rating	0.2253	sex	sad	female	WC	young	n/a
12.494	0.869	rating_mouse_trajectory	0.2253	sex	sad	female	WC	young	n/a
15.035	2.044	face	n/a	sex	pleasure	male	EA	old	task-faces/8Pleasure_Model5_2Male_2EA_2Old.mp4
17.079	0.968	rating	0.0	sex	pleasure	male	EA	old	n/a
17.446	0.601	rating_mouse_trajectory	0.0	sex	pleasure	male	EA	old	n/a
19.002	2.045	face	n/a	sex	pain	male	EA	young	task-faces/7Pain_Model1_2Male_2EA_1Young.mp4
21.047	0.901	rating	0.0	sex	pain	male	EA	young	n/a
21.347	0.601	rating_mouse_trajectory	0.0	sex	pain	male	EA	young	n/a
26.988	2.079	face	n/a	sex	pleasure	female	African	young	task-faces/8Pleasure_Model1_1Female_3African_1Young.mp4
29.067	1.224	rating	0.1626	sex	pleasure	female	African	young	n/a
29.45	0.841	rating_mouse_trajectory	0.1626	sex	pleasure	female	African	young	n/a
31.003	1.315	face	n/a	sex	surprise	female	EA	young	task-faces/2Surprise_Model5_1Female_2EA_1Young.mp4
32.318	1.49	rating	0.9575	sex	surprise	female	EA	young	n/a
32.735	1.073	rating_mouse_trajectory	0.9575	sex	surprise	female	EA	young	n/a
34.247	1.306	face	n/a	sex	disgust	female	African	old	task-faces/4Disgust_Model5_1Female_3African_2Old.mp4
35.553	0.872	rating	0.0	sex	disgust	female	African	old	n/a
35.853	0.572	rating_mouse_trajectory	0.0	sex	disgust	female	African	old	n/a
37.476	1.311	face	n/a	sex	fear	female	African	young	task-faces/3Fear_Model2_1Female_3African_1Young.mp4
38.787	1.637	rating	0.2415	sex	fear	female	African	young	n/a
39.237	1.187	rating_mouse_trajectory	0.2415	sex	fear	female	African	young	n/a
40.695	2.044	face	n/a	sex	pain	female	EA	old	task-faces/7Pain_Model2_1Female_2EA_2Old.mp4
42.739	0.836	rating	0.0	sex	pain	female	EA	old	n/a
43.039	0.536	rating_mouse_trajectory	0.0	sex	pain	female	EA	old	n/a
46.645	1.312	face	n/a	sex	fear	female	WC	young	task-faces/3Fear_Model5_1Female_1WC_1Young.mp4
47.957	1.068	rating	0.7775	sex	fear	female	WC	young	n/a
48.324	0.702	rating_mouse_trajectory	0.7775	sex	fear	female	WC	young	n/a
50.882	1.31	face	n/a	sex	happy	female	EA	young	task-faces/1Happy_Model5_1Female_2EA_1Young.mp4
52.192	1.218	rating	1.0	sex	happy	female	EA	young	n/a
52.559	0.852	rating_mouse_trajectory	1.0	sex	happy	female	EA	young	n/a
56.12	2.041	face	n/a	sex	pain	female	African	old	task-faces/7Pain_Model5_1Female_3African_2Old.mp4
58.161	1.769	rating	0.3386	sex	pain	female	African	old	n/a
58.944	0.985	rating_mouse_trajectory	0.3386	sex	pain	female	African	old	n/a
61.081	1.315	face	n/a	sex	disgust	female	African	young	task-faces/4Disgust_Model5_1Female_3African_1Young.mp4
62.396	1.445	rating	0.7512	sex	disgust	female	African	young	n/a
62.713	1.128	rating_mouse_trajectory	0.7512	sex	disgust	female	African	young	n/a
65.313	1.318	face	n/a	sex	surprise	male	WC	old	task-faces/2Surprise_Model2_2Male_1WC_2Old.mp4
66.631	0.86	rating	0.0	sex	surprise	male	WC	old	n/a
66.931	0.56	rating_mouse_trajectory	0.0	sex	surprise	male	WC	old	n/a
69.547	1.319	face	n/a	sex	sad	female	African	old	task-faces/6Sad_Model1_1Female_3African_2Old.mp4
70.866	1.452	rating	0.6319	sex	sad	female	African	old	n/a
71.299	1.018	rating_mouse_trajectory	0.6319	sex	sad	female	African	old	n/a
73.795	2.056	face	n/a	sex	pleasure	female	WC	old	task-faces/8Pleasure_Model3_1Female_1WC_2Old.mp4
75.851	1.607	rating	0.0	sex	pleasure	female	WC	old	n/a
76.284	1.174	rating_mouse_trajectory	0.0	sex	pleasure	female	WC	old	n/a
78.778	1.325	face	n/a	sex	surprise	male	African	old	task-faces/2Surprise_Model2_2Male_3African_2Old.mp4
80.103	1.405	rating	0.019	sex	surprise	male	African	old	n/a
80.386	1.122	rating_mouse_trajectory	0.019	sex	surprise	male	African	old	n/a
85.016	1.322	face	n/a	sex	disgust	male	EA	old	task-faces/4Disgust_Model2_2Male_2EA_2Old.mp4
86.338	1.02	rating	0.6905	sex	disgust	male	EA	old	n/a
86.688	0.67	rating_mouse_trajectory	0.6905	sex	disgust	male	EA	old	n/a
88.243	1.33	face	n/a	sex	happy	female	African	young	task-faces/1Happy_Model3_1Female_3African_1Young.mp4
89.573	1.568	rating	0.7371	sex	happy	female	African	young	n/a
90.106	1.035	rating_mouse_trajectory	0.7371	sex	happy	female	African	young	n/a
92.497	1.327	face	n/a	sex	fear	female	African	old	task-faces/3Fear_Model3_1Female_3African_2Old.mp4
93.824	1.583	rating	0.9595	sex	fear	female	African	old	n/a
94.258	1.15	rating_mouse_trajectory	0.9595	sex	fear	female	African	old	n/a
95.747	1.328	face	n/a	sex	fear	male	WC	old	task-faces/3Fear_Model3_2Male_1WC_2Old.mp4
97.076	0.718	rating	0.0	sex	fear	male	WC	old	n/a
97.259	0.535	rating_mouse_trajectory	0.0	sex	fear	male	WC	old	n/a
100.014	1.33	face	n/a	sex	disgust	male	African	young	task-faces/4Disgust_Model1_2Male_3African_1Young.mp4
101.344	1.552	rating	0.2961	sex	disgust	male	African	young	n/a
102.06	0.835	rating_mouse_trajectory	0.2961	sex	disgust	male	African	young	n/a
104.266	1.313	face	n/a	sex	fear	male	African	old	task-faces/3Fear_Model1_2Male_3African_2Old.mp4
105.579	1.152	rating	0.0	sex	fear	male	African	old	n/a
105.879	0.852	rating_mouse_trajectory	0.0	sex	fear	male	African	old	n/a
108.485	1.312	face	n/a	sex	surprise	female	EA	old	task-faces/2Surprise_Model3_1Female_2EA_2Old.mp4
109.797	1.411	rating	0.8989	sex	surprise	female	EA	old	n/a
110.164	1.044	rating_mouse_trajectory	0.8989	sex	surprise	female	EA	old	n/a
111.712	1.303	face	n/a	sex	disgust	male	African	old	task-faces/4Disgust_Model5_2Male_3African_2Old.mp4
113.015	0.959	rating	0.0	sex	disgust	male	African	old	n/a
113.415	0.559	rating_mouse_trajectory	0.0	sex	disgust	male	African	old	n/a
114.922	1.311	face	n/a	sex	sad	male	African	old	task-faces/6Sad_Model1_2Male_3African_2Old.mp4
116.233	0.859	rating	0.0	sex	sad	male	African	old	n/a
116.583	0.509	rating_mouse_trajectory	0.0	sex	sad	male	African	old	n/a
118.158	1.31	face	n/a	sex	disgust	female	EA	old	task-faces/4Disgust_Model5_1Female_2EA_2Old.mp4
119.467	0.907	rating	1.0	sex	disgust	female	EA	old	n/a
119.834	0.54	rating_mouse_trajectory	1.0	sex	disgust	female	EA	old	n/a
122.399	2.037	face	n/a	sex	pleasure	male	African	young	task-faces/8Pleasure_Model3_2Male_3African_1Young.mp4
124.436	1.605	rating	0.2638	sex	pleasure	male	African	young	n/a
124.786	1.255	rating_mouse_trajectory	0.2638	sex	pleasure	male	African	young	n/a
127.364	1.306	face	n/a	sex	disgust	male	WC	old	task-faces/4Disgust_Model2_2Male_1WC_2Old.mp4
128.671	1.504	rating	0.5247	sex	disgust	male	WC	old	n/a
129.071	1.104	rating_mouse_trajectory	0.5247	sex	disgust	male	WC	old	n/a
131.595	1.311	face	n/a	sex	happy	male	EA	old	task-faces/1Happy_Model3_2Male_2EA_2Old.mp4
132.906	0.869	rating	0.913	sex	happy	male	EA	old	n/a
133.322	0.452	rating_mouse_trajectory	0.913	sex	happy	male	EA	old	n/a
134.81	1.314	face	n/a	sex	fear	male	EA	old	task-faces/3Fear_Model4_2Male_2EA_2Old.mp4
136.123	1.235	rating	0.6501	sex	fear	male	EA	old	n/a
136.707	0.652	rating_mouse_trajectory	0.6501	sex	fear	male	EA	old	n/a
138.028	1.313	face	n/a	sex	happy	male	WC	old	task-faces/1Happy_Model3_2Male_1WC_2Old.mp4
139.341	1.252	rating	0.5914	sex	happy	male	WC	old	n/a
139.775	0.818	rating_mouse_trajectory	0.5914	sex	happy	male	WC	old	n/a
142.253	1.306	face	n/a	sex	happy	female	WC	old	task-faces/1Happy_Model2_1Female_1WC_2Old.mp4
143.56	1.269	rating	0.466	sex	happy	female	WC	old	n/a
145.479	1.315	face	n/a	sex	happy	male	African	young	task-faces/1Happy_Model1_2Male_3African_1Young.mp4
146.794	0.919	rating	0.4923	sex	happy	male	African	young	n/a
147.227	0.485	rating_mouse_trajectory	0.4923	sex	happy	male	African	young	n/a
148.712	1.3	face	n/a	sex	surprise	male	African	young	task-faces/2Surprise_Model5_2Male_3African_1Young.mp4
150.012	1.068	rating	0.1849	sex	surprise	male	African	young	n/a
150.579	0.502	rating_mouse_trajectory	0.1849	sex	surprise	male	African	young	n/a
153.929	1.318	face	n/a	sex	disgust	male	WC	young	task-faces/4Disgust_Model3_2Male_1WC_1Young.mp4
155.247	1.444	rating	0.0	sex	disgust	male	WC	young	n/a
155.781	0.91	rating_mouse_trajectory	0.0	sex	disgust	male	WC	young	n/a
159.162	1.304	face	n/a	sex	sad	female	African	young	task-faces/6Sad_Model3_1Female_3African_1Young.mp4
160.466	1.459	rating	1.0	sex	sad	female	African	young	n/a
160.749	1.175	rating_mouse_trajectory	1.0	sex	sad	female	African	young	n/a
165.401	2.05	face	n/a	sex	pleasure	female	EA	old	task-faces/8Pleasure_Model1_1Female_2EA_2Old.mp4
167.452	1.006	rating	1.0	sex	pleasure	female	EA	old	n/a
167.818	0.639	rating_mouse_trajectory	1.0	sex	pleasure	female	EA	old	n/a
170.382	1.305	face	n/a	sex	disgust	female	WC	old	task-faces/4Disgust_Model1_1Female_1WC_2Old.mp4
171.687	0.887	rating	1.0	sex	disgust	female	WC	old	n/a
171.987	0.587	rating_mouse_trajectory	1.0	sex	disgust	female	WC	old	n/a
174.61	1.311	face	n/a	sex	anger	male	African	young	task-faces/5Anger_Model5_2Male_3African_1Young.mp4
175.922	0.853	rating	0.996	sex	anger	male	African	young	n/a
176.155	0.619	rating_mouse_trajectory	0.996	sex	anger	male	African	young	n/a
177.829	2.044	face	n/a	sex	pain	male	African	old	task-faces/7Pain_Model1_2Male_3African_2Old.mp4
179.873	1.035	rating	0.0	sex	pain	male	African	old	n/a
179.923	0.985	rating_mouse_trajectory	0.0	sex	pain	male	African	old	n/a
182.779	1.312	face	n/a	sex	disgust	female	EA	young	task-faces/4Disgust_Model4_1Female_2EA_1Young.mp4
184.091	1.235	rating	1.0	sex	disgust	female	EA	young	n/a
184.275	1.051	rating_mouse_trajectory	1.0	sex	disgust	female	EA	young	n/a
186.015	1.311	face	n/a	sex	happy	female	African	old	task-faces/1Happy_Model3_1Female_3African_2Old.mp4
187.326	0.952	rating	0.0	sex	happy	female	African	old	n/a
187.693	0.585	rating_mouse_trajectory	0.0	sex	happy	female	African	old	n/a
191.252	1.309	face	n/a	sex	anger	female	EA	old	task-faces/5Anger_Model5_1Female_2EA_2Old.mp4
192.561	1.867	rating	0.5663	sex	anger	female	EA	old	n/a
193.795	0.633	rating_mouse_trajectory	0.5663	sex	anger	female	EA	old	n/a
196.481	1.315	face	n/a	sex	sad	male	WC	old	task-faces/6Sad_Model2_2Male_1WC_2Old.mp4
197.796	0.685	rating	0.0	sex	sad	male	WC	old	n/a
198.063	0.418	rating_mouse_trajectory	0.0	sex	sad	male	WC	old	n/a
200.721	1.311	face	n/a	sex	anger	male	EA	young	task-faces/5Anger_Model2_2Male_2EA_1Young.mp4
202.031	0.735	rating	0.0	sex	anger	male	EA	young	n/a
202.331	0.435	rating_mouse_trajectory	0.0	sex	anger	male	EA	young	n/a
204.938	1.312	face	n/a	sex	fear	female	EA	old	task-faces/3Fear_Model4_1Female_2EA_2Old.mp4
206.25	0.835	rating	0.8341	sex	fear	female	EA	old	n/a
206.533	0.552	rating_mouse_trajectory	0.8341	sex	fear	female	EA	old	n/a
209.178	1.306	face	n/a	sex	fear	male	EA	young	task-faces/3Fear_Model4_2Male_2EA_1Young.mp4
210.485	0.806	rating	0.0	sex	fear	male	EA	young	n/a
210.785	0.506	rating_mouse_trajectory	0.0	sex	fear	male	EA	young	n/a
213.412	1.307	face	n/a	sex	sad	female	EA	young	task-faces/6Sad_Model2_1Female_2EA_1Young.mp4
214.719	1.255	rating	1.0	sex	sad	female	EA	young	n/a
215.053	0.922	rating_mouse_trajectory	1.0	sex	sad	female	EA	young	n/a
217.643	1.311	face	n/a	sex	surprise	male	EA	old	task-faces/2Surprise_Model4_2Male_2EA_2Old.mp4
218.954	0.92	rating	0.996	sex	surprise	male	EA	old	n/a
219.288	0.587	rating_mouse_trajectory	0.996	sex	surprise	male	EA	old	n/a
221.879	2.044	face	n/a	sex	pain	male	EA	old	task-faces/7Pain_Model3_2Male_2EA_2Old.mp4
223.923	0.952	rating	1.0	sex	pain	male	EA	old	n/a
224.273	0.602	rating_mouse_trajectory	1.0	sex	pain	male	EA	old	n/a
226.829	1.312	face	n/a	sex	fear	male	WC	young	task-faces/3Fear_Model4_2Male_1WC_1Young.mp4
228.141	0.835	rating	0.0	sex	fear	male	WC	young	n/a
228.508	0.468	rating_mouse_trajectory	0.0	sex	fear	male	WC	young	n/a
230.045	1.314	face	n/a	sex	anger	male	African	old	task-faces/5Anger_Model3_2Male_3African_2Old.mp4
231.359	0.885	rating	0.0	sex	anger	male	African	old	n/a
231.626	0.618	rating_mouse_trajectory	0.0	sex	anger	male	African	old	n/a
233.284	2.043	face	n/a	sex	pleasure	female	African	old	task-faces/8Pleasure_Model5_1Female_3African_2Old.mp4
235.327	1.052	rating	0.6663	sex	pleasure	female	African	old	n/a
235.644	0.735	rating_mouse_trajectory	0.6663	sex	pleasure	female	African	old	n/a
239.246	1.316	face	n/a	sex	happy	male	EA	young	task-faces/1Happy_Model1_2Male_2EA_1Young.mp4
240.562	0.885	rating	0.004	sex	happy	male	EA	young	n/a
240.896	0.552	rating_mouse_trajectory	0.004	sex	happy	male	EA	young	n/a
242.486	2.045	face	n/a	sex	pain	female	WC	old	task-faces/7Pain_Model4_1Female_1WC_2Old.mp4
244.531	1.577	rating	0.3143	sex	pain	female	WC	old	n/a
245.447	0.661	rating_mouse_trajectory	0.3143	sex	pain	female	WC	old	n/a
250.446	1.304	face	n/a	sex	anger	male	WC	old	task-faces/5Anger_Model4_2Male_1WC_2Old.mp4
251.75	0.891	rating	0.0	sex	anger	male	WC	old	n/a
252.117	0.524	rating_mouse_trajectory	0.0	sex	anger	male	WC	old	n/a
253.673	1.312	face	n/a	sex	anger	female	African	young	task-faces/5Anger_Model1_1Female_3African_1Young.mp4
254.984	1.557	rating	0.998	sex	anger	female	African	young	n/a
255.034	1.507	rating_mouse_trajectory	0.998	sex	anger	female	African	young	n/a
257.909	1.311	face	n/a	sex	disgust	female	WC	young	task-faces/4Disgust_Model2_1Female_1WC_1Young.mp4
259.219	1.105	rating	0.6845	sex	disgust	female	WC	young	n/a
259.736	0.588	rating_mouse_trajectory	0.6845	sex	disgust	female	WC	young	n/a
262.143	1.311	face	n/a	sex	fear	female	EA	young	task-faces/3Fear_Model1_1Female_2EA_1Young.mp4
263.454	1.054	rating	0.998	sex	fear	female	EA	young	n/a
263.821	0.687	rating_mouse_trajectory	0.998	sex	fear	female	EA	young	n/a
266.362	1.311	face	n/a	sex	fear	female	WC	old	task-faces/3Fear_Model5_1Female_1WC_2Old.mp4
267.673	1.485	rating	0.8544	sex	fear	female	WC	old	n/a
267.739	1.418	rating_mouse_trajectory	0.8544	sex	fear	female	WC	old	n/a
269.576	1.298	face	n/a	sex	happy	female	WC	young	task-faces/1Happy_Model5_1Female_1WC_1Young.mp4
270.874	1.168	rating	0.466	sex	happy	female	WC	young	n/a
273.797	2.045	face	n/a	sex	pain	male	WC	young	task-faces/7Pain_Model4_2Male_1WC_1Young.mp4
275.842	1.001	rating	0.0	sex	pain	male	WC	young	n/a
276.176	0.668	rating_mouse_trajectory	0.0	sex	pain	male	WC	young	n/a
277.762	1.315	face	n/a	sex	anger	female	WC	young	task-faces/5Anger_Model4_1Female_1WC_1Young.mp4
279.077	1.068	rating	0.0	sex	anger	female	WC	young	n/a
279.46	0.685	rating_mouse_trajectory	0.0	sex	anger	female	WC	young	n/a
281.997	2.049	face	n/a	sex	pain	male	WC	old	task-faces/7Pain_Model2_2Male_1WC_2Old.mp4
284.045	0.802	rating	0.0	sex	pain	male	WC	old	n/a
284.362	0.485	rating_mouse_trajectory	0.0	sex	pain	male	WC	old	n/a
286.952	1.311	face	n/a	sex	happy	male	WC	young	task-faces/1Happy_Model5_2Male_1WC_1Young.mp4
288.264	1.702	rating	0.021	sex	happy	male	WC	young	n/a
288.697	1.269	rating_mouse_trajectory	0.021	sex	happy	male	WC	young	n/a
290.178	2.037	face	n/a	sex	pain	female	African	young	task-faces/7Pain_Model4_1Female_3African_1Young.mp4
292.215	1.26	rating	1.0	sex	pain	female	African	young	n/a
292.665	0.81	rating_mouse_trajectory	1.0	sex	pain	female	African	young	n/a
296.139	1.312	face	n/a	sex	sad	male	EA	young	task-faces/6Sad_Model3_2Male_2EA_1Young.mp4
297.45	0.858	rating	0.0	sex	sad	male	EA	young	n/a
297.517	0.791	rating_mouse_trajectory	0.0	sex	sad	male	EA	young	n/a
300.375	2.044	face	n/a	sex	pleasure	female	EA	young	task-faces/8Pleasure_Model1_1Female_2EA_1Young.mp4
302.419	1.572	rating	0.996	sex	pleasure	female	EA	young	n/a
302.802	1.189	rating_mouse_trajectory	0.996	sex	pleasure	female	EA	young	n/a
305.343	1.311	face	n/a	sex	sad	male	African	young	task-faces/6Sad_Model4_2Male_3African_1Young.mp4
306.654	1.87	rating	0.0	sex	sad	male	African	young	n/a
307.12	1.404	rating_mouse_trajectory	0.0	sex	sad	male	African	young	n/a
308.56	2.045	face	n/a	sex	pain	male	African	young	task-faces/7Pain_Model3_2Male_3African_1Young.mp4
310.605	1.503	rating	0.0939	sex	pain	male	African	young	n/a
310.889	1.219	rating_mouse_trajectory	0.0939	sex	pain	male	African	young	n/a
312.529	2.044	face	n/a	sex	pain	female	EA	young	task-faces/7Pain_Model2_1Female_2EA_1Young.mp4
314.573	1.469	rating	1.0	sex	pain	female	EA	young	n/a
314.923	1.119	rating_mouse_trajectory	1.0	sex	pain	female	EA	young	n/a
317.498	1.311	face	n/a	sex	happy	female	EA	old	task-faces/1Happy_Model3_1Female_2EA_2Old.mp4
318.808	1.519	rating	1.0	sex	happy	female	EA	old	n/a
319.258	1.069	rating_mouse_trajectory	1.0	sex	happy	female	EA	old	n/a
321.73	2.047	face	n/a	sex	pleasure	male	EA	young	task-faces/8Pleasure_Model2_2Male_2EA_1Young.mp4
323.777	1.802	rating	0.7067	sex	pleasure	male	EA	young	n/a
323.993	1.585	rating_mouse_trajectory	0.7067	sex	pleasure	male	EA	young	n/a
326.697	1.315	face	n/a	sex	happy	male	African	old	task-faces/1Happy_Model5_2Male_3African_2Old.mp4
328.012	0.835	rating	0.0	sex	happy	male	African	old	n/a
328.312	0.535	rating_mouse_trajectory	0.0	sex	happy	male	African	old	n/a
329.929	1.301	face	n/a	sex	sad	female	WC	old	task-faces/6Sad_Model2_1Female_1WC_2Old.mp4
331.23	1.552	rating	0.282	sex	sad	female	WC	old	n/a
331.93	0.852	rating_mouse_trajectory	0.282	sex	sad	female	WC	old	n/a
335.147	1.302	face	n/a	sex	anger	male	EA	old	task-faces/5Anger_Model2_2Male_2EA_2Old.mp4
336.448	1.743	rating	0.8948	sex	anger	male	EA	old	n/a
336.498	1.693	rating_mouse_trajectory	0.8948	sex	anger	male	EA	old	n/a
339.355	1.311	face	n/a	sex	sad	male	EA	old	task-faces/6Sad_Model1_2Male_2EA_2Old.mp4
340.666	1.624	rating	0.555	sex	sad	male	EA	old	n/a
341.5	0.791	rating_mouse_trajectory	0.555	sex	sad	male	EA	old	n/a
344.59	2.045	face	n/a	sex	pain	female	WC	young	task-faces/7Pain_Model1_1Female_1WC_1Young.mp4
346.635	1.472	rating	0.729	sex	pain	female	WC	young	n/a
346.902	1.206	rating_mouse_trajectory	0.729	sex	pain	female	WC	young	n/a
349.562	1.308	face	n/a	sex	surprise	male	EA	young	task-faces/2Surprise_Model4_2Male_2EA_1Young.mp4
350.87	1.104	rating	1.0	sex	surprise	male	EA	young	n/a
351.237	0.737	rating_mouse_trajectory	1.0	sex	surprise	male	EA	young	n/a
353.794	2.045	face	n/a	sex	pleasure	male	WC	old	task-faces/8Pleasure_Model3_2Male_1WC_2Old.mp4
355.839	0.986	rating	0.0	sex	pleasure	male	WC	old	n/a
356.189	0.636	rating_mouse_trajectory	0.0	sex	pleasure	male	WC	old	n/a
359.745	2.046	face	n/a	sex	pleasure	female	WC	young	task-faces/8Pleasure_Model5_1Female_1WC_1Young.mp4
361.791	1.252	rating	0.5854	sex	pleasure	female	WC	young	n/a
362.041	1.002	rating_mouse_trajectory	0.5854	sex	pleasure	female	WC	young	n/a
363.696	1.313	face	n/a	sex	surprise	female	African	young	task-faces/2Surprise_Model5_1Female_3African_1Young.mp4
365.009	1.735	rating	0.7694	sex	surprise	female	African	young	n/a
365.692	1.052	rating_mouse_trajectory	0.7694	sex	surprise	female	African	young	n/a
366.929	1.298	face	n/a	sex	sad	male	WC	young	task-faces/6Sad_Model2_2Male_1WC_1Young.mp4
368.227	0.902	rating	0.0	sex	sad	male	WC	young	n/a
368.56	0.568	rating_mouse_trajectory	0.0	sex	sad	male	WC	young	n/a
372.146	1.316	face	n/a	sex	anger	female	WC	old	task-faces/5Anger_Model4_1Female_1WC_2Old.mp4
373.462	1.446	rating	0.731	sex	anger	female	WC	old	n/a
373.829	1.079	rating_mouse_trajectory	0.731	sex	anger	female	WC	old	n/a
376.386	1.311	face	n/a	sex	surprise	male	WC	young	task-faces/2Surprise_Model5_2Male_1WC_1Young.mp4
377.697	0.818	rating	0.0	sex	surprise	male	WC	young	n/a
378.014	0.501	rating_mouse_trajectory	0.0	sex	surprise	male	WC	young	n/a
380.604	1.311	face	n/a	sex	fear	male	African	young	task-faces/3Fear_Model5_2Male_3African_1Young.mp4
381.915	0.935	rating	1.0	sex	fear	male	African	young	n/a
382.282	0.568	rating_mouse_trajectory	1.0	sex	fear	male	African	young	n/a
386.839	1.312	face	n/a	sex	anger	female	EA	young	task-faces/5Anger_Model5_1Female_2EA_1Young.mp4
388.151	1.44	rating	0.7795	sex	anger	female	EA	young	n/a
388.451	1.14	rating_mouse_trajectory	0.7795	sex	anger	female	EA	young	n/a
390.073	2.046	face	n/a	sex	pleasure	male	WC	young	task-faces/8Pleasure_Model4_2Male_1WC_1Young.mp4
392.119	0.789	rating	0.0	sex	pleasure	male	WC	young	n/a
392.402	0.505	rating_mouse_trajectory	0.0	sex	pleasure	male	WC	young	n/a
396.043	1.311	face	n/a	sex	surprise	female	WC	young	task-faces/2Surprise_Model3_1Female_1WC_1Young.mp4
397.354	1.437	rating	0.5368	sex	surprise	female	WC	young	n/a
397.921	0.87	rating_mouse_trajectory	0.5368	sex	surprise	female	WC	young	n/a
400.265	2.041	face	n/a	sex	pleasure	male	African	old	task-faces/8Pleasure_Model3_2Male_3African_2Old.mp4
402.306	0.835	rating	0.0	sex	pleasure	male	African	old	n/a
402.589	0.552	rating_mouse_trajectory	0.0	sex	pleasure	male	African	old	n/a
406.23	1.311	face	n/a	sex	anger	female	African	old	task-faces/5Anger_Model2_1Female_3African_2Old.mp4
407.541	1.085	rating	0.733	sex	anger	female	African	old	n/a
407.908	0.718	rating_mouse_trajectory	0.733	sex	anger	female	African	old	n/a
410.465	1.311	face	n/a	sex	anger	male	WC	young	task-faces/5Anger_Model1_2Male_1WC_1Young.mp4
411.776	1.202	rating	0.0311	sex	anger	male	WC	young	n/a
412.293	0.685	rating_mouse_trajectory	0.0311	sex	anger	male	WC	young	n/a
413.695	1.316	face	n/a	sex	sad	female	EA	old	task-faces/6Sad_Model3_1Female_2EA_2Old.mp4
415.011	1.852	rating	1.0	sex	sad	female	EA	old	n/a
415.427	1.435	rating_mouse_trajectory	1.0	sex	sad	female	EA	old	n/a
416.929	1.317	face	n/a	sex	surprise	female	WC	old	task-faces/2Surprise_Model2_1Female_1WC_2Old.mp4
418.245	1.483	rating	0.6197	sex	surprise	female	WC	old	n/a
419.162	0.567	rating_mouse_trajectory	0.6197	sex	surprise	female	WC	old	n/a
