onset	duration	trial_type	response_x	response_y	situation	context	modality	stim_file
8.845	32.166	narrative_presentation	n/a	n/a	Slaying of kin unrecognized	town	Text	task-narratives/Narrative3Situation1.txt
41.011	3.068	rating_feeling	793	562	Slaying of kin unrecognized	town	Text	n/a
42.178	1.901	feeling_mouse_trajectory	793	562	Slaying of kin unrecognized	town	Text	n/a
45.045	3.077	rating_expectation	1104	566	Slaying of kin unrecognized	town	Text	n/a
45.378	2.744	expectation_mouse_trajectory	1104	566	Slaying of kin unrecognized	town	Text	n/a
53.112	17.095	narrative_presentation	n/a	n/a	Erroneous judgement	town	Text	task-narratives/Narrative3Situation2.txt
70.207	3.985	rating_feeling	1192	581	Erroneous judgement	town	Text	n/a
71.274	2.918	feeling_mouse_trajectory	1192	581	Erroneous judgement	town	Text	n/a
74.223	0.017	rating_expectation	960	707	Erroneous judgement	town	Text	n/a
n/a	n/a	expectation_mouse_trajectory	960	707	Erroneous judgement	town	Text	n/a
80.288	10.391	narrative_presentation	n/a	n/a	Revolt	town	Text	task-narratives/Narrative3Situation3.txt
90.68	1.968	rating_feeling	1231	490	Revolt	town	Text	n/a
91.246	1.401	feeling_mouse_trajectory	1231	490	Revolt	town	Text	n/a
94.696	1.859	rating_expectation	1055	530	Revolt	town	Text	n/a
95.113	1.442	expectation_mouse_trajectory	1055	530	Revolt	town	Text	n/a
99.762	28.148	narrative_presentation	n/a	n/a	The enigma	city	Text	task-narratives/Narrative3Situation4.txt
127.91	3.201	rating_feeling	1058	553	The enigma	city	Text	n/a
129.343	1.768	feeling_mouse_trajectory	1058	553	The enigma	city	Text	n/a
131.927	1.768	rating_expectation	1244	510	The enigma	city	Text	n/a
132.443	1.251	expectation_mouse_trajectory	1244	510	The enigma	city	Text	n/a
139.027	15.083	narrative_presentation	n/a	n/a	Deliverance	city	Text	task-narratives/Narrative3Situation5.txt
154.11	1.886	rating_feeling	820	542	Deliverance	city	Text	n/a
154.71	1.286	feeling_mouse_trajectory	820	542	Deliverance	city	Text	n/a
158.137	1.568	rating_expectation	726	446	Deliverance	city	Text	n/a
158.487	1.218	expectation_mouse_trajectory	726	446	Deliverance	city	Text	n/a
165.203	15.075	narrative_presentation	n/a	n/a	Remorse	city	Text	task-narratives/Narrative3Situation6.txt
180.279	2.16	rating_feeling	1215	504	Remorse	city	Text	n/a
181.229	1.21	feeling_mouse_trajectory	1215	504	Remorse	city	Text	n/a
184.296	1.325	rating_expectation	1110	575	Remorse	city	Text	n/a
184.912	0.709	expectation_mouse_trajectory	1110	575	Remorse	city	Text	n/a
192.38	36.849	narrative_presentation	n/a	n/a	Loss of loved one	forest	Text	task-narratives/Narrative3Situation7.txt
229.23	1.958	rating_feeling	610	357	Loss of loved one	forest	Text	n/a
229.996	1.192	feeling_mouse_trajectory	610	357	Loss of loved one	forest	Text	n/a
233.248	1.857	rating_expectation	705	485	Loss of loved one	forest	Text	n/a
233.781	1.324	expectation_mouse_trajectory	705	485	Loss of loved one	forest	Text	n/a
239.331	9.708	narrative_presentation	n/a	n/a	All sacrificed for passion	forest	Text	task-narratives/Narrative3Situation8.txt
249.039	3.018	rating_feeling	840	577	All sacrificed for passion	forest	Text	n/a
249.906	2.151	feeling_mouse_trajectory	840	577	All sacrificed for passion	forest	Text	n/a
253.055	1.267	rating_expectation	755	414	All sacrificed for passion	forest	Text	n/a
253.438	0.884	expectation_mouse_trajectory	755	414	All sacrificed for passion	forest	Text	n/a
258.121	27.48	narrative_presentation	n/a	n/a	Discovery of dishonour of loved one	forest	Text	task-narratives/Narrative3Situation9.txt
285.602	1.921	rating_feeling	747	461	Discovery of dishonour of loved one	forest	Text	n/a
286.385	1.137	feeling_mouse_trajectory	747	461	Discovery of dishonour of loved one	forest	Text	n/a
289.621	2.019	rating_expectation	640	392	Discovery of dishonour of loved one	forest	Text	n/a
289.971	1.669	expectation_mouse_trajectory	640	392	Discovery of dishonour of loved one	forest	Text	n/a
295.702	22.445	narrative_presentation	n/a	n/a	Conflict with a god	swamp	Text	task-narratives/Narrative4Situation1.txt
318.147	2.893	rating_feeling	842	500	Conflict with a god	swamp	Text	n/a
319.83	1.21	feeling_mouse_trajectory	842	500	Conflict with a god	swamp	Text	n/a
322.164	2.007	rating_expectation	1142	568	Conflict with a god	swamp	Text	n/a
323.131	1.04	expectation_mouse_trajectory	1142	568	Conflict with a god	swamp	Text	n/a
331.232	24.797	narrative_presentation	n/a	n/a	Adultery	swamp	Text	task-narratives/Narrative4Situation2.txt
356.029	2.395	rating_feeling	675	401	Adultery	swamp	Text	n/a
356.779	1.645	feeling_mouse_trajectory	675	401	Adultery	swamp	Text	n/a
360.045	1.567	rating_expectation	557	413	Adultery	swamp	Text	n/a
360.345	1.267	expectation_mouse_trajectory	557	413	Adultery	swamp	Text	n/a
366.112	21.111	narrative_presentation	n/a	n/a	Slaying of kin unrecognized	swamp	Text	task-narratives/Narrative4Situation3.txt
387.223	1.984	rating_feeling	658	381	Slaying of kin unrecognized	swamp	Text	n/a
388.123	1.084	feeling_mouse_trajectory	658	381	Slaying of kin unrecognized	swamp	Text	n/a
391.24	1.901	rating_expectation	583	379	Slaying of kin unrecognized	swamp	Text	n/a
391.74	1.401	expectation_mouse_trajectory	583	379	Slaying of kin unrecognized	swamp	Text	n/a
396.306	21.111	narrative_presentation	n/a	n/a	Fatal imprudence	hospital	Text	task-narratives/Narrative4Situation4.txt
417.417	3.538	rating_feeling	813	529	Fatal imprudence	hospital	Text	n/a
417.834	3.122	feeling_mouse_trajectory	813	529	Fatal imprudence	hospital	Text	n/a
421.438	1.92	rating_expectation	610	377	Fatal imprudence	hospital	Text	n/a
422.088	1.27	expectation_mouse_trajectory	610	377	Fatal imprudence	hospital	Text	n/a
426.501	25.796	narrative_presentation	n/a	n/a	Erroneous judgement	hospital	Text	task-narratives/Narrative4Situation5.txt
452.297	2.325	rating_feeling	1093	548	Erroneous judgement	hospital	Text	n/a
452.713	1.909	feeling_mouse_trajectory	1093	548	Erroneous judgement	hospital	Text	n/a
456.314	2.407	rating_expectation	837	495	Erroneous judgement	hospital	Text	n/a
456.931	1.791	expectation_mouse_trajectory	837	495	Erroneous judgement	hospital	Text	n/a
461.381	23.445	narrative_presentation	n/a	n/a	Necessity of sacrificing loved ones	hospital	Text	task-narratives/Narrative4Situation6.txt
484.825	2.018	rating_feeling	1202	513	Necessity of sacrificing loved ones	hospital	Text	n/a
485.209	1.634	feeling_mouse_trajectory	1202	513	Necessity of sacrificing loved ones	hospital	Text	n/a
488.843	1.817	rating_expectation	1092	519	Necessity of sacrificing loved ones	hospital	Text	n/a
489.543	1.117	expectation_mouse_trajectory	1092	519	Necessity of sacrificing loved ones	hospital	Text	n/a
493.909	19.097	narrative_presentation	n/a	n/a	Recovery of a lost one	prison	Text	task-narratives/Narrative4Situation7.txt
513.006	2.503	rating_feeling	1093	512	Recovery of a lost one	prison	Text	n/a
513.456	2.053	feeling_mouse_trajectory	1093	512	Recovery of a lost one	prison	Text	n/a
517.021	1.184	rating_expectation	709	619	Recovery of a lost one	prison	Text	n/a
517.404	0.801	expectation_mouse_trajectory	709	619	Recovery of a lost one	prison	Text	n/a
522.087	38.536	narrative_presentation	n/a	n/a	Crimes of love	prison	Text	task-narratives/Narrative4Situation8.txt
560.623	2.385	rating_feeling	778	460	Crimes of love	prison	Text	n/a
561.006	2.002	feeling_mouse_trajectory	778	460	Crimes of love	prison	Text	n/a
564.638	1.767	rating_expectation	595	432	Crimes of love	prison	Text	n/a
565.021	1.384	expectation_mouse_trajectory	595	432	Crimes of love	prison	Text	n/a
573.706	12.391	narrative_presentation	n/a	n/a	Abduction	prison	Text	task-narratives/Narrative4Situation9.txt
586.097	2.392	rating_feeling	775	499	Abduction	prison	Text	n/a
586.563	1.925	feeling_mouse_trajectory	775	499	Abduction	prison	Text	n/a
590.114	3.074	rating_expectation	1000	442	Abduction	prison	Text	n/a
590.88	2.307	expectation_mouse_trajectory	1000	442	Abduction	prison	Text	n/a
