onset	duration	subtask_type	event_type	value	response_accuracy	stim_file	participant_response	reaction_time
7.945	1.017	memory	dummy	study_dummy	n/a	task-fractional/runtype-memory/obj022bell.png	n/a	n/a
9.995	1.017	memory	dummy	study_dummy	n/a	task-fractional/runtype-memory/obj032boot.png	n/a	n/a
12.046	1.017	memory	dummy	study_dummy	n/a	task-fractional/runtype-memory/obj081dinosaur.png	n/a	n/a
14.08	1.017	memory	study	study	n/a	task-fractional/runtype-memory/obj336wheelchair.png	n/a	n/a
16.131	1.017	memory	study	study	n/a	task-fractional/runtype-memory/obj051car.png	n/a	n/a
18.182	1.017	memory	study	study	n/a	task-fractional/runtype-memory/obj038broom.png	n/a	n/a
20.216	1.017	memory	study	study	n/a	task-fractional/runtype-memory/obj091duck.png	n/a	n/a
22.25	1.017	memory	study	study	n/a	task-fractional/runtype-memory/obj298tennisracket.png	n/a	n/a
24.284	1.017	memory	study	study	n/a	task-fractional/runtype-memory/obj340windmill.png	n/a	n/a
26.318	1.017	memory	study	study	n/a	task-fractional/runtype-memory/obj106flashlight.png	n/a	n/a
28.352	1.017	memory	study	study	n/a	task-fractional/runtype-memory/obj237radio.png	n/a	n/a
30.386	1.017	memory	study	study	n/a	task-fractional/runtype-memory/obj031book.png	n/a	n/a
32.42	1.017	memory	study	study	n/a	task-fractional/runtype-memory/obj125guitar.png	n/a	n/a
34.454	1.017	memory	study	study	n/a	task-fractional/runtype-memory/obj178mask.png	n/a	n/a
36.489	1.017	memory	study	study	n/a	task-fractional/runtype-memory/obj161lamp.png	n/a	n/a
38.523	1.017	memory	study	study	n/a	task-fractional/runtype-memory/obj305toaster.png	n/a	n/a
40.557	1.017	memory	study	study	n/a	task-fractional/runtype-memory/obj164lemon.png	n/a	n/a
42.591	1.017	memory	study	study	n/a	task-fractional/runtype-memory/obj293table.png	n/a	n/a
44.625	1.017	memory	study	study	n/a	task-fractional/runtype-memory/obj141hoof.png	n/a	n/a
46.659	1.017	memory	study	study	n/a	task-fractional/runtype-memory/obj209paperclip.png	n/a	n/a
48.693	1.017	memory	study	study	n/a	task-fractional/runtype-memory/obj073crackers.png	n/a	n/a
50.727	1.017	memory	study	study	n/a	task-fractional/runtype-memory/obj101fence.png	n/a	n/a
52.761	1.017	memory	study	study	n/a	task-fractional/runtype-memory/obj149jacket.png	n/a	n/a
54.795	1.017	memory	dummy	study_dummy	n/a	task-fractional/runtype-memory/obj092ear.png	n/a	n/a
56.829	1.017	memory	dummy	study_dummy	n/a	task-fractional/runtype-memory/obj108flute.png	n/a	n/a
58.864	1.017	memory	dummy	study_dummy	n/a	task-fractional/runtype-memory/obj233pyramid.png	n/a	n/a
71.068	25.0	memory	distraction_math	math	n/a	n/a	n/a	n/a
99.129	25.0	memory	distraction_math	math	n/a	n/a	n/a	n/a
127.189	25.0	memory	distraction_math	math	n/a	n/a	n/a	n/a
155.249	25.0	memory	distraction_math	math	n/a	n/a	n/a	n/a
188.962	1.907	memory	test	test_new	correct	task-fractional/runtype-memory/obj166lightbulb.png	new	n/a
192.147	1.03	memory	test	test_new	correct	task-fractional/runtype-memory/obj231pumpkin.png	new	n/a
194.748	1.536	memory	test	test_new	correct	task-fractional/runtype-memory/obj110football.png	new	n/a
197.499	0.998	memory	test	test_new	correct	task-fractional/runtype-memory/obj044cake.png	new	n/a
200.216	0.779	memory	test	test_old	correct	task-fractional/runtype-memory/obj141hoof.png	old	n/a
203.117	0.736	memory	test	test_old	correct	task-fractional/runtype-memory/obj101fence.png	old	n/a
205.935	1.02	memory	test	test_old	correct	task-fractional/runtype-memory/obj237radio.png	old	n/a
208.869	0.957	memory	test	test_new	correct	task-fractional/runtype-memory/obj202package.png	new	n/a
211.52	1.247	memory	test	test_new	correct	task-fractional/runtype-memory/obj036bread.png	new	n/a
214.422	0.976	memory	test	test_new	correct	task-fractional/runtype-memory/obj078dentist.png	new	n/a
217.156	0.818	memory	test	test_new	incorrect	task-fractional/runtype-memory/obj246rockingchair.png	old	n/a
220.107	0.777	memory	test	test_old	correct	task-fractional/runtype-memory/obj209paperclip.png	old	n/a
222.975	0.861	memory	test	test_new	correct	task-fractional/runtype-memory/obj048candle.png	new	n/a
225.842	0.699	memory	test	test_old	correct	task-fractional/runtype-memory/obj031book.png	old	n/a
228.593	0.764	memory	test	test_new	correct	task-fractional/runtype-memory/obj107flower.png	new	n/a
231.294	1.04	memory	test	test_old	incorrect	task-fractional/runtype-memory/obj293table.png	new	n/a
234.179	1.11	memory	test	test_new	correct	task-fractional/runtype-memory/obj268sink.png	new	n/a
237.147	0.727	memory	test	test_new	correct	task-fractional/runtype-memory/obj151puzzle.png	new	n/a
239.831	0.736	memory	test	test_old	correct	task-fractional/runtype-memory/obj340windmill.png	old	n/a
242.732	1.243	memory	test	test_old	correct	task-fractional/runtype-memory/obj073crackers.png	old	n/a
245.533	1.005	memory	test	test_old	correct	task-fractional/runtype-memory/obj178mask.png	old	n/a
248.334	0.712	memory	test	test_new	correct	task-fractional/runtype-memory/obj084dolphin.png	new	n/a
251.119	0.626	memory	test	test_old	correct	task-fractional/runtype-memory/obj038broom.png	old	n/a
254.136	1.048	memory	test	test_old	incorrect	task-fractional/runtype-memory/obj305toaster.png	new	n/a
256.937	0.652	memory	test	test_old	correct	task-fractional/runtype-memory/obj164lemon.png	old	n/a
259.755	0.967	memory	test	test_new	correct	task-fractional/runtype-memory/obj029bomb.png	new	n/a
262.723	0.625	memory	test	test_old	incorrect	task-fractional/runtype-memory/obj149jacket.png	new	n/a
265.741	0.648	memory	test	test_old	correct	task-fractional/runtype-memory/obj125guitar.png	old	n/a
268.408	0.686	memory	test	test_new	correct	task-fractional/runtype-memory/obj076cup.png	new	n/a
271.126	0.748	memory	test	test_old	correct	task-fractional/runtype-memory/obj106flashlight.png	old	n/a
273.744	0.862	memory	test	test_new	correct	task-fractional/runtype-memory/obj082doctor.png	new	n/a
276.678	0.793	memory	test	test_new	correct	task-fractional/runtype-memory/obj222pipe.png	new	n/a
279.279	0.773	memory	test	test_old	correct	task-fractional/runtype-memory/obj051car.png	old	n/a
282.047	0.56	memory	test	test_new	correct	task-fractional/runtype-memory/obj285squirrel.png	new	n/a
285.031	0.714	memory	test	test_old	correct	task-fractional/runtype-memory/obj336wheelchair.png	old	n/a
287.932	0.748	memory	test	test_old	correct	task-fractional/runtype-memory/obj161lamp.png	old	n/a
290.85	0.724	memory	test	test_new	incorrect	task-fractional/runtype-memory/obj137helicopter.png	old	n/a
293.501	0.843	memory	test	test_old	incorrect	task-fractional/runtype-memory/obj298tennisracket.png	new	n/a
296.352	0.689	memory	test	test_new	correct	task-fractional/runtype-memory/obj040butterfly.png	new	n/a
299.086	0.907	memory	test	test_old	correct	task-fractional/runtype-memory/obj091duck.png	old	n/a
308.223	1.017	memory	dummy	study_dummy	n/a	task-fractional/runtype-memory/obj037bridge.png	n/a	n/a
310.257	1.017	memory	dummy	study_dummy	n/a	task-fractional/runtype-memory/obj179match.png	n/a	n/a
312.291	1.017	memory	dummy	study_dummy	n/a	task-fractional/runtype-memory/obj226plate.png	n/a	n/a
314.342	1.017	memory	study	study	n/a	task-fractional/runtype-memory/obj045camel.png	n/a	n/a
316.376	1.017	memory	study	study	n/a	task-fractional/runtype-memory/obj008ashtray.png	n/a	n/a
318.427	1.017	memory	study	study	n/a	task-fractional/runtype-memory/obj174magnet.png	n/a	n/a
320.461	1.017	memory	study	study	n/a	task-fractional/runtype-memory/obj312tree.png	n/a	n/a
322.495	1.017	memory	study	study	n/a	task-fractional/runtype-memory/obj046camera.png	n/a	n/a
324.546	1.017	memory	study	study	n/a	task-fractional/runtype-memory/obj243robot.png	n/a	n/a
326.58	1.017	memory	study	study	n/a	task-fractional/runtype-memory/obj135heart.png	n/a	n/a
328.631	1.017	memory	study	study	n/a	task-fractional/runtype-memory/obj296telephone.png	n/a	n/a
330.665	1.017	memory	study	study	n/a	task-fractional/runtype-memory/obj283spider.png	n/a	n/a
332.699	1.017	memory	study	study	n/a	task-fractional/runtype-memory/obj176man.png	n/a	n/a
334.733	1.017	memory	study	study	n/a	task-fractional/runtype-memory/obj208paper.png	n/a	n/a
336.767	1.017	memory	study	study	n/a	task-fractional/runtype-memory/obj235rabbit.png	n/a	n/a
338.801	1.017	memory	study	study	n/a	task-fractional/runtype-memory/obj207pants.png	n/a	n/a
340.835	1.017	memory	study	study	n/a	task-fractional/runtype-memory/obj019basket.png	n/a	n/a
342.869	1.017	memory	study	study	n/a	task-fractional/runtype-memory/obj145house.png	n/a	n/a
344.904	1.017	memory	study	study	n/a	task-fractional/runtype-memory/obj263seahorse.png	n/a	n/a
346.938	1.017	memory	study	study	n/a	task-fractional/runtype-memory/obj118giraffe.png	n/a	n/a
348.972	1.017	memory	study	study	n/a	task-fractional/runtype-memory/obj113fox.png	n/a	n/a
351.006	1.017	memory	study	study	n/a	task-fractional/runtype-memory/obj196nose.png	n/a	n/a
353.04	1.017	memory	study	study	n/a	task-fractional/runtype-memory/obj322unicycle.png	n/a	n/a
355.074	1.017	memory	dummy	study_dummy	n/a	task-fractional/runtype-memory/obj252ruler.png	n/a	n/a
357.108	1.017	memory	dummy	study_dummy	n/a	task-fractional/runtype-memory/obj287stool.png	n/a	n/a
359.142	1.034	memory	dummy	study_dummy	n/a	task-fractional/runtype-memory/obj297telescope.png	n/a	n/a
371.33	25.0	memory	distraction_math	math	n/a	n/a	n/a	n/a
399.391	25.0	memory	distraction_math	math	n/a	n/a	n/a	n/a
427.451	25.0	memory	distraction_math	math	n/a	n/a	n/a	n/a
455.511	25.0	memory	distraction_math	math	n/a	n/a	n/a	n/a
489.241	0.809	memory	test	test_old	correct	task-fractional/runtype-memory/obj176man.png	old	n/a
492.092	0.841	memory	test	test_old	correct	task-fractional/runtype-memory/obj113fox.png	old	n/a
494.943	0.86	memory	test	test_new	correct	task-fractional/runtype-memory/obj039bus.png	new	n/a
497.927	0.626	memory	test	test_old	correct	task-fractional/runtype-memory/obj235rabbit.png	old	n/a
500.678	0.65	memory	test	test_old	correct	task-fractional/runtype-memory/obj207pants.png	old	n/a
503.579	0.838	memory	test	test_new	correct	task-fractional/runtype-memory/obj100feather.png	new	n/a
506.547	0.888	memory	test	test_new	correct	task-fractional/runtype-memory/obj256sandwich.png	new	n/a
509.448	0.714	memory	test	test_old	correct	task-fractional/runtype-memory/obj135heart.png	old	n/a
512.016	0.721	memory	test	test_new	correct	task-fractional/runtype-memory/obj010baby.png	new	n/a
514.8	0.833	memory	test	test_old	correct	task-fractional/runtype-memory/obj046camera.png	old	n/a
517.518	1.094	memory	test	test_old	incorrect	task-fractional/runtype-memory/obj243robot.png	new	n/a
520.336	0.644	memory	test	test_new	incorrect	task-fractional/runtype-memory/obj139highchair.png	old	n/a
523.02	1.34	memory	test	test_new	correct	task-fractional/runtype-memory/obj102finger.png	new	n/a
525.838	0.665	memory	test	test_new	correct	task-fractional/runtype-memory/obj122glove.png	new	n/a
528.755	0.79	memory	test	test_old	correct	task-fractional/runtype-memory/obj196nose.png	old	n/a
531.773	0.75	memory	test	test_new	correct	task-fractional/runtype-memory/obj017barbecue.png	new	n/a
534.341	0.875	memory	test	test_new	correct	task-fractional/runtype-memory/obj053cat.png	new	n/a
537.142	0.91	memory	test	test_new	correct	task-fractional/runtype-memory/obj234queen.png	new	n/a
539.81	0.712	memory	test	test_new	correct	task-fractional/runtype-memory/obj121globe.png	new	n/a
542.494	0.73	memory	test	test_old	correct	task-fractional/runtype-memory/obj174magnet.png	old	n/a
545.295	0.858	memory	test	test_old	correct	task-fractional/runtype-memory/obj008ashtray.png	old	n/a
548.129	1.246	memory	test	test_old	correct	task-fractional/runtype-memory/obj312tree.png	old	n/a
551.097	0.742	memory	test	test_old	correct	task-fractional/runtype-memory/obj283spider.png	old	n/a
553.798	0.795	memory	test	test_new	correct	task-fractional/runtype-memory/obj154key.png	new	n/a
556.749	0.967	memory	test	test_new	correct	task-fractional/runtype-memory/obj240razor.png	new	n/a
559.35	0.636	memory	test	test_old	correct	task-fractional/runtype-memory/obj263seahorse.png	old	n/a
562.118	0.729	memory	test	test_old	correct	task-fractional/runtype-memory/obj296telephone.png	old	n/a
564.786	0.706	memory	test	test_new	correct	task-fractional/runtype-memory/obj313trophy.png	new	n/a
567.637	0.676	memory	test	test_old	correct	task-fractional/runtype-memory/obj118giraffe.png	old	n/a
570.554	0.778	memory	test	test_new	correct	task-fractional/runtype-memory/obj056cheese.png	new	n/a
573.372	0.715	memory	test	test_old	correct	task-fractional/runtype-memory/obj322unicycle.png	old	n/a
576.14	0.638	memory	test	test_old	correct	task-fractional/runtype-memory/obj045camel.png	old	n/a
578.941	0.735	memory	test	test_new	correct	task-fractional/runtype-memory/obj225pizza.png	new	n/a
581.558	0.957	memory	test	test_old	incorrect	task-fractional/runtype-memory/obj145house.png	new	n/a
584.41	0.939	memory	test	test_old	incorrect	task-fractional/runtype-memory/obj019basket.png	new	n/a
587.294	0.952	memory	test	test_new	correct	task-fractional/runtype-memory/obj251rose.png	new	n/a
590.028	0.767	memory	test	test_new	correct	task-fractional/runtype-memory/obj194nest.png	new	n/a
592.763	0.82	memory	test	test_new	correct	task-fractional/runtype-memory/obj184monkey.png	new	n/a
595.48	0.877	memory	test	test_new	correct	task-fractional/runtype-memory/obj162lawnmower.png	new	n/a
598.381	0.801	memory	test	test_old	correct	task-fractional/runtype-memory/obj208paper.png	old	n/a
