onset	duration	run_type	trial_type	trial_index	cue	stimulusintensity	rating_value	rating_glmslabel	rating_value_fillna	rating_glmslabel_fillna	rating_mouseonset	rating_mousedur	stim_file_TODO	pain_onset_ttl1	pain_onset_ttl2	pain_onset_ttl3	pain_onset_ttl4	pain_stimulus_delivery_success	cognitive_correct_response	cognitive_participant_response	cognitive_response_accuracy
13.39	1.0	pain	cue	1	low_cue	n/a	n/a	n/a	n/a	n/a	n/a	n/a	task-social/cue/runtype-pain/scl/l049.png	n/a	n/a	n/a	n/a	n/a	n/a	n/a	n/a
15.24	1.95	pain	expectrating	1	low_cue	n/a	21.54	Moderate	21.54	Moderate	0.3	1.65	task-social/cue/runtype-pain/scl/l049.png	n/a	n/a	n/a	n/a	n/a	n/a	n/a	n/a
23.98	11.900000000000002	pain	stimulus	1	low_cue	low_stim	n/a	n/a	n/a	n/a	n/a	n/a	n/a	23.98	27.48	32.48	35.88	success	n/a	n/a	n/a
36.9	2.22	pain	outcomerating	1	low_cue	low_stim	15.38	Moderate	15.38	Moderate	0.3	1.65	task-social/outcomerating/task-pain_scale.png	n/a	n/a	n/a	n/a	success	n/a	n/a	n/a
43.0	1.0	pain	cue	2	low_cue	n/a	n/a	n/a	n/a	n/a	n/a	n/a	task-social/cue/runtype-pain/scl/l032.png	n/a	n/a	n/a	n/a	n/a	n/a	n/a	n/a
46.01	2.67	pain	expectrating	2	low_cue	n/a	16.55	Moderate	16.55	Moderate	0.37	2.3	task-social/cue/runtype-pain/scl/l032.png	n/a	n/a	n/a	n/a	n/a	n/a	n/a	n/a
54.73	12.360000000000007	pain	stimulus	2	low_cue	med_stim	n/a	n/a	n/a	n/a	n/a	n/a	n/a	54.73	58.49	63.49	67.1	success	n/a	n/a	n/a
70.2	2.9	pain	outcomerating	2	low_cue	med_stim	18.8	Moderate	18.8	Moderate	0.37	2.3	task-social/outcomerating/task-pain_scale.png	n/a	n/a	n/a	n/a	success	n/a	n/a	n/a
78.7	1.0	pain	cue	3	high_cue	n/a	n/a	n/a	n/a	n/a	n/a	n/a	task-social/cue/runtype-pain/sch/h030.png	n/a	n/a	n/a	n/a	n/a	n/a	n/a	n/a
81.72	1.99	pain	expectrating	3	high_cue	n/a	36.69	Strong	36.69	Strong	0.32	1.67	task-social/cue/runtype-pain/sch/h030.png	n/a	n/a	n/a	n/a	n/a	n/a	n/a	n/a
86.53	12.36	pain	stimulus	3	high_cue	med_stim	n/a	n/a	n/a	n/a	n/a	n/a	n/a	86.53	90.29	95.29	98.9	success	n/a	n/a	n/a
100.01	2.34	pain	outcomerating	3	high_cue	med_stim	20.91	Moderate	20.91	Moderate	0.32	1.67	task-social/outcomerating/task-pain_scale.png	n/a	n/a	n/a	n/a	success	n/a	n/a	n/a
113.9	1.0	pain	cue	4	low_cue	n/a	n/a	n/a	n/a	n/a	n/a	n/a	task-social/cue/runtype-pain/scl/l004.png	n/a	n/a	n/a	n/a	n/a	n/a	n/a	n/a
115.8	1.98	pain	expectrating	4	low_cue	n/a	21.72	Moderate	21.72	Moderate	0.4	1.58	task-social/cue/runtype-pain/scl/l004.png	n/a	n/a	n/a	n/a	n/a	n/a	n/a	n/a
123.25	12.830000000000013	pain	stimulus	4	low_cue	high_stim	n/a	n/a	n/a	n/a	n/a	n/a	n/a	123.25	127.26	132.26	136.07	success	n/a	n/a	n/a
137.11	2.43	pain	outcomerating	4	low_cue	high_stim	27.08	Moderate	27.08	Moderate	0.4	1.58	task-social/outcomerating/task-pain_scale.png	n/a	n/a	n/a	n/a	success	n/a	n/a	n/a
151.71	0.98	pain	cue	5	high_cue	n/a	n/a	n/a	n/a	n/a	n/a	n/a	task-social/cue/runtype-pain/sch/h049.png	n/a	n/a	n/a	n/a	n/a	n/a	n/a	n/a
153.41	2.13	pain	expectrating	5	high_cue	n/a	22.14	Moderate	22.14	Moderate	0.62	1.51	task-social/cue/runtype-pain/sch/h049.png	n/a	n/a	n/a	n/a	n/a	n/a	n/a	n/a
159.93	12.370000000000005	pain	stimulus	5	high_cue	med_stim	n/a	n/a	n/a	n/a	n/a	n/a	n/a	159.93	163.69	168.69	172.3	success	n/a	n/a	n/a
173.1	2.39	pain	outcomerating	5	high_cue	med_stim	18.94	Moderate	18.94	Moderate	0.62	1.51	task-social/outcomerating/task-pain_scale.png	n/a	n/a	n/a	n/a	success	n/a	n/a	n/a
178.81	1.0	pain	cue	6	low_cue	n/a	n/a	n/a	n/a	n/a	n/a	n/a	task-social/cue/runtype-pain/scl/l024.png	n/a	n/a	n/a	n/a	n/a	n/a	n/a	n/a
181.91	2.93	pain	expectrating	6	low_cue	n/a	15.32	Moderate	15.32	Moderate	0.58	2.35	task-social/cue/runtype-pain/scl/l024.png	n/a	n/a	n/a	n/a	n/a	n/a	n/a	n/a
188.13	12.819999999999993	pain	stimulus	6	low_cue	high_stim	n/a	n/a	n/a	n/a	n/a	n/a	n/a	188.13	192.14	197.14	200.95	success	n/a	n/a	n/a
201.9	2.42	pain	outcomerating	6	low_cue	high_stim	20.91	Moderate	20.91	Moderate	0.58	2.35	task-social/outcomerating/task-pain_scale.png	n/a	n/a	n/a	n/a	success	n/a	n/a	n/a
207.2	1.0	pain	cue	7	low_cue	n/a	n/a	n/a	n/a	n/a	n/a	n/a	task-social/cue/runtype-pain/scl/l050.png	n/a	n/a	n/a	n/a	n/a	n/a	n/a	n/a
210.2	2.32	pain	expectrating	7	low_cue	n/a	17.56	Moderate	17.56	Moderate	0.35	1.97	task-social/cue/runtype-pain/scl/l050.png	n/a	n/a	n/a	n/a	n/a	n/a	n/a	n/a
219.57	11.900000000000006	pain	stimulus	7	low_cue	low_stim	n/a	n/a	n/a	n/a	n/a	n/a	n/a	219.57	223.07	228.07	231.47	success	n/a	n/a	n/a
232.71	2.57	pain	outcomerating	7	low_cue	low_stim	10.18	Moderate	10.18	Moderate	0.35	1.97	task-social/outcomerating/task-pain_scale.png	n/a	n/a	n/a	n/a	success	n/a	n/a	n/a
237.59	1.0	pain	cue	8	high_cue	n/a	n/a	n/a	n/a	n/a	n/a	n/a	task-social/cue/runtype-pain/sch/h047.png	n/a	n/a	n/a	n/a	n/a	n/a	n/a	n/a
239.31	2.48	pain	expectrating	8	high_cue	n/a	30.06	Strong	30.06	Strong	0.72	1.77	task-social/cue/runtype-pain/sch/h047.png	n/a	n/a	n/a	n/a	n/a	n/a	n/a	n/a
248.23	12.820000000000022	pain	stimulus	8	high_cue	high_stim	n/a	n/a	n/a	n/a	n/a	n/a	n/a	248.23	252.24	257.24	261.05	success	n/a	n/a	n/a
260.4	2.77	pain	outcomerating	8	high_cue	high_stim	22.96	Moderate	22.96	Moderate	0.72	1.77	task-social/outcomerating/task-pain_scale.png	n/a	n/a	n/a	n/a	success	n/a	n/a	n/a
268.31	1.0	pain	cue	9	high_cue	n/a	n/a	n/a	n/a	n/a	n/a	n/a	task-social/cue/runtype-pain/sch/h054.png	n/a	n/a	n/a	n/a	n/a	n/a	n/a	n/a
271.31	2.18	pain	expectrating	9	high_cue	n/a	14.37	Moderate	14.37	Moderate	0.65	1.53	task-social/cue/runtype-pain/sch/h054.png	n/a	n/a	n/a	n/a	n/a	n/a	n/a	n/a
277.52	12.819999999999993	pain	stimulus	9	high_cue	high_stim	n/a	n/a	n/a	n/a	n/a	n/a	n/a	277.52	281.53	286.53	290.34	success	n/a	n/a	n/a
292.2	2.43	pain	outcomerating	9	high_cue	high_stim	17.56	Moderate	17.56	Moderate	0.65	1.53	task-social/outcomerating/task-pain_scale.png	n/a	n/a	n/a	n/a	success	n/a	n/a	n/a
300.1	1.0	pain	cue	10	high_cue	n/a	n/a	n/a	n/a	n/a	n/a	n/a	task-social/cue/runtype-pain/sch/h027.png	n/a	n/a	n/a	n/a	n/a	n/a	n/a	n/a
302.9	2.22	pain	expectrating	10	high_cue	n/a	21.93	Moderate	21.93	Moderate	0.43	1.79	task-social/cue/runtype-pain/sch/h027.png	n/a	n/a	n/a	n/a	n/a	n/a	n/a	n/a
317.52	11.910000000000025	pain	stimulus	10	high_cue	low_stim	n/a	n/a	n/a	n/a	n/a	n/a	n/a	317.52	321.02	326.02	329.42	success	n/a	n/a	n/a
328.71	2.35	pain	outcomerating	10	high_cue	low_stim	8.52	Weak	8.52	Weak	0.43	1.79	task-social/outcomerating/task-pain_scale.png	n/a	n/a	n/a	n/a	success	n/a	n/a	n/a
333.6	1.0	pain	cue	11	high_cue	n/a	n/a	n/a	n/a	n/a	n/a	n/a	task-social/cue/runtype-pain/sch/h046.png	n/a	n/a	n/a	n/a	n/a	n/a	n/a	n/a
336.5	2.15	pain	expectrating	11	high_cue	n/a	25.13	Moderate	25.13	Moderate	0.35	1.8	task-social/cue/runtype-pain/sch/h046.png	n/a	n/a	n/a	n/a	n/a	n/a	n/a	n/a
345.43	11.899999999999977	pain	stimulus	11	high_cue	low_stim	n/a	n/a	n/a	n/a	n/a	n/a	n/a	345.43	348.93	353.93	357.33	success	n/a	n/a	n/a
359.41	2.67	pain	outcomerating	11	high_cue	low_stim	4.82	Weak	4.82	Weak	0.35	1.8	task-social/outcomerating/task-pain_scale.png	n/a	n/a	n/a	n/a	success	n/a	n/a	n/a
366.99	1.0	pain	cue	12	low_cue	n/a	n/a	n/a	n/a	n/a	n/a	n/a	task-social/cue/runtype-pain/scl/l015.png	n/a	n/a	n/a	n/a	n/a	n/a	n/a	n/a
368.91	2.5	pain	expectrating	12	low_cue	n/a	18.8	Moderate	18.8	Moderate	0.57	1.93	task-social/cue/runtype-pain/scl/l015.png	n/a	n/a	n/a	n/a	n/a	n/a	n/a	n/a
380.52	12.360000000000014	pain	stimulus	12	low_cue	med_stim	n/a	n/a	n/a	n/a	n/a	n/a	n/a	380.52	384.28	389.28	392.89	success	n/a	n/a	n/a
394.5	3.72	pain	outcomerating	12	low_cue	med_stim	16.55	Moderate	16.55	Moderate	0.57	1.93	task-social/outcomerating/task-pain_scale.png	n/a	n/a	n/a	n/a	success	n/a	n/a	n/a
