onset	duration	subtask_type	question	event_type	participant_response	normative_response	response_accuracy	stim_file	trial_index
0.084	2.034	tomspunt	reaching?	block_question_presentation	n/a	n/a	n/a	n/a	0
0.084	0.3	tomspunt	reaching?	block_question_presentation	n/a	n/a	n/a	n/a	1
0.084	0.3	tomspunt	reaching?	block_question_presentation	n/a	n/a	n/a	n/a	2
0.084	0.3	tomspunt	reaching?	block_question_presentation	n/a	n/a	n/a	n/a	3
0.084	0.3	tomspunt	reaching?	block_question_presentation	n/a	n/a	n/a	n/a	4
0.084	0.3	tomspunt	reaching?	block_question_presentation	n/a	n/a	n/a	n/a	5
0.084	0.3	tomspunt	reaching?	block_question_presentation	n/a	n/a	n/a	n/a	6
0.084	0.3	tomspunt	reaching?	block_question_presentation	n/a	n/a	n/a	n/a	7
5.028	1.211	tomspunt	reaching?	how_hand	yes	yes	correct	task-tomspunt/H_007.jpg	0
6.545	1.17	tomspunt	reaching?	how_hand	no	no	correct	task-tomspunt/H_532.jpg	1
8.029	1.019	tomspunt	reaching?	how_hand	yes	yes	correct	task-tomspunt/H_474.jpg	2
9.363	1.093	tomspunt	reaching?	how_hand	no	no	correct	task-tomspunt/H_438.jpg	3
10.763	0.859	tomspunt	reaching?	how_hand	yes	yes	correct	task-tomspunt/H_364.jpg	4
11.93	0.858	tomspunt	reaching?	how_hand	yes	yes	correct	task-tomspunt/H_006.jpg	5
13.098	0.908	tomspunt	reaching?	how_hand	yes	yes	correct	task-tomspunt/H_003.jpg	6
14.315	0.941	tomspunt	reaching?	how_hand	no	no	correct	task-tomspunt/H_132.jpg	7
17.54	2.101	tomspunt	healthy?	block_question_presentation	n/a	n/a	n/a	n/a	8
17.54	0.3	tomspunt	healthy?	block_question_presentation	n/a	n/a	n/a	n/a	9
17.54	0.3	tomspunt	healthy?	block_question_presentation	n/a	n/a	n/a	n/a	10
17.54	0.3	tomspunt	healthy?	block_question_presentation	n/a	n/a	n/a	n/a	11
17.54	0.3	tomspunt	healthy?	block_question_presentation	n/a	n/a	n/a	n/a	12
17.54	0.3	tomspunt	healthy?	block_question_presentation	n/a	n/a	n/a	n/a	13
17.54	0.3	tomspunt	healthy?	block_question_presentation	n/a	n/a	n/a	n/a	14
17.54	0.3	tomspunt	healthy?	block_question_presentation	n/a	n/a	n/a	n/a	15
22.551	1.138	tomspunt	healthy?	why_hand	yes	yes	correct	task-tomspunt/H_627.jpg	8
24.002	1.62	tomspunt	healthy?	why_hand	yes	yes	correct	task-tomspunt/H_438.jpg	9
25.936	0.786	tomspunt	healthy?	why_hand	yes	yes	correct	task-tomspunt/H_364.jpg	10
27.036	1.286	tomspunt	healthy?	why_hand	no	no	correct	task-tomspunt/H_130.jpg	11
28.637	0.852	tomspunt	healthy?	why_hand	yes	yes	correct	task-tomspunt/H_362.jpg	12
29.804	1.102	tomspunt	healthy?	why_hand	no	no	correct	task-tomspunt/H_007.jpg	13
31.221	0.768	tomspunt	healthy?	why_hand	yes	yes	correct	task-tomspunt/H_167.jpg	14
32.288	1.185	tomspunt	healthy?	why_hand	no	no	correct	task-tomspunt/H_019.jpg	15
36.647	2.101	tomspunt	admiring?	block_question_presentation	n/a	n/a	n/a	n/a	16
36.647	0.3	tomspunt	admiring?	block_question_presentation	n/a	n/a	n/a	n/a	17
36.647	0.3	tomspunt	admiring?	block_question_presentation	n/a	n/a	n/a	n/a	18
36.647	0.3	tomspunt	admiring?	block_question_presentation	n/a	n/a	n/a	n/a	19
36.647	0.3	tomspunt	admiring?	block_question_presentation	n/a	n/a	n/a	n/a	20
36.647	0.3	tomspunt	admiring?	block_question_presentation	n/a	n/a	n/a	n/a	21
36.647	0.3	tomspunt	admiring?	block_question_presentation	n/a	n/a	n/a	n/a	22
36.647	0.3	tomspunt	admiring?	block_question_presentation	n/a	n/a	n/a	n/a	23
41.658	0.802	tomspunt	admiring?	why_face	yes	yes	correct	task-tomspunt/F_779.jpg	16
42.775	1.446	tomspunt	admiring?	why_face	yes	yes	correct	task-tomspunt/F_593.jpg	17
44.526	0.835	tomspunt	admiring?	why_face	no	no	correct	task-tomspunt/F_110.jpg	18
45.676	0.696	tomspunt	admiring?	why_face	yes	yes	correct	task-tomspunt/F_590.jpg	19
46.677	1.236	tomspunt	admiring?	why_face	no	no	correct	task-tomspunt/F_692.jpg	20
48.227	0.662	tomspunt	admiring?	why_face	yes	yes	correct	task-tomspunt/F_759.jpg	21
49.194	0.769	tomspunt	admiring?	why_face	yes	yes	correct	task-tomspunt/F_648.jpg	22
50.278	0.902	tomspunt	admiring?	why_face	no	no	correct	task-tomspunt/F_129.jpg	23
55.621	2.101	tomspunt	smiling?	block_question_presentation	n/a	n/a	n/a	n/a	24
55.621	0.3	tomspunt	smiling?	block_question_presentation	n/a	n/a	n/a	n/a	25
55.621	0.3	tomspunt	smiling?	block_question_presentation	n/a	n/a	n/a	n/a	26
55.621	0.3	tomspunt	smiling?	block_question_presentation	n/a	n/a	n/a	n/a	27
55.621	0.3	tomspunt	smiling?	block_question_presentation	n/a	n/a	n/a	n/a	28
55.621	0.3	tomspunt	smiling?	block_question_presentation	n/a	n/a	n/a	n/a	29
55.621	0.3	tomspunt	smiling?	block_question_presentation	n/a	n/a	n/a	n/a	30
55.621	0.3	tomspunt	smiling?	block_question_presentation	n/a	n/a	n/a	n/a	31
60.632	0.54	tomspunt	smiling?	how_face	yes	yes	correct	task-tomspunt/F_139.jpg	24
61.482	0.873	tomspunt	smiling?	how_face	no	no	correct	task-tomspunt/F_712.jpg	25
62.666	0.706	tomspunt	smiling?	how_face	yes	yes	correct	task-tomspunt/F_695.jpg	26
63.683	0.805	tomspunt	smiling?	how_face	no	no	correct	task-tomspunt/F_758.jpg	27
64.8	0.539	tomspunt	smiling?	how_face	yes	yes	correct	task-tomspunt/F_083.jpg	28
65.65	0.572	tomspunt	smiling?	how_face	yes	yes	correct	task-tomspunt/F_759.jpg	29
66.534	0.721	tomspunt	smiling?	how_face	no	no	correct	task-tomspunt/F_412.jpg	30
67.568	0.721	tomspunt	smiling?	how_face	yes	yes	correct	task-tomspunt/F_593.jpg	31
73.144	2.101	tomspunt	lifting?	block_question_presentation	n/a	n/a	n/a	n/a	32
73.144	0.3	tomspunt	lifting?	block_question_presentation	n/a	n/a	n/a	n/a	33
73.144	0.3	tomspunt	lifting?	block_question_presentation	n/a	n/a	n/a	n/a	34
73.144	0.3	tomspunt	lifting?	block_question_presentation	n/a	n/a	n/a	n/a	35
73.144	0.3	tomspunt	lifting?	block_question_presentation	n/a	n/a	n/a	n/a	36
73.144	0.3	tomspunt	lifting?	block_question_presentation	n/a	n/a	n/a	n/a	37
73.144	0.3	tomspunt	lifting?	block_question_presentation	n/a	n/a	n/a	n/a	38
73.144	0.3	tomspunt	lifting?	block_question_presentation	n/a	n/a	n/a	n/a	39
78.155	1.035	tomspunt	lifting?	how_hand	yes	yes	correct	task-tomspunt/H_136.jpg	32
79.506	1.318	tomspunt	lifting?	how_hand	no	no	correct	task-tomspunt/H_038.jpg	33
81.14	1.415	tomspunt	lifting?	how_hand	yes	yes	correct	task-tomspunt/H_189.jpg	34
82.857	1.099	tomspunt	lifting?	how_hand	no	no	correct	task-tomspunt/H_077.jpg	35
84.257	0.819	tomspunt	lifting?	how_hand	yes	yes	correct	task-tomspunt/H_443.jpg	36
85.391	1.035	tomspunt	lifting?	how_hand	no	no	correct	task-tomspunt/H_012.jpg	37
86.742	0.635	tomspunt	lifting?	how_hand	yes	yes	correct	task-tomspunt/H_362.jpg	38
87.692	1.38	tomspunt	lifting?	how_hand	no	yes	incorrect	task-tomspunt/H_170.jpg	39
95.619	2.101	tomspunt	helping?	block_question_presentation	n/a	n/a	n/a	n/a	40
95.619	0.3	tomspunt	helping?	block_question_presentation	n/a	n/a	n/a	n/a	41
95.619	0.3	tomspunt	helping?	block_question_presentation	n/a	n/a	n/a	n/a	42
95.619	0.3	tomspunt	helping?	block_question_presentation	n/a	n/a	n/a	n/a	43
95.619	0.3	tomspunt	helping?	block_question_presentation	n/a	n/a	n/a	n/a	44
95.619	0.3	tomspunt	helping?	block_question_presentation	n/a	n/a	n/a	n/a	45
95.619	0.3	tomspunt	helping?	block_question_presentation	n/a	n/a	n/a	n/a	46
95.619	0.3	tomspunt	helping?	block_question_presentation	n/a	n/a	n/a	n/a	47
100.63	1.425	tomspunt	helping?	why_hand	yes	yes	correct	task-tomspunt/H_077.jpg	40
102.364	1.069	tomspunt	helping?	why_hand	yes	yes	correct	task-tomspunt/H_349.jpg	41
103.748	1.008	tomspunt	helping?	why_hand	yes	yes	correct	task-tomspunt/H_474.jpg	42
105.065	1.185	tomspunt	helping?	why_hand	yes	yes	correct	task-tomspunt/H_024.jpg	43
106.566	1.223	tomspunt	helping?	why_hand	no	no	correct	task-tomspunt/H_012.jpg	44
108.1	1.255	tomspunt	helping?	why_hand	no	no	correct	task-tomspunt/H_159.jpg	45
109.667	0.905	tomspunt	helping?	why_hand	yes	yes	correct	task-tomspunt/H_111.jpg	46
110.884	1.054	tomspunt	helping?	why_hand	no	no	correct	task-tomspunt/H_091.jpg	47
113.509	2.084	tomspunt	proud?	block_question_presentation	n/a	n/a	n/a	n/a	48
113.509	0.3	tomspunt	proud?	block_question_presentation	n/a	n/a	n/a	n/a	49
113.509	0.3	tomspunt	proud?	block_question_presentation	n/a	n/a	n/a	n/a	50
113.509	0.3	tomspunt	proud?	block_question_presentation	n/a	n/a	n/a	n/a	51
113.509	0.3	tomspunt	proud?	block_question_presentation	n/a	n/a	n/a	n/a	52
113.509	0.3	tomspunt	proud?	block_question_presentation	n/a	n/a	n/a	n/a	53
113.509	0.3	tomspunt	proud?	block_question_presentation	n/a	n/a	n/a	n/a	54
113.509	0.3	tomspunt	proud?	block_question_presentation	n/a	n/a	n/a	n/a	55
118.503	1.252	tomspunt	proud?	why_face	yes	yes	correct	task-tomspunt/F_598.jpg	48
120.071	1.685	tomspunt	proud?	why_face	no	no	correct	task-tomspunt/F_760.jpg	49
122.072	1.052	tomspunt	proud?	why_face	yes	yes	correct	task-tomspunt/F_582.jpg	50
123.439	0.951	tomspunt	proud?	why_face	no	no	correct	task-tomspunt/F_412.jpg	51
124.706	0.768	tomspunt	proud?	why_face	yes	yes	correct	task-tomspunt/F_083.jpg	52
125.79	n/a	tomspunt	proud?	why_face	n/a	no	incorrect	task-tomspunt/F_776.jpg	53
127.824	0.018	tomspunt	proud?	why_face	no	yes	incorrect	task-tomspunt/F_618.jpg	54
128.157	1.552	tomspunt	proud?	why_face	yes	yes	correct	task-tomspunt/F_695.jpg	55
131.033	2.101	tomspunt	looking to side?	block_question_presentation	n/a	n/a	n/a	n/a	56
131.033	0.3	tomspunt	looking to side?	block_question_presentation	n/a	n/a	n/a	n/a	57
131.033	0.3	tomspunt	looking to side?	block_question_presentation	n/a	n/a	n/a	n/a	58
131.033	0.3	tomspunt	looking to side?	block_question_presentation	n/a	n/a	n/a	n/a	59
131.033	0.3	tomspunt	looking to side?	block_question_presentation	n/a	n/a	n/a	n/a	60
131.033	0.3	tomspunt	looking to side?	block_question_presentation	n/a	n/a	n/a	n/a	61
131.033	0.3	tomspunt	looking to side?	block_question_presentation	n/a	n/a	n/a	n/a	62
131.033	0.3	tomspunt	looking to side?	block_question_presentation	n/a	n/a	n/a	n/a	63
136.043	1.002	tomspunt	looking to side?	how_face	yes	yes	correct	task-tomspunt/F_590.jpg	56
137.361	1.078	tomspunt	looking to side?	how_face	yes	yes	correct	task-tomspunt/F_433.jpg	57
138.744	0.818	tomspunt	looking to side?	how_face	yes	yes	correct	task-tomspunt/F_716.jpg	58
139.878	1.061	tomspunt	looking to side?	how_face	no	no	correct	task-tomspunt/F_779.jpg	59
141.245	0.926	tomspunt	looking to side?	how_face	yes	yes	correct	task-tomspunt/F_760.jpg	60
142.479	0.943	tomspunt	looking to side?	how_face	no	no	correct	task-tomspunt/F_111.jpg	61
143.73	1.043	tomspunt	looking to side?	how_face	no	yes	incorrect	task-tomspunt/F_110.jpg	62
145.08	0.935	tomspunt	looking to side?	how_face	no	no	correct	task-tomspunt/F_798.jpg	63
150.14	2.101	tomspunt	argument?	block_question_presentation	n/a	n/a	n/a	n/a	64
150.14	0.3	tomspunt	argument?	block_question_presentation	n/a	n/a	n/a	n/a	65
150.14	0.3	tomspunt	argument?	block_question_presentation	n/a	n/a	n/a	n/a	66
150.14	0.3	tomspunt	argument?	block_question_presentation	n/a	n/a	n/a	n/a	67
150.14	0.3	tomspunt	argument?	block_question_presentation	n/a	n/a	n/a	n/a	68
150.14	0.3	tomspunt	argument?	block_question_presentation	n/a	n/a	n/a	n/a	69
150.14	0.3	tomspunt	argument?	block_question_presentation	n/a	n/a	n/a	n/a	70
150.14	0.3	tomspunt	argument?	block_question_presentation	n/a	n/a	n/a	n/a	71
155.151	1.071	tomspunt	argument?	why_face	yes	yes	correct	task-tomspunt/F_716.jpg	64
156.534	0.704	tomspunt	argument?	why_face	no	no	correct	task-tomspunt/F_139.jpg	65
157.551	0.655	tomspunt	argument?	why_face	yes	yes	correct	task-tomspunt/F_712.jpg	66
158.518	0.854	tomspunt	argument?	why_face	no	no	correct	task-tomspunt/F_433.jpg	67
159.686	0.653	tomspunt	argument?	why_face	yes	yes	correct	task-tomspunt/F_403.jpg	68
160.653	0.752	tomspunt	argument?	why_face	no	no	correct	task-tomspunt/F_844.jpg	69
161.72	0.802	tomspunt	argument?	why_face	yes	yes	correct	task-tomspunt/F_743.jpg	70
162.837	0.851	tomspunt	argument?	why_face	yes	yes	correct	task-tomspunt/F_758.jpg	71
167.98	2.101	tomspunt	open mouth?	block_question_presentation	n/a	n/a	n/a	n/a	72
167.98	0.3	tomspunt	open mouth?	block_question_presentation	n/a	n/a	n/a	n/a	73
167.98	0.3	tomspunt	open mouth?	block_question_presentation	n/a	n/a	n/a	n/a	74
167.98	0.3	tomspunt	open mouth?	block_question_presentation	n/a	n/a	n/a	n/a	75
167.98	0.3	tomspunt	open mouth?	block_question_presentation	n/a	n/a	n/a	n/a	76
167.98	0.3	tomspunt	open mouth?	block_question_presentation	n/a	n/a	n/a	n/a	77
167.98	0.3	tomspunt	open mouth?	block_question_presentation	n/a	n/a	n/a	n/a	78
167.98	0.3	tomspunt	open mouth?	block_question_presentation	n/a	n/a	n/a	n/a	79
172.99	0.668	tomspunt	open mouth?	how_face	yes	yes	correct	task-tomspunt/F_844.jpg	72
173.974	0.618	tomspunt	open mouth?	how_face	yes	yes	correct	task-tomspunt/F_776.jpg	73
174.908	0.781	tomspunt	open mouth?	how_face	no	no	correct	task-tomspunt/F_544.jpg	74
175.992	0.535	tomspunt	open mouth?	how_face	yes	yes	correct	task-tomspunt/F_692.jpg	75
176.842	0.635	tomspunt	open mouth?	how_face	no	no	correct	task-tomspunt/F_584.jpg	76
177.792	0.48	tomspunt	open mouth?	how_face	yes	yes	correct	task-tomspunt/F_403.jpg	77
178.576	0.58	tomspunt	open mouth?	how_face	yes	yes	correct	task-tomspunt/F_086.jpg	78
179.46	0.68	tomspunt	open mouth?	how_face	no	no	correct	task-tomspunt/F_648.jpg	79
185.87	2.101	tomspunt	pressing button?	block_question_presentation	n/a	n/a	n/a	n/a	80
185.87	0.3	tomspunt	pressing button?	block_question_presentation	n/a	n/a	n/a	n/a	81
185.87	0.3	tomspunt	pressing button?	block_question_presentation	n/a	n/a	n/a	n/a	82
185.87	0.3	tomspunt	pressing button?	block_question_presentation	n/a	n/a	n/a	n/a	83
185.87	0.3	tomspunt	pressing button?	block_question_presentation	n/a	n/a	n/a	n/a	84
185.87	0.3	tomspunt	pressing button?	block_question_presentation	n/a	n/a	n/a	n/a	85
185.87	0.3	tomspunt	pressing button?	block_question_presentation	n/a	n/a	n/a	n/a	86
185.87	0.3	tomspunt	pressing button?	block_question_presentation	n/a	n/a	n/a	n/a	87
190.88	0.559	tomspunt	pressing button?	how_hand	yes	yes	correct	task-tomspunt/H_019.jpg	80
191.747	0.908	tomspunt	pressing button?	how_hand	no	no	correct	task-tomspunt/H_024.jpg	81
192.965	0.902	tomspunt	pressing button?	how_hand	no	no	correct	task-tomspunt/H_130.jpg	82
194.182	0.54	tomspunt	pressing button?	how_hand	yes	yes	correct	task-tomspunt/H_502.jpg	83
195.032	0.773	tomspunt	pressing button?	how_hand	no	no	correct	task-tomspunt/H_261.jpg	84
196.116	0.623	tomspunt	pressing button?	how_hand	yes	yes	correct	task-tomspunt/H_332.jpg	85
197.049	0.589	tomspunt	pressing button?	how_hand	yes	yes	correct	task-tomspunt/H_126.jpg	86
197.95	0.672	tomspunt	pressing button?	how_hand	yes	yes	correct	task-tomspunt/H_483.jpg	87
203.66	2.101	tomspunt	competing?	block_question_presentation	n/a	n/a	n/a	n/a	88
203.66	0.3	tomspunt	competing?	block_question_presentation	n/a	n/a	n/a	n/a	89
203.66	0.3	tomspunt	competing?	block_question_presentation	n/a	n/a	n/a	n/a	90
203.66	0.3	tomspunt	competing?	block_question_presentation	n/a	n/a	n/a	n/a	91
203.66	0.3	tomspunt	competing?	block_question_presentation	n/a	n/a	n/a	n/a	92
203.66	0.3	tomspunt	competing?	block_question_presentation	n/a	n/a	n/a	n/a	93
203.66	0.3	tomspunt	competing?	block_question_presentation	n/a	n/a	n/a	n/a	94
203.66	0.3	tomspunt	competing?	block_question_presentation	n/a	n/a	n/a	n/a	95
208.67	0.435	tomspunt	competing?	why_hand	yes	yes	correct	task-tomspunt/H_261.jpg	88
209.421	0.851	tomspunt	competing?	why_hand	no	no	correct	task-tomspunt/H_483.jpg	89
210.588	0.652	tomspunt	competing?	why_hand	yes	yes	correct	task-tomspunt/H_132.jpg	90
211.555	1.067	tomspunt	competing?	why_hand	no	no	correct	task-tomspunt/H_126.jpg	91
212.922	0.719	tomspunt	competing?	why_hand	yes	yes	correct	task-tomspunt/H_136.jpg	92
213.956	0.885	tomspunt	competing?	why_hand	no	no	correct	task-tomspunt/H_502.jpg	93
215.156	0.551	tomspunt	competing?	why_hand	yes	yes	correct	task-tomspunt/H_003.jpg	94
216.023	0.568	tomspunt	competing?	why_hand	yes	yes	correct	task-tomspunt/H_170.jpg	95
221.733	2.101	tomspunt	self-doubt?	block_question_presentation	n/a	n/a	n/a	n/a	96
221.733	0.3	tomspunt	self-doubt?	block_question_presentation	n/a	n/a	n/a	n/a	97
221.733	0.3	tomspunt	self-doubt?	block_question_presentation	n/a	n/a	n/a	n/a	98
221.733	0.3	tomspunt	self-doubt?	block_question_presentation	n/a	n/a	n/a	n/a	99
221.733	0.3	tomspunt	self-doubt?	block_question_presentation	n/a	n/a	n/a	n/a	100
221.733	0.3	tomspunt	self-doubt?	block_question_presentation	n/a	n/a	n/a	n/a	101
221.733	0.3	tomspunt	self-doubt?	block_question_presentation	n/a	n/a	n/a	n/a	102
221.733	0.3	tomspunt	self-doubt?	block_question_presentation	n/a	n/a	n/a	n/a	103
226.744	0.945	tomspunt	self-doubt?	why_face	yes	yes	correct	task-tomspunt/F_544.jpg	96
227.994	1.411	tomspunt	self-doubt?	why_face	no	no	correct	task-tomspunt/F_086.jpg	97
229.712	0.601	tomspunt	self-doubt?	why_face	yes	yes	correct	task-tomspunt/F_798.jpg	98
230.629	0.593	tomspunt	self-doubt?	why_face	yes	yes	correct	task-tomspunt/F_111.jpg	99
231.529	0.618	tomspunt	self-doubt?	why_face	no	no	correct	task-tomspunt/F_774.jpg	100
232.463	0.61	tomspunt	self-doubt?	why_face	yes	yes	correct	task-tomspunt/F_754.jpg	101
233.38	0.835	tomspunt	self-doubt?	why_face	no	no	correct	task-tomspunt/F_128.jpg	102
234.53	0.718	tomspunt	self-doubt?	why_face	yes	yes	correct	task-tomspunt/F_584.jpg	103
240.79	2.084	tomspunt	looking at camera?	block_question_presentation	n/a	n/a	n/a	n/a	104
240.79	0.3	tomspunt	looking at camera?	block_question_presentation	n/a	n/a	n/a	n/a	105
240.79	0.3	tomspunt	looking at camera?	block_question_presentation	n/a	n/a	n/a	n/a	106
240.79	0.3	tomspunt	looking at camera?	block_question_presentation	n/a	n/a	n/a	n/a	107
240.79	0.3	tomspunt	looking at camera?	block_question_presentation	n/a	n/a	n/a	n/a	108
240.79	0.3	tomspunt	looking at camera?	block_question_presentation	n/a	n/a	n/a	n/a	109
240.79	0.3	tomspunt	looking at camera?	block_question_presentation	n/a	n/a	n/a	n/a	110
240.79	0.3	tomspunt	looking at camera?	block_question_presentation	n/a	n/a	n/a	n/a	111
245.801	0.671	tomspunt	looking at camera?	how_face	yes	yes	correct	task-tomspunt/F_128.jpg	104
246.785	0.552	tomspunt	looking at camera?	how_face	yes	yes	correct	task-tomspunt/F_618.jpg	105
247.652	0.57	tomspunt	looking at camera?	how_face	yes	yes	correct	task-tomspunt/F_598.jpg	106
248.535	0.953	tomspunt	looking at camera?	how_face	no	no	correct	task-tomspunt/F_743.jpg	107
249.802	0.586	tomspunt	looking at camera?	how_face	yes	yes	correct	task-tomspunt/F_774.jpg	108
250.703	0.869	tomspunt	looking at camera?	how_face	yes	no	incorrect	task-tomspunt/F_582.jpg	109
251.887	0.835	tomspunt	looking at camera?	how_face	no	no	correct	task-tomspunt/F_754.jpg	110
253.037	0.535	tomspunt	looking at camera?	how_face	yes	yes	correct	task-tomspunt/F_129.jpg	111
259.58	2.084	tomspunt	both hands?	block_question_presentation	n/a	n/a	n/a	n/a	112
259.58	0.3	tomspunt	both hands?	block_question_presentation	n/a	n/a	n/a	n/a	113
259.58	0.3	tomspunt	both hands?	block_question_presentation	n/a	n/a	n/a	n/a	114
259.58	0.3	tomspunt	both hands?	block_question_presentation	n/a	n/a	n/a	n/a	115
259.58	0.3	tomspunt	both hands?	block_question_presentation	n/a	n/a	n/a	n/a	116
259.58	0.3	tomspunt	both hands?	block_question_presentation	n/a	n/a	n/a	n/a	117
259.58	0.3	tomspunt	both hands?	block_question_presentation	n/a	n/a	n/a	n/a	118
259.58	0.3	tomspunt	both hands?	block_question_presentation	n/a	n/a	n/a	n/a	119
264.575	0.868	tomspunt	both hands?	how_hand	yes	yes	correct	task-tomspunt/H_167.jpg	112
265.758	0.719	tomspunt	both hands?	how_hand	no	no	correct	task-tomspunt/H_091.jpg	113
266.792	1.085	tomspunt	both hands?	how_hand	no	no	correct	task-tomspunt/H_627.jpg	114
268.193	0.979	tomspunt	both hands?	how_hand	yes	yes	correct	task-tomspunt/H_027.jpg	115
269.476	0.802	tomspunt	both hands?	how_hand	yes	yes	correct	task-tomspunt/H_111.jpg	116
270.594	0.785	tomspunt	both hands?	how_hand	no	no	correct	task-tomspunt/H_159.jpg	117
271.694	0.828	tomspunt	both hands?	how_hand	yes	yes	correct	task-tomspunt/H_581.jpg	118
272.828	0.778	tomspunt	both hands?	how_hand	yes	yes	correct	task-tomspunt/H_349.jpg	119
278.371	2.084	tomspunt	self-protection?	block_question_presentation	n/a	n/a	n/a	n/a	120
278.371	0.3	tomspunt	self-protection?	block_question_presentation	n/a	n/a	n/a	n/a	121
278.371	0.3	tomspunt	self-protection?	block_question_presentation	n/a	n/a	n/a	n/a	122
278.371	0.3	tomspunt	self-protection?	block_question_presentation	n/a	n/a	n/a	n/a	123
278.371	0.3	tomspunt	self-protection?	block_question_presentation	n/a	n/a	n/a	n/a	124
278.371	0.3	tomspunt	self-protection?	block_question_presentation	n/a	n/a	n/a	n/a	125
278.371	0.3	tomspunt	self-protection?	block_question_presentation	n/a	n/a	n/a	n/a	126
278.371	0.3	tomspunt	self-protection?	block_question_presentation	n/a	n/a	n/a	n/a	127
283.365	0.857	tomspunt	self-protection?	why_hand	yes	yes	correct	task-tomspunt/H_443.jpg	120
284.532	0.973	tomspunt	self-protection?	why_hand	no	no	correct	task-tomspunt/H_006.jpg	121
285.816	0.685	tomspunt	self-protection?	why_hand	yes	yes	correct	task-tomspunt/H_581.jpg	122
286.816	1.172	tomspunt	self-protection?	why_hand	no	no	correct	task-tomspunt/H_532.jpg	123
288.3	1.139	tomspunt	self-protection?	why_hand	yes	yes	correct	task-tomspunt/H_027.jpg	124
289.751	0.888	tomspunt	self-protection?	why_hand	yes	yes	correct	task-tomspunt/H_038.jpg	125
290.951	0.919	tomspunt	self-protection?	why_hand	no	no	correct	task-tomspunt/H_332.jpg	126
292.185	0.653	tomspunt	self-protection?	why_hand	yes	yes	correct	task-tomspunt/H_189.jpg	127
299.845	2.101	tomspunt	smiling?	block_question_presentation	n/a	n/a	n/a	n/a	128
299.845	0.3	tomspunt	smiling?	block_question_presentation	n/a	n/a	n/a	n/a	129
299.845	0.3	tomspunt	smiling?	block_question_presentation	n/a	n/a	n/a	n/a	130
299.845	0.3	tomspunt	smiling?	block_question_presentation	n/a	n/a	n/a	n/a	131
299.845	0.3	tomspunt	smiling?	block_question_presentation	n/a	n/a	n/a	n/a	132
299.845	0.3	tomspunt	smiling?	block_question_presentation	n/a	n/a	n/a	n/a	133
299.845	0.3	tomspunt	smiling?	block_question_presentation	n/a	n/a	n/a	n/a	134
299.845	0.3	tomspunt	smiling?	block_question_presentation	n/a	n/a	n/a	n/a	135
304.856	0.702	tomspunt	smiling?	how_face	yes	yes	correct	task-tomspunt/F_759.jpg	128
305.873	0.552	tomspunt	smiling?	how_face	no	no	correct	task-tomspunt/F_412.jpg	129
306.74	0.701	tomspunt	smiling?	how_face	yes	yes	correct	task-tomspunt/F_593.jpg	130
307.757	0.718	tomspunt	smiling?	how_face	no	no	correct	task-tomspunt/F_712.jpg	131
308.791	0.631	tomspunt	smiling?	how_face	yes	yes	correct	task-tomspunt/F_695.jpg	132
309.725	0.685	tomspunt	smiling?	how_face	yes	yes	correct	task-tomspunt/F_139.jpg	133
310.725	0.652	tomspunt	smiling?	how_face	yes	yes	correct	task-tomspunt/F_083.jpg	134
311.692	0.869	tomspunt	smiling?	how_face	no	no	correct	task-tomspunt/F_758.jpg	135
317.635	2.101	tomspunt	admiring?	block_question_presentation	n/a	n/a	n/a	n/a	136
317.635	0.3	tomspunt	admiring?	block_question_presentation	n/a	n/a	n/a	n/a	137
317.635	0.3	tomspunt	admiring?	block_question_presentation	n/a	n/a	n/a	n/a	138
317.635	0.3	tomspunt	admiring?	block_question_presentation	n/a	n/a	n/a	n/a	139
317.635	0.3	tomspunt	admiring?	block_question_presentation	n/a	n/a	n/a	n/a	140
317.635	0.3	tomspunt	admiring?	block_question_presentation	n/a	n/a	n/a	n/a	141
317.635	0.3	tomspunt	admiring?	block_question_presentation	n/a	n/a	n/a	n/a	142
317.635	0.3	tomspunt	admiring?	block_question_presentation	n/a	n/a	n/a	n/a	143
322.646	0.501	tomspunt	admiring?	why_face	yes	yes	correct	task-tomspunt/F_593.jpg	136
323.463	0.792	tomspunt	admiring?	why_face	no	no	correct	task-tomspunt/F_129.jpg	137
324.564	0.569	tomspunt	admiring?	why_face	yes	yes	correct	task-tomspunt/F_759.jpg	138
325.447	0.958	tomspunt	admiring?	why_face	yes	no	incorrect	task-tomspunt/F_692.jpg	139
326.714	0.719	tomspunt	admiring?	why_face	yes	yes	correct	task-tomspunt/F_779.jpg	140
327.748	0.757	tomspunt	admiring?	why_face	yes	yes	correct	task-tomspunt/F_590.jpg	141
328.815	0.74	tomspunt	admiring?	why_face	yes	yes	correct	task-tomspunt/F_648.jpg	142
329.866	0.723	tomspunt	admiring?	why_face	no	no	correct	task-tomspunt/F_110.jpg	143
335.525	2.101	tomspunt	competing?	block_question_presentation	n/a	n/a	n/a	n/a	144
335.525	0.3	tomspunt	competing?	block_question_presentation	n/a	n/a	n/a	n/a	145
335.525	0.3	tomspunt	competing?	block_question_presentation	n/a	n/a	n/a	n/a	146
335.525	0.3	tomspunt	competing?	block_question_presentation	n/a	n/a	n/a	n/a	147
335.525	0.3	tomspunt	competing?	block_question_presentation	n/a	n/a	n/a	n/a	148
335.525	0.3	tomspunt	competing?	block_question_presentation	n/a	n/a	n/a	n/a	149
335.525	0.3	tomspunt	competing?	block_question_presentation	n/a	n/a	n/a	n/a	150
335.525	0.3	tomspunt	competing?	block_question_presentation	n/a	n/a	n/a	n/a	151
340.536	0.535	tomspunt	competing?	why_hand	yes	yes	correct	task-tomspunt/H_261.jpg	144
341.387	0.485	tomspunt	competing?	why_hand	yes	yes	correct	task-tomspunt/H_170.jpg	145
342.187	0.735	tomspunt	competing?	why_hand	no	no	correct	task-tomspunt/H_483.jpg	146
343.237	0.435	tomspunt	competing?	why_hand	yes	yes	correct	task-tomspunt/H_132.jpg	147
343.988	0.601	tomspunt	competing?	why_hand	yes	yes	correct	task-tomspunt/H_136.jpg	148
344.905	0.568	tomspunt	competing?	why_hand	yes	yes	correct	task-tomspunt/H_003.jpg	149
345.788	0.585	tomspunt	competing?	why_hand	no	no	correct	task-tomspunt/H_126.jpg	150
346.689	0.819	tomspunt	competing?	why_hand	no	no	correct	task-tomspunt/H_502.jpg	151
357.0	2.101	tomspunt	reaching?	block_question_presentation	n/a	n/a	n/a	n/a	152
357.0	0.3	tomspunt	reaching?	block_question_presentation	n/a	n/a	n/a	n/a	153
357.0	0.3	tomspunt	reaching?	block_question_presentation	n/a	n/a	n/a	n/a	154
357.0	0.3	tomspunt	reaching?	block_question_presentation	n/a	n/a	n/a	n/a	155
357.0	0.3	tomspunt	reaching?	block_question_presentation	n/a	n/a	n/a	n/a	156
357.0	0.3	tomspunt	reaching?	block_question_presentation	n/a	n/a	n/a	n/a	157
357.0	0.3	tomspunt	reaching?	block_question_presentation	n/a	n/a	n/a	n/a	158
357.0	0.3	tomspunt	reaching?	block_question_presentation	n/a	n/a	n/a	n/a	159
362.011	0.535	tomspunt	reaching?	how_hand	yes	yes	correct	task-tomspunt/H_003.jpg	152
362.861	0.544	tomspunt	reaching?	how_hand	yes	yes	correct	task-tomspunt/H_364.jpg	153
363.712	1.011	tomspunt	reaching?	how_hand	no	no	correct	task-tomspunt/H_532.jpg	154
365.029	0.927	tomspunt	reaching?	how_hand	yes	yes	correct	task-tomspunt/H_006.jpg	155
366.263	0.926	tomspunt	reaching?	how_hand	no	no	correct	task-tomspunt/H_438.jpg	156
367.496	0.935	tomspunt	reaching?	how_hand	yes	yes	correct	task-tomspunt/H_007.jpg	157
368.747	0.642	tomspunt	reaching?	how_hand	yes	yes	correct	task-tomspunt/H_474.jpg	158
369.697	0.685	tomspunt	reaching?	how_hand	no	no	correct	task-tomspunt/H_132.jpg	159
374.84	2.101	tomspunt	open mouth?	block_question_presentation	n/a	n/a	n/a	n/a	160
374.84	0.3	tomspunt	open mouth?	block_question_presentation	n/a	n/a	n/a	n/a	161
374.84	0.3	tomspunt	open mouth?	block_question_presentation	n/a	n/a	n/a	n/a	162
374.84	0.3	tomspunt	open mouth?	block_question_presentation	n/a	n/a	n/a	n/a	163
374.84	0.3	tomspunt	open mouth?	block_question_presentation	n/a	n/a	n/a	n/a	164
374.84	0.3	tomspunt	open mouth?	block_question_presentation	n/a	n/a	n/a	n/a	165
374.84	0.3	tomspunt	open mouth?	block_question_presentation	n/a	n/a	n/a	n/a	166
374.84	0.3	tomspunt	open mouth?	block_question_presentation	n/a	n/a	n/a	n/a	167
379.851	0.487	tomspunt	open mouth?	how_face	yes	yes	correct	task-tomspunt/F_403.jpg	160
380.651	0.535	tomspunt	open mouth?	how_face	no	no	correct	task-tomspunt/F_648.jpg	161
381.502	0.568	tomspunt	open mouth?	how_face	yes	yes	correct	task-tomspunt/F_776.jpg	162
382.385	0.553	tomspunt	open mouth?	how_face	no	no	correct	task-tomspunt/F_584.jpg	163
383.252	0.553	tomspunt	open mouth?	how_face	yes	yes	correct	task-tomspunt/F_844.jpg	164
384.119	0.453	tomspunt	open mouth?	how_face	yes	yes	correct	task-tomspunt/F_692.jpg	165
384.886	0.435	tomspunt	open mouth?	how_face	yes	yes	correct	task-tomspunt/F_086.jpg	166
385.636	0.569	tomspunt	open mouth?	how_face	no	no	correct	task-tomspunt/F_544.jpg	167
393.514	2.101	tomspunt	argument?	block_question_presentation	n/a	n/a	n/a	n/a	168
393.514	0.3	tomspunt	argument?	block_question_presentation	n/a	n/a	n/a	n/a	169
393.514	0.3	tomspunt	argument?	block_question_presentation	n/a	n/a	n/a	n/a	170
393.514	0.3	tomspunt	argument?	block_question_presentation	n/a	n/a	n/a	n/a	171
393.514	0.3	tomspunt	argument?	block_question_presentation	n/a	n/a	n/a	n/a	172
393.514	0.3	tomspunt	argument?	block_question_presentation	n/a	n/a	n/a	n/a	173
393.514	0.3	tomspunt	argument?	block_question_presentation	n/a	n/a	n/a	n/a	174
393.514	0.3	tomspunt	argument?	block_question_presentation	n/a	n/a	n/a	n/a	175
398.525	0.535	tomspunt	argument?	why_face	yes	yes	correct	task-tomspunt/F_403.jpg	168
399.375	0.551	tomspunt	argument?	why_face	no	no	correct	task-tomspunt/F_844.jpg	169
400.242	0.485	tomspunt	argument?	why_face	yes	yes	correct	task-tomspunt/F_712.jpg	170
401.042	0.718	tomspunt	argument?	why_face	yes	yes	correct	task-tomspunt/F_758.jpg	171
402.076	0.596	tomspunt	argument?	why_face	no	no	correct	task-tomspunt/F_433.jpg	172
402.976	0.468	tomspunt	argument?	why_face	yes	yes	correct	task-tomspunt/F_716.jpg	173
403.76	0.445	tomspunt	argument?	why_face	yes	no	incorrect	task-tomspunt/F_139.jpg	174
404.51	0.762	tomspunt	argument?	why_face	yes	yes	correct	task-tomspunt/F_743.jpg	175
411.737	2.101	tomspunt	helping?	block_question_presentation	n/a	n/a	n/a	n/a	176
411.737	0.3	tomspunt	helping?	block_question_presentation	n/a	n/a	n/a	n/a	177
411.737	0.3	tomspunt	helping?	block_question_presentation	n/a	n/a	n/a	n/a	178
411.737	0.3	tomspunt	helping?	block_question_presentation	n/a	n/a	n/a	n/a	179
411.737	0.3	tomspunt	helping?	block_question_presentation	n/a	n/a	n/a	n/a	180
411.737	0.3	tomspunt	helping?	block_question_presentation	n/a	n/a	n/a	n/a	181
411.737	0.3	tomspunt	helping?	block_question_presentation	n/a	n/a	n/a	n/a	182
411.737	0.3	tomspunt	helping?	block_question_presentation	n/a	n/a	n/a	n/a	183
416.748	0.724	tomspunt	helping?	why_hand	yes	yes	correct	task-tomspunt/H_024.jpg	176
417.782	0.59	tomspunt	helping?	why_hand	yes	yes	correct	task-tomspunt/H_349.jpg	177
418.682	0.619	tomspunt	helping?	why_hand	yes	yes	correct	task-tomspunt/H_077.jpg	178
419.616	0.556	tomspunt	helping?	why_hand	yes	yes	correct	task-tomspunt/H_474.jpg	179
420.483	0.573	tomspunt	helping?	why_hand	yes	no	incorrect	task-tomspunt/H_091.jpg	180
421.366	0.819	tomspunt	helping?	why_hand	no	no	correct	task-tomspunt/H_159.jpg	181
422.5	0.538	tomspunt	helping?	why_hand	yes	yes	correct	task-tomspunt/H_111.jpg	182
423.351	0.904	tomspunt	helping?	why_hand	no	no	correct	task-tomspunt/H_012.jpg	183
429.811	2.101	tomspunt	both hands?	block_question_presentation	n/a	n/a	n/a	n/a	184
429.811	0.3	tomspunt	both hands?	block_question_presentation	n/a	n/a	n/a	n/a	185
429.811	0.3	tomspunt	both hands?	block_question_presentation	n/a	n/a	n/a	n/a	186
429.811	0.3	tomspunt	both hands?	block_question_presentation	n/a	n/a	n/a	n/a	187
429.811	0.3	tomspunt	both hands?	block_question_presentation	n/a	n/a	n/a	n/a	188
429.811	0.3	tomspunt	both hands?	block_question_presentation	n/a	n/a	n/a	n/a	189
429.811	0.3	tomspunt	both hands?	block_question_presentation	n/a	n/a	n/a	n/a	190
429.811	0.3	tomspunt	both hands?	block_question_presentation	n/a	n/a	n/a	n/a	191
434.821	0.618	tomspunt	both hands?	how_hand	yes	yes	correct	task-tomspunt/H_111.jpg	184
435.755	0.585	tomspunt	both hands?	how_hand	yes	yes	correct	task-tomspunt/H_027.jpg	185
436.655	0.617	tomspunt	both hands?	how_hand	no	no	correct	task-tomspunt/H_091.jpg	186
437.572	0.685	tomspunt	both hands?	how_hand	yes	yes	correct	task-tomspunt/H_167.jpg	187
438.573	0.816	tomspunt	both hands?	how_hand	yes	yes	correct	task-tomspunt/H_581.jpg	188
439.69	0.702	tomspunt	both hands?	how_hand	no	no	correct	task-tomspunt/H_159.jpg	189
440.707	0.569	tomspunt	both hands?	how_hand	yes	yes	correct	task-tomspunt/H_349.jpg	190
441.591	0.701	tomspunt	both hands?	how_hand	no	no	correct	task-tomspunt/H_627.jpg	191
447.334	2.084	tomspunt	healthy?	block_question_presentation	n/a	n/a	n/a	n/a	192
447.334	0.3	tomspunt	healthy?	block_question_presentation	n/a	n/a	n/a	n/a	193
447.334	0.3	tomspunt	healthy?	block_question_presentation	n/a	n/a	n/a	n/a	194
447.334	0.3	tomspunt	healthy?	block_question_presentation	n/a	n/a	n/a	n/a	195
447.334	0.3	tomspunt	healthy?	block_question_presentation	n/a	n/a	n/a	n/a	196
447.334	0.3	tomspunt	healthy?	block_question_presentation	n/a	n/a	n/a	n/a	197
447.334	0.3	tomspunt	healthy?	block_question_presentation	n/a	n/a	n/a	n/a	198
447.334	0.3	tomspunt	healthy?	block_question_presentation	n/a	n/a	n/a	n/a	199
452.328	0.56	tomspunt	healthy?	why_hand	yes	yes	correct	task-tomspunt/H_438.jpg	192
453.195	0.568	tomspunt	healthy?	why_hand	yes	yes	correct	task-tomspunt/H_364.jpg	193
454.079	0.71	tomspunt	healthy?	why_hand	yes	yes	correct	task-tomspunt/H_362.jpg	194
455.096	0.768	tomspunt	healthy?	why_hand	no	no	correct	task-tomspunt/H_019.jpg	195
456.179	0.602	tomspunt	healthy?	why_hand	yes	yes	correct	task-tomspunt/H_167.jpg	196
457.096	0.809	tomspunt	healthy?	why_hand	no	no	correct	task-tomspunt/H_007.jpg	197
458.214	0.552	tomspunt	healthy?	why_hand	yes	yes	correct	task-tomspunt/H_627.jpg	198
459.081	0.992	tomspunt	healthy?	why_hand	no	no	correct	task-tomspunt/H_130.jpg	199
466.374	2.101	tomspunt	pressing button?	block_question_presentation	n/a	n/a	n/a	n/a	200
466.374	0.3	tomspunt	pressing button?	block_question_presentation	n/a	n/a	n/a	n/a	201
466.374	0.3	tomspunt	pressing button?	block_question_presentation	n/a	n/a	n/a	n/a	202
466.374	0.3	tomspunt	pressing button?	block_question_presentation	n/a	n/a	n/a	n/a	203
466.374	0.3	tomspunt	pressing button?	block_question_presentation	n/a	n/a	n/a	n/a	204
466.374	0.3	tomspunt	pressing button?	block_question_presentation	n/a	n/a	n/a	n/a	205
466.374	0.3	tomspunt	pressing button?	block_question_presentation	n/a	n/a	n/a	n/a	206
466.374	0.3	tomspunt	pressing button?	block_question_presentation	n/a	n/a	n/a	n/a	207
471.385	0.57	tomspunt	pressing button?	how_hand	yes	yes	correct	task-tomspunt/H_126.jpg	200
472.269	0.603	tomspunt	pressing button?	how_hand	no	no	correct	task-tomspunt/H_130.jpg	201
473.186	0.503	tomspunt	pressing button?	how_hand	yes	yes	correct	task-tomspunt/H_483.jpg	202
474.003	0.669	tomspunt	pressing button?	how_hand	no	no	correct	task-tomspunt/H_024.jpg	203
474.986	0.536	tomspunt	pressing button?	how_hand	yes	yes	correct	task-tomspunt/H_332.jpg	204
475.837	0.735	tomspunt	pressing button?	how_hand	yes	yes	correct	task-tomspunt/H_019.jpg	205
476.887	0.485	tomspunt	pressing button?	how_hand	no	no	correct	task-tomspunt/H_261.jpg	206
477.687	0.501	tomspunt	pressing button?	how_hand	yes	yes	correct	task-tomspunt/H_502.jpg	207
483.914	2.101	tomspunt	looking at camera?	block_question_presentation	n/a	n/a	n/a	n/a	208
483.914	0.3	tomspunt	looking at camera?	block_question_presentation	n/a	n/a	n/a	n/a	209
483.914	0.3	tomspunt	looking at camera?	block_question_presentation	n/a	n/a	n/a	n/a	210
483.914	0.3	tomspunt	looking at camera?	block_question_presentation	n/a	n/a	n/a	n/a	211
483.914	0.3	tomspunt	looking at camera?	block_question_presentation	n/a	n/a	n/a	n/a	212
483.914	0.3	tomspunt	looking at camera?	block_question_presentation	n/a	n/a	n/a	n/a	213
483.914	0.3	tomspunt	looking at camera?	block_question_presentation	n/a	n/a	n/a	n/a	214
483.914	0.3	tomspunt	looking at camera?	block_question_presentation	n/a	n/a	n/a	n/a	215
488.925	0.435	tomspunt	looking at camera?	how_face	yes	yes	correct	task-tomspunt/F_618.jpg	208
489.675	0.68	tomspunt	looking at camera?	how_face	no	no	correct	task-tomspunt/F_754.jpg	209
490.659	0.602	tomspunt	looking at camera?	how_face	yes	yes	correct	task-tomspunt/F_129.jpg	210
491.576	0.546	tomspunt	looking at camera?	how_face	yes	yes	correct	task-tomspunt/F_598.jpg	211
492.426	0.502	tomspunt	looking at camera?	how_face	yes	yes	correct	task-tomspunt/F_128.jpg	212
493.243	0.585	tomspunt	looking at camera?	how_face	yes	no	incorrect	task-tomspunt/F_582.jpg	213
494.144	0.962	tomspunt	looking at camera?	how_face	yes	yes	correct	task-tomspunt/F_774.jpg	214
495.411	0.595	tomspunt	looking at camera?	how_face	no	no	correct	task-tomspunt/F_743.jpg	215
502.871	2.101	tomspunt	self-doubt?	block_question_presentation	n/a	n/a	n/a	n/a	216
502.871	0.3	tomspunt	self-doubt?	block_question_presentation	n/a	n/a	n/a	n/a	217
502.871	0.3	tomspunt	self-doubt?	block_question_presentation	n/a	n/a	n/a	n/a	218
502.871	0.3	tomspunt	self-doubt?	block_question_presentation	n/a	n/a	n/a	n/a	219
502.871	0.3	tomspunt	self-doubt?	block_question_presentation	n/a	n/a	n/a	n/a	220
502.871	0.3	tomspunt	self-doubt?	block_question_presentation	n/a	n/a	n/a	n/a	221
502.871	0.3	tomspunt	self-doubt?	block_question_presentation	n/a	n/a	n/a	n/a	222
502.871	0.3	tomspunt	self-doubt?	block_question_presentation	n/a	n/a	n/a	n/a	223
507.882	0.757	tomspunt	self-doubt?	why_face	no	yes	incorrect	task-tomspunt/F_798.jpg	216
508.949	0.856	tomspunt	self-doubt?	why_face	no	no	correct	task-tomspunt/F_086.jpg	217
510.116	0.589	tomspunt	self-doubt?	why_face	yes	yes	correct	task-tomspunt/F_544.jpg	218
511.017	0.638	tomspunt	self-doubt?	why_face	yes	yes	correct	task-tomspunt/F_754.jpg	219
511.967	0.621	tomspunt	self-doubt?	why_face	yes	yes	correct	task-tomspunt/F_111.jpg	220
512.901	0.022	tomspunt	self-doubt?	why_face	yes	yes	correct	task-tomspunt/F_584.jpg	221
513.234	0.704	tomspunt	self-doubt?	why_face	no	no	correct	task-tomspunt/F_128.jpg	222
514.251	0.838	tomspunt	self-doubt?	why_face	no	no	correct	task-tomspunt/F_774.jpg	223
520.394	2.101	tomspunt	self-protection?	block_question_presentation	n/a	n/a	n/a	n/a	224
520.394	0.3	tomspunt	self-protection?	block_question_presentation	n/a	n/a	n/a	n/a	225
520.394	0.3	tomspunt	self-protection?	block_question_presentation	n/a	n/a	n/a	n/a	226
520.394	0.3	tomspunt	self-protection?	block_question_presentation	n/a	n/a	n/a	n/a	227
520.394	0.3	tomspunt	self-protection?	block_question_presentation	n/a	n/a	n/a	n/a	228
520.394	0.3	tomspunt	self-protection?	block_question_presentation	n/a	n/a	n/a	n/a	229
520.394	0.3	tomspunt	self-protection?	block_question_presentation	n/a	n/a	n/a	n/a	230
520.394	0.3	tomspunt	self-protection?	block_question_presentation	n/a	n/a	n/a	n/a	231
525.405	0.601	tomspunt	self-protection?	why_hand	yes	yes	correct	task-tomspunt/H_581.jpg	224
526.322	0.502	tomspunt	self-protection?	why_hand	yes	yes	correct	task-tomspunt/H_443.jpg	225
527.139	0.685	tomspunt	self-protection?	why_hand	no	no	correct	task-tomspunt/H_332.jpg	226
528.14	0.569	tomspunt	self-protection?	why_hand	yes	yes	correct	task-tomspunt/H_027.jpg	227
529.023	0.933	tomspunt	self-protection?	why_hand	no	no	correct	task-tomspunt/H_532.jpg	228
530.257	0.702	tomspunt	self-protection?	why_hand	yes	yes	correct	task-tomspunt/H_189.jpg	229
531.274	0.768	tomspunt	self-protection?	why_hand	no	no	correct	task-tomspunt/H_006.jpg	230
532.358	0.664	tomspunt	self-protection?	why_hand	yes	yes	correct	task-tomspunt/H_038.jpg	231
538.618	2.084	tomspunt	lifting?	block_question_presentation	n/a	n/a	n/a	n/a	232
538.618	0.3	tomspunt	lifting?	block_question_presentation	n/a	n/a	n/a	n/a	233
538.618	0.3	tomspunt	lifting?	block_question_presentation	n/a	n/a	n/a	n/a	234
538.618	0.3	tomspunt	lifting?	block_question_presentation	n/a	n/a	n/a	n/a	235
538.618	0.3	tomspunt	lifting?	block_question_presentation	n/a	n/a	n/a	n/a	236
538.618	0.3	tomspunt	lifting?	block_question_presentation	n/a	n/a	n/a	n/a	237
538.618	0.3	tomspunt	lifting?	block_question_presentation	n/a	n/a	n/a	n/a	238
538.618	0.3	tomspunt	lifting?	block_question_presentation	n/a	n/a	n/a	n/a	239
543.629	0.618	tomspunt	lifting?	how_hand	yes	yes	correct	task-tomspunt/H_443.jpg	232
544.562	0.943	tomspunt	lifting?	how_hand	yes	no	incorrect	task-tomspunt/H_038.jpg	233
545.813	0.602	tomspunt	lifting?	how_hand	yes	yes	correct	task-tomspunt/H_136.jpg	234
546.73	0.735	tomspunt	lifting?	how_hand	no	no	correct	task-tomspunt/H_012.jpg	235
547.78	0.875	tomspunt	lifting?	how_hand	yes	yes	correct	task-tomspunt/H_362.jpg	236
548.964	0.792	tomspunt	lifting?	how_hand	yes	yes	correct	task-tomspunt/H_189.jpg	237
550.064	0.874	tomspunt	lifting?	how_hand	no	yes	incorrect	task-tomspunt/H_170.jpg	238
551.248	1.007	tomspunt	lifting?	how_hand	no	no	correct	task-tomspunt/H_077.jpg	239
556.491	2.101	tomspunt	looking to side?	block_question_presentation	n/a	n/a	n/a	n/a	240
556.491	0.3	tomspunt	looking to side?	block_question_presentation	n/a	n/a	n/a	n/a	241
556.491	0.3	tomspunt	looking to side?	block_question_presentation	n/a	n/a	n/a	n/a	242
556.491	0.3	tomspunt	looking to side?	block_question_presentation	n/a	n/a	n/a	n/a	243
556.491	0.3	tomspunt	looking to side?	block_question_presentation	n/a	n/a	n/a	n/a	244
556.491	0.3	tomspunt	looking to side?	block_question_presentation	n/a	n/a	n/a	n/a	245
556.491	0.3	tomspunt	looking to side?	block_question_presentation	n/a	n/a	n/a	n/a	246
556.491	0.3	tomspunt	looking to side?	block_question_presentation	n/a	n/a	n/a	n/a	247
561.502	0.586	tomspunt	looking to side?	how_face	yes	yes	correct	task-tomspunt/F_716.jpg	240
562.402	0.703	tomspunt	looking to side?	how_face	no	no	correct	task-tomspunt/F_798.jpg	241
563.419	0.636	tomspunt	looking to side?	how_face	yes	yes	correct	task-tomspunt/F_760.jpg	242
564.37	0.736	tomspunt	looking to side?	how_face	yes	yes	correct	task-tomspunt/F_110.jpg	243
565.42	0.869	tomspunt	looking to side?	how_face	no	no	correct	task-tomspunt/F_779.jpg	244
566.604	0.752	tomspunt	looking to side?	how_face	yes	yes	correct	task-tomspunt/F_590.jpg	245
567.671	0.785	tomspunt	looking to side?	how_face	no	no	correct	task-tomspunt/F_111.jpg	246
568.771	0.769	tomspunt	looking to side?	how_face	yes	yes	correct	task-tomspunt/F_433.jpg	247
578.966	2.101	tomspunt	proud?	block_question_presentation	n/a	n/a	n/a	n/a	248
578.966	0.3	tomspunt	proud?	block_question_presentation	n/a	n/a	n/a	n/a	249
578.966	0.3	tomspunt	proud?	block_question_presentation	n/a	n/a	n/a	n/a	250
578.966	0.3	tomspunt	proud?	block_question_presentation	n/a	n/a	n/a	n/a	251
578.966	0.3	tomspunt	proud?	block_question_presentation	n/a	n/a	n/a	n/a	252
578.966	0.3	tomspunt	proud?	block_question_presentation	n/a	n/a	n/a	n/a	253
578.966	0.3	tomspunt	proud?	block_question_presentation	n/a	n/a	n/a	n/a	254
578.966	0.3	tomspunt	proud?	block_question_presentation	n/a	n/a	n/a	n/a	255
583.977	0.562	tomspunt	proud?	why_face	yes	yes	correct	task-tomspunt/F_083.jpg	248
584.844	0.612	tomspunt	proud?	why_face	yes	yes	correct	task-tomspunt/F_582.jpg	249
585.761	0.536	tomspunt	proud?	why_face	yes	yes	correct	task-tomspunt/F_618.jpg	250
586.611	0.627	tomspunt	proud?	why_face	no	no	correct	task-tomspunt/F_776.jpg	251
587.545	0.793	tomspunt	proud?	why_face	yes	yes	correct	task-tomspunt/F_598.jpg	252
588.645	0.926	tomspunt	proud?	why_face	no	no	correct	task-tomspunt/F_760.jpg	253
589.879	0.609	tomspunt	proud?	why_face	no	no	correct	task-tomspunt/F_412.jpg	254
590.796	0.652	tomspunt	proud?	why_face	yes	yes	correct	task-tomspunt/F_695.jpg	255
