onset	duration	run_type	trial_type	trial_index	cue	stimulusintensity	rating_value	rating_glmslabel	rating_value_fillna	rating_glmslabel_fillna	rating_mouseonset	rating_mousedur	stim_file	pain_onset_ttl1	pain_onset_ttl2	pain_onset_ttl3	pain_onset_ttl4	pain_stimulus_delivery_success	cognitive_correct_response	cognitive_participant_response	cognitive_response_accuracy
4.99	1.0	pain	cue	1	low_cue	n/a	n/a	n/a	n/a	n/a	n/a	n/a	task-social/cue/runtype-pain/scl/l044.png	n/a	n/a	n/a	n/a	n/a	n/a	n/a	n/a
7.61	1.55	pain	expectrating	1	low_cue	n/a	20.94	Moderate	20.94	Moderate	0.08	1.47	task-social/cue/runtype-pain/scl/l044.png	n/a	n/a	n/a	n/a	n/a	n/a	n/a	n/a
16.83	12.82	pain	stimulus	1	low_cue	high_stim	n/a	n/a	n/a	n/a	n/a	n/a	n/a	16.83	20.84	25.84	29.65	success	n/a	n/a	n/a
28.8	2.51	pain	outcomerating	1	low_cue	high_stim	24.61	Moderate	24.61	Moderate	0.08	1.47	task-social/outcomerating/task-pain_scale.png	n/a	n/a	n/a	n/a	success	n/a	n/a	n/a
37.4	1.0	pain	cue	2	high_cue	n/a	n/a	n/a	n/a	n/a	n/a	n/a	task-social/cue/runtype-pain/sch/h047.png	n/a	n/a	n/a	n/a	n/a	n/a	n/a	n/a
39.7	1.72	pain	expectrating	2	high_cue	n/a	43.53	Strong	43.53	Strong	0.48	1.24	task-social/cue/runtype-pain/sch/h047.png	n/a	n/a	n/a	n/a	n/a	n/a	n/a	n/a
50.03	12.36	pain	stimulus	2	high_cue	med_stim	n/a	n/a	n/a	n/a	n/a	n/a	n/a	50.03	53.79	58.79	62.4	success	n/a	n/a	n/a
65.5	2.55	pain	outcomerating	2	high_cue	med_stim	29.66	Strong	29.66	Strong	0.48	1.24	task-social/outcomerating/task-pain_scale.png	n/a	n/a	n/a	n/a	success	n/a	n/a	n/a
70.7	1.0	pain	cue	3	low_cue	n/a	n/a	n/a	n/a	n/a	n/a	n/a	task-social/cue/runtype-pain/scl/l055.png	n/a	n/a	n/a	n/a	n/a	n/a	n/a	n/a
73.0	1.62	pain	expectrating	3	low_cue	n/a	29.86	Strong	29.86	Strong	0.32	1.31	task-social/cue/runtype-pain/scl/l055.png	n/a	n/a	n/a	n/a	n/a	n/a	n/a	n/a
77.93	11.899999999999991	pain	stimulus	3	low_cue	low_stim	n/a	n/a	n/a	n/a	n/a	n/a	n/a	77.93	81.43	86.43	89.83	success	n/a	n/a	n/a
88.31	1.67	pain	outcomerating	3	low_cue	low_stim	30.57	Strong	30.57	Strong	0.32	1.31	task-social/outcomerating/task-pain_scale.png	n/a	n/a	n/a	n/a	success	n/a	n/a	n/a
100.19	1.0	pain	cue	4	high_cue	n/a	n/a	n/a	n/a	n/a	n/a	n/a	task-social/cue/runtype-pain/sch/h033.png	n/a	n/a	n/a	n/a	n/a	n/a	n/a	n/a
102.8	1.75	pain	expectrating	4	high_cue	n/a	45.16	Strong	45.16	Strong	0.43	1.32	task-social/cue/runtype-pain/sch/h033.png	n/a	n/a	n/a	n/a	n/a	n/a	n/a	n/a
108.24	11.900000000000006	pain	stimulus	4	high_cue	low_stim	n/a	n/a	n/a	n/a	n/a	n/a	n/a	108.24	111.74	116.74	120.14	success	n/a	n/a	n/a
123.7	2.27	pain	outcomerating	4	high_cue	low_stim	32.03	Strong	32.03	Strong	0.43	1.32	task-social/outcomerating/task-pain_scale.png	n/a	n/a	n/a	n/a	success	n/a	n/a	n/a
132.61	0.98	pain	cue	5	low_cue	n/a	n/a	n/a	n/a	n/a	n/a	n/a	task-social/cue/runtype-pain/scl/l043.png	n/a	n/a	n/a	n/a	n/a	n/a	n/a	n/a
135.21	1.4	pain	expectrating	5	low_cue	n/a	18.73	Moderate	18.73	Moderate	0.15	1.25	task-social/cue/runtype-pain/scl/l043.png	n/a	n/a	n/a	n/a	n/a	n/a	n/a	n/a
145.55	12.369999999999976	pain	stimulus	5	low_cue	med_stim	n/a	n/a	n/a	n/a	n/a	n/a	n/a	145.55	149.31	154.31	157.92	success	n/a	n/a	n/a
156.4	2.11	pain	outcomerating	5	low_cue	med_stim	30.37	Strong	30.37	Strong	0.15	1.25	task-social/outcomerating/task-pain_scale.png	n/a	n/a	n/a	n/a	success	n/a	n/a	n/a
165.3	1.0	pain	cue	6	high_cue	n/a	n/a	n/a	n/a	n/a	n/a	n/a	task-social/cue/runtype-pain/sch/h053.png	n/a	n/a	n/a	n/a	n/a	n/a	n/a	n/a
167.6	1.59	pain	expectrating	6	high_cue	n/a	39.13	Strong	39.13	Strong	0.17	1.42	task-social/cue/runtype-pain/sch/h053.png	n/a	n/a	n/a	n/a	n/a	n/a	n/a	n/a
177.83	12.819999999999993	pain	stimulus	6	high_cue	high_stim	n/a	n/a	n/a	n/a	n/a	n/a	n/a	177.83	181.84	186.84	190.65	success	n/a	n/a	n/a
190.59	1.48	pain	outcomerating	6	high_cue	high_stim	43.05	Strong	43.05	Strong	0.17	1.42	task-social/outcomerating/task-pain_scale.png	n/a	n/a	n/a	n/a	success	n/a	n/a	n/a
199.4	1.0	pain	cue	7	low_cue	n/a	n/a	n/a	n/a	n/a	n/a	n/a	task-social/cue/runtype-pain/scl/l015.png	n/a	n/a	n/a	n/a	n/a	n/a	n/a	n/a
201.8	2.06	pain	expectrating	7	low_cue	n/a	30.88	Strong	30.88	Strong	0.55	1.51	task-social/cue/runtype-pain/scl/l015.png	n/a	n/a	n/a	n/a	n/a	n/a	n/a	n/a
212.11	11.909999999999997	pain	stimulus	7	low_cue	low_stim	n/a	n/a	n/a	n/a	n/a	n/a	n/a	212.11	215.61	220.61	224.01	success	n/a	n/a	n/a
231.01	2.55	pain	outcomerating	7	low_cue	low_stim	18.43	Moderate	18.43	Moderate	0.55	1.51	task-social/outcomerating/task-pain_scale.png	n/a	n/a	n/a	n/a	success	n/a	n/a	n/a
236.4	1.0	pain	cue	8	low_cue	n/a	n/a	n/a	n/a	n/a	n/a	n/a	task-social/cue/runtype-pain/scl/l053.png	n/a	n/a	n/a	n/a	n/a	n/a	n/a	n/a
239.1	1.72	pain	expectrating	8	low_cue	n/a	41.52	Strong	41.52	Strong	0.6	1.12	task-social/cue/runtype-pain/scl/l053.png	n/a	n/a	n/a	n/a	n/a	n/a	n/a	n/a
245.41	12.820000000000022	pain	stimulus	8	low_cue	high_stim	n/a	n/a	n/a	n/a	n/a	n/a	n/a	245.41	249.42	254.42	258.23	success	n/a	n/a	n/a
261.2	2.22	pain	outcomerating	8	low_cue	high_stim	34.9	Strong	34.9	Strong	0.6	1.12	task-social/outcomerating/task-pain_scale.png	n/a	n/a	n/a	n/a	success	n/a	n/a	n/a
266.51	0.98	pain	cue	9	high_cue	n/a	n/a	n/a	n/a	n/a	n/a	n/a	task-social/cue/runtype-pain/sch/h015.png	n/a	n/a	n/a	n/a	n/a	n/a	n/a	n/a
269.71	2.03	pain	expectrating	9	high_cue	n/a	35.46	Strong	35.46	Strong	0.48	1.55	task-social/cue/runtype-pain/sch/h015.png	n/a	n/a	n/a	n/a	n/a	n/a	n/a	n/a
278.24	12.819999999999993	pain	stimulus	9	high_cue	high_stim	n/a	n/a	n/a	n/a	n/a	n/a	n/a	278.24	282.25	287.25	291.06	success	n/a	n/a	n/a
290.7	3.18	pain	outcomerating	9	high_cue	high_stim	29.66	Strong	29.66	Strong	0.48	1.55	task-social/outcomerating/task-pain_scale.png	n/a	n/a	n/a	n/a	success	n/a	n/a	n/a
304.5	1.0	pain	cue	10	high_cue	n/a	n/a	n/a	n/a	n/a	n/a	n/a	task-social/cue/runtype-pain/sch/h027.png	n/a	n/a	n/a	n/a	n/a	n/a	n/a	n/a
307.4	2.1	pain	expectrating	10	high_cue	n/a	33.56	Strong	33.56	Strong	0.32	1.79	task-social/cue/runtype-pain/sch/h027.png	n/a	n/a	n/a	n/a	n/a	n/a	n/a	n/a
317.62	12.360000000000014	pain	stimulus	10	high_cue	med_stim	n/a	n/a	n/a	n/a	n/a	n/a	n/a	317.62	321.38	326.38	329.99	success	n/a	n/a	n/a
329.7	1.72	pain	outcomerating	10	high_cue	med_stim	34.71	Strong	34.71	Strong	0.32	1.79	task-social/outcomerating/task-pain_scale.png	n/a	n/a	n/a	n/a	success	n/a	n/a	n/a
335.9	1.0	pain	cue	11	high_cue	n/a	n/a	n/a	n/a	n/a	n/a	n/a	task-social/cue/runtype-pain/sch/h010.png	n/a	n/a	n/a	n/a	n/a	n/a	n/a	n/a
338.3	2.03	pain	expectrating	11	high_cue	n/a	31.2	Strong	31.2	Strong	0.1	1.93	task-social/cue/runtype-pain/sch/h010.png	n/a	n/a	n/a	n/a	n/a	n/a	n/a	n/a
344.62	11.899999999999977	pain	stimulus	11	high_cue	low_stim	n/a	n/a	n/a	n/a	n/a	n/a	n/a	344.62	348.12	353.12	356.52	success	n/a	n/a	n/a
358.31	3.1	pain	outcomerating	11	high_cue	low_stim	26.88	Moderate	26.88	Moderate	0.1	1.93	task-social/outcomerating/task-pain_scale.png	n/a	n/a	n/a	n/a	success	n/a	n/a	n/a
371.2	1.0	pain	cue	12	low_cue	n/a	n/a	n/a	n/a	n/a	n/a	n/a	task-social/cue/runtype-pain/scl/l021.png	n/a	n/a	n/a	n/a	n/a	n/a	n/a	n/a
373.1	1.13	pain	expectrating	12	low_cue	n/a	28.13	Moderate	28.13	Moderate	0.13	1.0	task-social/cue/runtype-pain/scl/l021.png	n/a	n/a	n/a	n/a	n/a	n/a	n/a	n/a
383.23	12.370000000000005	pain	stimulus	12	low_cue	med_stim	n/a	n/a	n/a	n/a	n/a	n/a	n/a	383.23	386.99	391.99	395.6	success	n/a	n/a	n/a
394.9	2.69	pain	outcomerating	12	low_cue	med_stim	28.99	Moderate	28.99	Moderate	0.13	1.0	task-social/outcomerating/task-pain_scale.png	n/a	n/a	n/a	n/a	success	n/a	n/a	n/a
