onset	duration	subtask_type	question	event_type	participant_response	normative_response	response_accuracy	stim_file
5.027850151062012	1.2113800048828125	tomspunt	reaching?	how_hand	yes	yes	correct	task-tomspunt/H_007.jpg
6.545079946517944	1.1697001457214355	tomspunt	reaching?	how_hand	no	no	correct	task-tomspunt/H_532.jpg
8.028970003128052	1.019430160522461	tomspunt	reaching?	how_hand	yes	yes	correct	task-tomspunt/H_474.jpg
9.362800121307371	1.0930399894714355	tomspunt	reaching?	how_hand	no	no	correct	task-tomspunt/H_438.jpg
10.763319969177246	0.859490156173706	tomspunt	reaching?	how_hand	yes	yes	correct	task-tomspunt/H_364.jpg
11.93042016029358	0.85794997215271	tomspunt	reaching?	how_hand	yes	yes	correct	task-tomspunt/H_006.jpg
13.097530126571655	0.9077799320220948	tomspunt	reaching?	how_hand	yes	yes	correct	task-tomspunt/H_003.jpg
14.314650058746338	0.9410500526428224	tomspunt	reaching?	how_hand	no	no	correct	task-tomspunt/H_132.jpg
22.551049947738647	1.1375000476837158	tomspunt	healthy?	why_hand	yes	yes	correct	task-tomspunt/H_627.jpg
24.00159001350403	1.620039939880371	tomspunt	healthy?	why_hand	yes	yes	correct	task-tomspunt/H_438.jpg
25.93565011024475	0.7864398956298828	tomspunt	healthy?	why_hand	yes	yes	correct	task-tomspunt/H_364.jpg
27.036060094833378	1.2860798835754397	tomspunt	healthy?	why_hand	no	no	correct	task-tomspunt/H_130.jpg
28.63665008544922	0.8516199588775635	tomspunt	healthy?	why_hand	yes	yes	correct	task-tomspunt/H_362.jpg
29.803760051727295	1.1015501022338867	tomspunt	healthy?	why_hand	no	no	correct	task-tomspunt/H_007.jpg
31.22095012664795	0.7680699825286865	tomspunt	healthy?	why_hand	yes	yes	correct	task-tomspunt/H_167.jpg
32.288010120391846	1.1853599548339844	tomspunt	healthy?	why_hand	no	no	correct	task-tomspunt/H_019.jpg
41.65817999839783	0.8020501136779785	tomspunt	admiring?	why_face	yes	yes	correct	task-tomspunt/F_779.jpg
42.77525997161865	1.446420192718506	tomspunt	admiring?	why_face	yes	yes	correct	task-tomspunt/F_593.jpg
44.52591013908386	0.8353598117828369	tomspunt	admiring?	why_face	no	no	correct	task-tomspunt/F_110.jpg
45.676340103149414	0.6958999633789062	tomspunt	admiring?	why_face	yes	yes	correct	task-tomspunt/F_590.jpg
46.67671012878418	1.2355799674987793	tomspunt	admiring?	why_face	no	no	correct	task-tomspunt/F_692.jpg
48.22729015350342	0.6616299152374268	tomspunt	admiring?	why_face	yes	yes	correct	task-tomspunt/F_759.jpg
49.1943199634552	0.7685999870300293	tomspunt	admiring?	why_face	yes	yes	correct	task-tomspunt/F_648.jpg
50.27805995941162	0.9018599987030028	tomspunt	admiring?	why_face	no	no	correct	task-tomspunt/F_129.jpg
60.63192009925842	0.5401999950408936	tomspunt	smiling?	how_face	yes	yes	correct	task-tomspunt/F_139.jpg
61.482239961624146	0.872730016708374	tomspunt	smiling?	how_face	no	no	correct	task-tomspunt/F_712.jpg
62.66601014137268	0.705590009689331	tomspunt	smiling?	how_face	yes	yes	correct	task-tomspunt/F_695.jpg
63.68305993080139	0.8052101135253906	tomspunt	smiling?	how_face	no	no	correct	task-tomspunt/F_758.jpg
64.8001401424408	0.5385899543762207	tomspunt	smiling?	how_face	yes	yes	correct	task-tomspunt/F_083.jpg
65.65046000480652	0.5716099739074707	tomspunt	smiling?	how_face	yes	yes	correct	task-tomspunt/F_759.jpg
66.53412008285522	0.7211699485778809	tomspunt	smiling?	how_face	no	no	correct	task-tomspunt/F_412.jpg
67.56784009933472	0.7208399772644043	tomspunt	smiling?	how_face	yes	yes	correct	task-tomspunt/F_593.jpg
78.15512013435364	1.0348098278045654	tomspunt	lifting?	how_hand	yes	yes	correct	task-tomspunt/H_136.jpg
79.50562000274658	1.318230152130127	tomspunt	lifting?	how_hand	no	no	correct	task-tomspunt/H_038.jpg
81.13956999778748	1.415369987487793	tomspunt	lifting?	how_hand	yes	yes	correct	task-tomspunt/H_189.jpg
82.85686993598938	1.0985300540924072	tomspunt	lifting?	how_hand	no	no	correct	task-tomspunt/H_077.jpg
84.25740003585815	0.8186900615692139	tomspunt	lifting?	how_hand	yes	yes	correct	task-tomspunt/H_443.jpg
85.39114999771118	1.0348899364471436	tomspunt	lifting?	how_hand	no	no	correct	task-tomspunt/H_012.jpg
86.74166011810303	0.634619951248169	tomspunt	lifting?	how_hand	yes	yes	correct	task-tomspunt/H_362.jpg
87.69201016426086	1.3795697689056396	tomspunt	lifting?	how_hand	no	yes	incorrect	task-tomspunt/H_170.jpg
100.63017010688782	1.4252400398254397	tomspunt	helping?	why_hand	yes	yes	correct	task-tomspunt/H_077.jpg
102.36415004730225	1.0685100555419922	tomspunt	helping?	why_hand	yes	yes	correct	task-tomspunt/H_349.jpg
103.7480001449585	1.0077497959136963	tomspunt	helping?	why_hand	yes	yes	correct	task-tomspunt/H_474.jpg
105.06516003608704	1.1852600574493408	tomspunt	helping?	why_hand	yes	yes	correct	task-tomspunt/H_024.jpg
106.56571006774902	1.2229399681091309	tomspunt	helping?	why_hand	no	no	correct	task-tomspunt/H_012.jpg
108.09962010383606	1.2553000450134275	tomspunt	helping?	why_hand	no	no	correct	task-tomspunt/H_159.jpg
109.6668701171875	0.904789924621582	tomspunt	helping?	why_hand	yes	yes	correct	task-tomspunt/H_111.jpg
110.88399004936218	1.0543100833892822	tomspunt	helping?	why_hand	no	no	correct	task-tomspunt/H_091.jpg
118.5034999847412	1.252120018005371	tomspunt	proud?	why_face	yes	yes	correct	task-tomspunt/F_598.jpg
120.07074999809264	1.6848900318145752	tomspunt	proud?	why_face	no	no	correct	task-tomspunt/F_760.jpg
122.0715000629425	1.051919937133789	tomspunt	proud?	why_face	yes	yes	correct	task-tomspunt/F_582.jpg
123.43867015838624	0.9514398574829102	tomspunt	proud?	why_face	no	no	correct	task-tomspunt/F_412.jpg
124.70581007003784	0.7678699493408203	tomspunt	proud?	why_face	yes	yes	correct	task-tomspunt/F_083.jpg
125.78955006599426	n/a	tomspunt	proud?	why_face	n/a	no	incorrect	task-tomspunt/F_776.jpg
127.82364010810852	0.0180499553680419	tomspunt	proud?	why_face	no	yes	incorrect	task-tomspunt/F_618.jpg
128.1570999622345	1.5522902011871338	tomspunt	proud?	why_face	yes	yes	correct	task-tomspunt/F_695.jpg
136.04337000846863	1.0021100044250488	tomspunt	looking to side?	how_face	yes	yes	correct	task-tomspunt/F_590.jpg
137.36053013801575	1.0778398513793943	tomspunt	looking to side?	how_face	yes	yes	correct	task-tomspunt/F_433.jpg
138.74437999725342	0.818040132522583	tomspunt	looking to side?	how_face	yes	yes	correct	task-tomspunt/F_716.jpg
139.87813997268677	1.0609700679779053	tomspunt	looking to side?	how_face	no	no	correct	task-tomspunt/F_779.jpg
141.2453100681305	0.9263100624084472	tomspunt	looking to side?	how_face	yes	yes	correct	task-tomspunt/F_760.jpg
142.4791100025177	0.9425599575042723	tomspunt	looking to side?	how_face	no	no	correct	task-tomspunt/F_111.jpg
143.72957015037537	1.0425498485565186	tomspunt	looking to side?	how_face	no	yes	incorrect	task-tomspunt/F_110.jpg
145.08008003234863	0.9353599548339844	tomspunt	looking to side?	how_face	no	no	correct	task-tomspunt/F_798.jpg
155.1505000591278	1.071079969406128	tomspunt	argument?	why_face	yes	yes	correct	task-tomspunt/F_716.jpg
156.53435015678406	0.7038698196411133	tomspunt	argument?	why_face	no	no	correct	task-tomspunt/F_139.jpg
157.55139994621277	0.6545100212097168	tomspunt	argument?	why_face	yes	yes	correct	task-tomspunt/F_712.jpg
158.5184199810028	0.8536901473999023	tomspunt	argument?	why_face	no	no	correct	task-tomspunt/F_433.jpg
159.68551993370056	0.6531600952148438	tomspunt	argument?	why_face	yes	yes	correct	task-tomspunt/F_403.jpg
160.65254998207092	0.7523300647735596	tomspunt	argument?	why_face	no	no	correct	task-tomspunt/F_844.jpg
161.71961998939514	0.8020000457763672	tomspunt	argument?	why_face	yes	yes	correct	task-tomspunt/F_743.jpg
162.83669996261597	0.8514699935913086	tomspunt	argument?	why_face	yes	yes	correct	task-tomspunt/F_758.jpg
172.9904899597168	0.6683499813079834	tomspunt	open mouth?	how_face	yes	yes	correct	task-tomspunt/F_844.jpg
173.97418999671936	0.6182899475097656	tomspunt	open mouth?	how_face	yes	yes	correct	task-tomspunt/F_776.jpg
174.907870054245	0.7809898853302002	tomspunt	open mouth?	how_face	no	no	correct	task-tomspunt/F_544.jpg
175.99161005020142	0.5351901054382324	tomspunt	open mouth?	how_face	yes	yes	correct	task-tomspunt/F_692.jpg
176.8419201374054	0.6347699165344238	tomspunt	open mouth?	how_face	no	no	correct	task-tomspunt/F_584.jpg
177.79227995872498	0.4799799919128418	tomspunt	open mouth?	how_face	yes	yes	correct	task-tomspunt/F_403.jpg
178.57590007781982	0.5796899795532227	tomspunt	open mouth?	how_face	yes	yes	correct	task-tomspunt/F_086.jpg
179.45956993103027	0.6795401573181152	tomspunt	open mouth?	how_face	no	no	correct	task-tomspunt/F_648.jpg
190.88049006462097	0.5588099956512451	tomspunt	pressing button?	how_hand	yes	yes	correct	task-tomspunt/H_019.jpg
191.74748015403748	0.9078798294067384	tomspunt	pressing button?	how_hand	no	no	correct	task-tomspunt/H_024.jpg
192.96460008621216	0.9015300273895264	tomspunt	pressing button?	how_hand	no	no	correct	task-tomspunt/H_130.jpg
194.18172001838684	0.540369987487793	tomspunt	pressing button?	how_hand	yes	yes	correct	task-tomspunt/H_502.jpg
195.0320401191711	0.7733199596405029	tomspunt	pressing button?	how_hand	no	no	correct	task-tomspunt/H_261.jpg
196.11578011512756	0.6230700016021729	tomspunt	pressing button?	how_hand	yes	yes	correct	task-tomspunt/H_332.jpg
197.04945993423465	0.5889101028442383	tomspunt	pressing button?	how_hand	yes	yes	correct	task-tomspunt/H_126.jpg
197.94979000091553	0.6723999977111816	tomspunt	pressing button?	how_hand	yes	yes	correct	task-tomspunt/H_483.jpg
208.67045998573303	0.4345901012420654	tomspunt	competing?	why_hand	yes	yes	correct	task-tomspunt/H_261.jpg
209.42074012756348	0.8513100147247314	tomspunt	competing?	why_hand	no	no	correct	task-tomspunt/H_483.jpg
210.58784008026123	0.651939868927002	tomspunt	competing?	why_hand	yes	yes	correct	task-tomspunt/H_132.jpg
211.5548701286316	1.0669398307800293	tomspunt	competing?	why_hand	no	no	correct	task-tomspunt/H_126.jpg
212.9220399856567	0.7185800075531006	tomspunt	competing?	why_hand	yes	yes	correct	task-tomspunt/H_136.jpg
213.95576000213623	0.8846700191497803	tomspunt	competing?	why_hand	no	no	correct	task-tomspunt/H_502.jpg
215.1562099456787	0.5513100624084473	tomspunt	competing?	why_hand	yes	yes	correct	task-tomspunt/H_003.jpg
216.0232000350952	0.5678999423980713	tomspunt	competing?	why_hand	yes	yes	correct	task-tomspunt/H_170.jpg
226.74387001991272	0.945159912109375	tomspunt	self-doubt?	why_face	yes	yes	correct	task-tomspunt/F_544.jpg
227.9943301677704	1.4109699726104736	tomspunt	self-doubt?	why_face	no	no	correct	task-tomspunt/F_086.jpg
229.7116401195526	0.6012599468231201	tomspunt	self-doubt?	why_face	yes	yes	correct	task-tomspunt/F_798.jpg
230.62864995002747	0.593440055847168	tomspunt	self-doubt?	why_face	yes	yes	correct	task-tomspunt/F_111.jpg
231.52898001670837	0.6183199882507324	tomspunt	self-doubt?	why_face	no	no	correct	task-tomspunt/F_774.jpg
232.462660074234	0.6098699569702148	tomspunt	self-doubt?	why_face	yes	yes	correct	task-tomspunt/F_754.jpg
233.37967014312744	0.8352599143981934	tomspunt	self-doubt?	why_face	no	no	correct	task-tomspunt/F_128.jpg
234.530100107193	0.718329906463623	tomspunt	self-doubt?	why_face	yes	yes	correct	task-tomspunt/F_584.jpg
245.80097007751465	0.6714000701904297	tomspunt	looking at camera?	how_face	yes	yes	correct	task-tomspunt/F_128.jpg
246.7846701145172	0.5516598224639893	tomspunt	looking at camera?	how_face	yes	yes	correct	task-tomspunt/F_618.jpg
247.6516599655151	0.5704901218414307	tomspunt	looking at camera?	how_face	yes	yes	correct	task-tomspunt/F_598.jpg
248.53533005714417	0.9529500007629396	tomspunt	looking at camera?	how_face	no	no	correct	task-tomspunt/F_743.jpg
249.80245995521545	0.5857501029968262	tomspunt	looking at camera?	how_face	yes	yes	correct	task-tomspunt/F_774.jpg
250.70280003547668	0.8688199520111084	tomspunt	looking at camera?	how_face	yes	no	incorrect	task-tomspunt/F_582.jpg
251.88656997680664	0.8351199626922607	tomspunt	looking at camera?	how_face	no	no	correct	task-tomspunt/F_754.jpg
253.0369999408722	0.5354502201080322	tomspunt	looking at camera?	how_face	yes	yes	correct	task-tomspunt/F_129.jpg
264.5746400356293	0.868109941482544	tomspunt	both hands?	how_hand	yes	yes	correct	task-tomspunt/H_167.jpg
265.75840997695923	0.7186801433563232	tomspunt	both hands?	how_hand	no	no	correct	task-tomspunt/H_091.jpg
266.7921299934387	1.0852000713348389	tomspunt	both hands?	how_hand	no	no	correct	task-tomspunt/H_627.jpg
268.1926600933075	0.9793698787689208	tomspunt	both hands?	how_hand	yes	yes	correct	task-tomspunt/H_027.jpg
269.4764699935913	0.8019001483917236	tomspunt	both hands?	how_hand	yes	yes	correct	task-tomspunt/H_111.jpg
270.59354996681213	0.7846400737762451	tomspunt	both hands?	how_hand	no	no	correct	task-tomspunt/H_159.jpg
271.69395995140076	0.8278601169586182	tomspunt	both hands?	how_hand	yes	yes	correct	task-tomspunt/H_581.jpg
272.8277201652527	0.7777798175811768	tomspunt	both hands?	how_hand	yes	yes	correct	task-tomspunt/H_349.jpg
283.3649799823761	0.8573400974273682	tomspunt	self-protection?	why_hand	yes	yes	correct	task-tomspunt/H_443.jpg
284.53207993507385	0.9733901023864746	tomspunt	self-protection?	why_hand	no	no	correct	task-tomspunt/H_006.jpg
285.81589007377625	0.6854100227355957	tomspunt	self-protection?	why_hand	yes	yes	correct	task-tomspunt/H_581.jpg
286.81627011299133	1.172029972076416	tomspunt	self-protection?	why_hand	no	no	correct	task-tomspunt/H_532.jpg
288.3001501560211	1.1388700008392334	tomspunt	self-protection?	why_hand	yes	yes	correct	task-tomspunt/H_027.jpg
289.75069999694824	0.8882100582122803	tomspunt	self-protection?	why_hand	yes	yes	correct	task-tomspunt/H_038.jpg
290.951140165329	0.9185299873352052	tomspunt	self-protection?	why_hand	no	no	correct	task-tomspunt/H_332.jpg
292.1849400997162	0.6533398628234863	tomspunt	self-protection?	why_hand	yes	yes	correct	task-tomspunt/H_189.jpg
304.8563301563263	0.7016799449920654	tomspunt	smiling?	how_face	yes	yes	correct	task-tomspunt/F_759.jpg
305.8733699321747	0.5519800186157227	tomspunt	smiling?	how_face	no	no	correct	task-tomspunt/F_412.jpg
306.7403600215912	0.7013001441955566	tomspunt	smiling?	how_face	yes	yes	correct	task-tomspunt/F_593.jpg
307.7574100494385	0.7180399894714355	tomspunt	smiling?	how_face	no	no	correct	task-tomspunt/F_712.jpg
308.79113006591797	0.630699872970581	tomspunt	smiling?	how_face	yes	yes	correct	task-tomspunt/F_695.jpg
309.7248101234436	0.685269832611084	tomspunt	smiling?	how_face	yes	yes	correct	task-tomspunt/F_139.jpg
310.72518014907837	0.65205979347229	tomspunt	smiling?	how_face	yes	yes	correct	task-tomspunt/F_083.jpg
311.69220995903015	0.8688101768493652	tomspunt	smiling?	how_face	no	no	correct	task-tomspunt/F_758.jpg
322.64630007743835	0.5011899471282959	tomspunt	admiring?	why_face	yes	yes	correct	task-tomspunt/F_593.jpg
323.46326994895935	0.7916901111602783	tomspunt	admiring?	why_face	no	no	correct	task-tomspunt/F_129.jpg
324.563679933548	0.5685100555419922	tomspunt	admiring?	why_face	yes	yes	correct	task-tomspunt/F_759.jpg
325.4473400115967	0.9576201438903807	tomspunt	admiring?	why_face	yes	no	incorrect	task-tomspunt/F_692.jpg
326.71448016166687	0.7185897827148438	tomspunt	admiring?	why_face	yes	yes	correct	task-tomspunt/F_779.jpg
327.7481999397278	0.7569200992584229	tomspunt	admiring?	why_face	yes	yes	correct	task-tomspunt/F_590.jpg
328.8152599334717	0.7401700019836426	tomspunt	admiring?	why_face	yes	yes	correct	task-tomspunt/F_648.jpg
329.8656499385834	0.7226800918579102	tomspunt	admiring?	why_face	no	no	correct	task-tomspunt/F_110.jpg
340.53629994392395	0.5353600978851318	tomspunt	competing?	why_hand	yes	yes	correct	task-tomspunt/H_261.jpg
341.38662004470825	0.4849998950958252	tomspunt	competing?	why_hand	yes	yes	correct	task-tomspunt/H_170.jpg
342.1869201660156	0.7352898120880127	tomspunt	competing?	why_hand	no	no	correct	task-tomspunt/H_483.jpg
343.23730993270874	0.4345500469207763	tomspunt	competing?	why_hand	yes	yes	correct	task-tomspunt/H_132.jpg
343.9875900745392	0.6012299060821533	tomspunt	competing?	why_hand	yes	yes	correct	task-tomspunt/H_136.jpg
344.9046001434326	0.5679399967193604	tomspunt	competing?	why_hand	yes	yes	correct	task-tomspunt/H_003.jpg
345.78825998306274	0.5847201347351074	tomspunt	competing?	why_hand	no	no	correct	task-tomspunt/H_126.jpg
346.688600063324	0.8186600208282471	tomspunt	competing?	why_hand	no	no	correct	task-tomspunt/H_502.jpg
362.01098012924194	0.5352199077606201	tomspunt	reaching?	how_hand	yes	yes	correct	task-tomspunt/H_003.jpg
362.86128997802734	0.5443801879882812	tomspunt	reaching?	how_hand	yes	yes	correct	task-tomspunt/H_364.jpg
363.7116100788117	1.0108699798583984	tomspunt	reaching?	how_hand	no	no	correct	task-tomspunt/H_532.jpg
365.0287699699402	0.926650047302246	tomspunt	reaching?	how_hand	yes	yes	correct	task-tomspunt/H_006.jpg
366.2625601291657	0.9258699417114258	tomspunt	reaching?	how_hand	no	no	correct	task-tomspunt/H_438.jpg
367.49636006355286	0.9348099231719972	tomspunt	reaching?	how_hand	yes	yes	correct	task-tomspunt/H_007.jpg
368.74681997299194	0.6419501304626465	tomspunt	reaching?	how_hand	yes	yes	correct	task-tomspunt/H_474.jpg
369.6971700191498	0.6853201389312744	tomspunt	reaching?	how_hand	no	no	correct	task-tomspunt/H_132.jpg
379.8509600162506	0.4874999523162842	tomspunt	open mouth?	how_face	yes	yes	correct	task-tomspunt/F_403.jpg
380.651260137558	0.5350899696350098	tomspunt	open mouth?	how_face	no	no	correct	task-tomspunt/F_648.jpg
381.5015799999237	0.568350076675415	tomspunt	open mouth?	how_face	yes	yes	correct	task-tomspunt/F_776.jpg
382.3852400779724	0.5529398918151855	tomspunt	open mouth?	how_face	no	no	correct	task-tomspunt/F_584.jpg
383.2522301673889	0.5527098178863525	tomspunt	open mouth?	how_face	yes	yes	correct	task-tomspunt/F_844.jpg
384.1192200183869	0.4525301456451416	tomspunt	open mouth?	how_face	yes	yes	correct	task-tomspunt/F_692.jpg
384.8861701488495	0.4354898929595947	tomspunt	open mouth?	how_face	yes	yes	correct	task-tomspunt/F_086.jpg
385.63645005226135	0.5685100555419922	tomspunt	open mouth?	how_face	no	no	correct	task-tomspunt/F_544.jpg
398.5245900154114	0.5346500873565674	tomspunt	argument?	why_face	yes	yes	correct	task-tomspunt/F_403.jpg
399.3749101161957	0.5512700080871582	tomspunt	argument?	why_face	no	no	correct	task-tomspunt/F_844.jpg
400.2418999671936	0.4849200248718261	tomspunt	argument?	why_face	yes	yes	correct	task-tomspunt/F_712.jpg
401.042200088501	0.7182300090789795	tomspunt	argument?	why_face	yes	yes	correct	task-tomspunt/F_758.jpg
402.07592010498047	0.5961198806762695	tomspunt	argument?	why_face	no	no	correct	task-tomspunt/F_433.jpg
402.9762499332428	0.4679200649261474	tomspunt	argument?	why_face	yes	yes	correct	task-tomspunt/F_716.jpg
403.759880065918	0.4454998970031738	tomspunt	argument?	why_face	yes	no	incorrect	task-tomspunt/F_139.jpg
404.51015996932983	0.7622201442718506	tomspunt	argument?	why_face	yes	yes	correct	task-tomspunt/F_743.jpg
416.74805998802185	0.7236001491546631	tomspunt	helping?	why_hand	yes	yes	correct	task-tomspunt/H_024.jpg
417.781769990921	0.5902500152587891	tomspunt	helping?	why_hand	yes	yes	correct	task-tomspunt/H_349.jpg
418.68211007118225	0.6185600757598877	tomspunt	helping?	why_hand	yes	yes	correct	task-tomspunt/H_077.jpg
419.6157901287079	0.5560200214385986	tomspunt	helping?	why_hand	yes	yes	correct	task-tomspunt/H_474.jpg
420.4827799797058	0.5725600719451904	tomspunt	helping?	why_hand	yes	no	incorrect	task-tomspunt/H_091.jpg
421.3664400577545	0.8187000751495361	tomspunt	helping?	why_hand	no	no	correct	task-tomspunt/H_159.jpg
422.50020003318787	0.5380899906158447	tomspunt	helping?	why_hand	yes	yes	correct	task-tomspunt/H_111.jpg
423.35052013397217	0.9044699668884276	tomspunt	helping?	why_hand	no	no	correct	task-tomspunt/H_012.jpg
434.8214600086212	0.6179201602935791	tomspunt	both hands?	how_hand	yes	yes	correct	task-tomspunt/H_111.jpg
435.7551400661469	0.5846900939941406	tomspunt	both hands?	how_hand	yes	yes	correct	task-tomspunt/H_027.jpg
436.6554801464081	0.616919994354248	tomspunt	both hands?	how_hand	no	no	correct	task-tomspunt/H_091.jpg
437.57248997688293	0.6848800182342529	tomspunt	both hands?	how_hand	yes	yes	correct	task-tomspunt/H_167.jpg
438.5728600025177	0.8158700466156006	tomspunt	both hands?	how_hand	yes	yes	correct	task-tomspunt/H_581.jpg
439.6899399757385	0.7017800807952881	tomspunt	both hands?	how_hand	no	no	correct	task-tomspunt/H_159.jpg
440.7069900035858	0.568540096282959	tomspunt	both hands?	how_hand	yes	yes	correct	task-tomspunt/H_349.jpg
441.5906500816345	0.7013599872589111	tomspunt	both hands?	how_hand	no	no	correct	task-tomspunt/H_627.jpg
452.32799005508423	0.5603399276733398	tomspunt	healthy?	why_hand	yes	yes	correct	task-tomspunt/H_438.jpg
453.19498014450073	0.5682899951934814	tomspunt	healthy?	why_hand	yes	yes	correct	task-tomspunt/H_364.jpg
454.07863998413086	0.7097301483154297	tomspunt	healthy?	why_hand	yes	yes	correct	task-tomspunt/H_362.jpg
455.09569001197815	0.7681200504302979	tomspunt	healthy?	why_hand	no	no	correct	task-tomspunt/H_019.jpg
456.17943000793457	0.601830005645752	tomspunt	healthy?	why_hand	yes	yes	correct	task-tomspunt/H_167.jpg
457.096440076828	0.8085498809814453	tomspunt	healthy?	why_hand	no	no	correct	task-tomspunt/H_007.jpg
458.2135200500488	0.5517098903656006	tomspunt	healthy?	why_hand	yes	yes	correct	task-tomspunt/H_627.jpg
459.08051013946533	0.9919400215148926	tomspunt	healthy?	why_hand	no	no	correct	task-tomspunt/H_130.jpg
471.3851001262665	0.5700199604034424	tomspunt	pressing button?	how_hand	yes	yes	correct	task-tomspunt/H_126.jpg
472.2687599658966	0.6032099723815918	tomspunt	pressing button?	how_hand	no	no	correct	task-tomspunt/H_130.jpg
473.1857700347901	0.5031900405883789	tomspunt	pressing button?	how_hand	yes	yes	correct	task-tomspunt/H_483.jpg
474.0027401447296	0.6689498424530029	tomspunt	pressing button?	how_hand	no	no	correct	task-tomspunt/H_024.jpg
474.9864399433136	0.535830020904541	tomspunt	pressing button?	how_hand	yes	yes	correct	task-tomspunt/H_332.jpg
475.8367600440979	0.7353999614715576	tomspunt	pressing button?	how_hand	yes	yes	correct	task-tomspunt/H_019.jpg
476.8871500492096	0.4845900535583496	tomspunt	pressing button?	how_hand	no	no	correct	task-tomspunt/H_261.jpg
477.6874499320984	0.5012600421905518	tomspunt	pressing button?	how_hand	yes	yes	correct	task-tomspunt/H_502.jpg
488.9249701499939	0.4351499080657959	tomspunt	looking at camera?	how_face	yes	yes	correct	task-tomspunt/F_618.jpg
489.67525005340576	0.6803700923919678	tomspunt	looking at camera?	how_face	no	no	correct	task-tomspunt/F_754.jpg
490.6589500904083	0.6016900539398193	tomspunt	looking at camera?	how_face	yes	yes	correct	task-tomspunt/F_129.jpg
491.57596015930176	0.5457398891448975	tomspunt	looking at camera?	how_face	yes	yes	correct	task-tomspunt/F_598.jpg
492.4262800216675	0.5017299652099609	tomspunt	looking at camera?	how_face	yes	yes	correct	task-tomspunt/F_128.jpg
493.24325013160706	0.5851700305938721	tomspunt	looking at camera?	how_face	yes	no	incorrect	task-tomspunt/F_582.jpg
494.1435799598694	0.9618000984191896	tomspunt	looking at camera?	how_face	yes	yes	correct	task-tomspunt/F_774.jpg
495.4107201099396	0.59486985206604	tomspunt	looking at camera?	how_face	no	no	correct	task-tomspunt/F_743.jpg
507.8820400238037	0.7569100856781006	tomspunt	self-doubt?	why_face	no	yes	incorrect	task-tomspunt/F_798.jpg
508.94911003112793	0.8564901351928711	tomspunt	self-doubt?	why_face	no	no	correct	task-tomspunt/F_086.jpg
510.1162099838257	0.5888099670410156	tomspunt	self-doubt?	why_face	yes	yes	correct	task-tomspunt/F_544.jpg
511.0165400505066	0.638430118560791	tomspunt	self-doubt?	why_face	yes	yes	correct	task-tomspunt/F_754.jpg
511.9669001102447	0.6214199066162109	tomspunt	self-doubt?	why_face	yes	yes	correct	task-tomspunt/F_111.jpg
512.9005801677704	0.0219497680664062	tomspunt	self-doubt?	why_face	yes	yes	correct	task-tomspunt/F_584.jpg
513.2340400218964	0.704240083694458	tomspunt	self-doubt?	why_face	no	no	correct	task-tomspunt/F_128.jpg
514.2510800361633	0.837630033493042	tomspunt	self-doubt?	why_face	no	no	correct	task-tomspunt/F_774.jpg
525.4052400588989	0.6012399196624756	tomspunt	self-protection?	why_hand	yes	yes	correct	task-tomspunt/H_581.jpg
526.3222501277924	0.501579999923706	tomspunt	self-protection?	why_hand	yes	yes	correct	task-tomspunt/H_443.jpg
527.1392199993134	0.6847100257873535	tomspunt	self-protection?	why_hand	no	no	correct	task-tomspunt/H_332.jpg
528.1396000385284	0.5688800811767578	tomspunt	self-protection?	why_hand	yes	yes	correct	task-tomspunt/H_027.jpg
529.0232601165771	0.9325499534606934	tomspunt	self-protection?	why_hand	no	no	correct	task-tomspunt/H_532.jpg
530.257050037384	0.7020399570465088	tomspunt	self-protection?	why_hand	yes	yes	correct	task-tomspunt/H_189.jpg
531.2741000652313	0.7684299945831299	tomspunt	self-protection?	why_hand	no	no	correct	task-tomspunt/H_006.jpg
532.3578400611877	0.6640899181365967	tomspunt	self-protection?	why_hand	yes	yes	correct	task-tomspunt/H_038.jpg
543.6287100315094	0.6179099082946777	tomspunt	lifting?	how_hand	yes	yes	correct	task-tomspunt/H_443.jpg
544.562390089035	0.943350076675415	tomspunt	lifting?	how_hand	yes	no	incorrect	task-tomspunt/H_038.jpg
545.8128499984741	0.601830005645752	tomspunt	lifting?	how_hand	yes	yes	correct	task-tomspunt/H_136.jpg
546.7298600673676	0.7348299026489258	tomspunt	lifting?	how_hand	no	no	correct	task-tomspunt/H_012.jpg
547.7802500724792	0.8747599124908447	tomspunt	lifting?	how_hand	yes	yes	correct	task-tomspunt/H_362.jpg
548.9640300273895	0.7916300296783447	tomspunt	lifting?	how_hand	yes	yes	correct	task-tomspunt/H_189.jpg
550.0644400119781	0.8740799427032471	tomspunt	lifting?	how_hand	no	yes	incorrect	task-tomspunt/H_170.jpg
551.2482099533081	1.006810188293457	tomspunt	lifting?	how_hand	no	no	correct	task-tomspunt/H_077.jpg
561.5020401477814	0.5862798690795898	tomspunt	looking to side?	how_face	yes	yes	correct	task-tomspunt/F_716.jpg
562.4023699760437	0.7026700973510742	tomspunt	looking to side?	how_face	no	no	correct	task-tomspunt/F_798.jpg
563.419420003891	0.6355700492858887	tomspunt	looking to side?	how_face	yes	yes	correct	task-tomspunt/F_760.jpg
564.3697700500488	0.735529899597168	tomspunt	looking to side?	how_face	yes	yes	correct	task-tomspunt/F_110.jpg
565.4201700687408	0.868920087814331	tomspunt	looking to side?	how_face	no	no	correct	task-tomspunt/F_779.jpg
566.6039400100708	0.7517499923706055	tomspunt	looking to side?	how_face	yes	yes	correct	task-tomspunt/F_590.jpg
567.6710000038147	0.7850501537322998	tomspunt	looking to side?	how_face	no	no	correct	task-tomspunt/F_111.jpg
568.7714099884033	0.7687301635742188	tomspunt	looking to side?	how_face	yes	yes	correct	task-tomspunt/F_433.jpg
583.9770901203156	0.5618598461151123	tomspunt	proud?	why_face	yes	yes	correct	task-tomspunt/F_083.jpg
584.8440799713135	0.6117100715637207	tomspunt	proud?	why_face	yes	yes	correct	task-tomspunt/F_582.jpg
585.7610800266266	0.5355899333953857	tomspunt	proud?	why_face	yes	yes	correct	task-tomspunt/F_618.jpg
586.6114001274109	0.6270599365234375	tomspunt	proud?	why_face	no	no	correct	task-tomspunt/F_776.jpg
587.545079946518	0.7933201789855957	tomspunt	proud?	why_face	yes	yes	correct	task-tomspunt/F_598.jpg
588.6454899311066	0.9261901378631592	tomspunt	proud?	why_face	no	no	correct	task-tomspunt/F_760.jpg
589.8792901039124	0.6090798377990723	tomspunt	proud?	why_face	no	no	correct	task-tomspunt/F_412.jpg
590.7962999343872	0.6520500183105469	tomspunt	proud?	why_face	yes	yes	correct	task-tomspunt/F_695.jpg
0.0836994552612302	2.03409194946289	tomspunt	reaching?	block_question_presentation	n/a	n/a	n/a	n/a
0.0836994552612302	0.3	tomspunt	reaching?	block_question_presentation	n/a	n/a	n/a	n/a
17.5402095222473	2.10078263282776	tomspunt	healthy?	block_question_presentation	n/a	n/a	n/a	n/a
17.5402095222473	0.3	tomspunt	healthy?	block_question_presentation	n/a	n/a	n/a	n/a
36.6473340892792	2.10078382492065	tomspunt	admiring?	block_question_presentation	n/a	n/a	n/a	n/a
36.6473340892792	0.3	tomspunt	admiring?	block_question_presentation	n/a	n/a	n/a	n/a
55.6210772895813	2.10078310966492	tomspunt	smiling?	block_question_presentation	n/a	n/a	n/a	n/a
55.6210772895813	0.3	tomspunt	smiling?	block_question_presentation	n/a	n/a	n/a	n/a
73.1442778015137	2.10078406333923	tomspunt	lifting?	block_question_presentation	n/a	n/a	n/a	n/a
73.1442778015137	0.3	tomspunt	lifting?	block_question_presentation	n/a	n/a	n/a	n/a
95.6193258666992	2.10078382492065	tomspunt	helping?	block_question_presentation	n/a	n/a	n/a	n/a
95.6193258666992	0.3	tomspunt	helping?	block_question_presentation	n/a	n/a	n/a	n/a
113.509331216812	2.08410906791687	tomspunt	proud?	block_question_presentation	n/a	n/a	n/a	n/a
113.509331216812	0.3	tomspunt	proud?	block_question_presentation	n/a	n/a	n/a	n/a
131.032533159256	2.10078287124634	tomspunt	looking to side?	block_question_presentation	n/a	n/a	n/a	n/a
131.032533159256	0.3	tomspunt	looking to side?	block_question_presentation	n/a	n/a	n/a	n/a
150.139659156799	2.10078287124634	tomspunt	argument?	block_question_presentation	n/a	n/a	n/a	n/a
150.139659156799	0.3	tomspunt	argument?	block_question_presentation	n/a	n/a	n/a	n/a
167.97964381218	2.10078477859497	tomspunt	open mouth?	block_question_presentation	n/a	n/a	n/a	n/a
167.97964381218	0.3	tomspunt	open mouth?	block_question_presentation	n/a	n/a	n/a	n/a
185.869649162292	2.1007833480835	tomspunt	pressing button?	block_question_presentation	n/a	n/a	n/a	n/a
185.869649162292	0.3	tomspunt	pressing button?	block_question_presentation	n/a	n/a	n/a	n/a
203.659617652893	2.10078263282776	tomspunt	competing?	block_question_presentation	n/a	n/a	n/a	n/a
203.659617652893	0.3	tomspunt	competing?	block_question_presentation	n/a	n/a	n/a	n/a
221.733023395538	2.10078382492065	tomspunt	self-doubt?	block_question_presentation	n/a	n/a	n/a	n/a
221.733023395538	0.3	tomspunt	self-doubt?	block_question_presentation	n/a	n/a	n/a	n/a
240.790130367279	2.08411002159119	tomspunt	looking at camera?	block_question_presentation	n/a	n/a	n/a	n/a
240.790130367279	0.3	tomspunt	looking at camera?	block_question_presentation	n/a	n/a	n/a	n/a
259.5804712677	2.08411026000977	tomspunt	both hands?	block_question_presentation	n/a	n/a	n/a	n/a
259.5804712677	0.3	tomspunt	both hands?	block_question_presentation	n/a	n/a	n/a	n/a
278.370812168121	2.08411026000977	tomspunt	self-protection?	block_question_presentation	n/a	n/a	n/a	n/a
278.370812168121	0.3	tomspunt	self-protection?	block_question_presentation	n/a	n/a	n/a	n/a
299.845487108231	2.1007833480835	tomspunt	smiling?	block_question_presentation	n/a	n/a	n/a	n/a
299.845487108231	0.3	tomspunt	smiling?	block_question_presentation	n/a	n/a	n/a	n/a
317.63545416832	2.10078358650208	tomspunt	admiring?	block_question_presentation	n/a	n/a	n/a	n/a
317.63545416832	0.3	tomspunt	admiring?	block_question_presentation	n/a	n/a	n/a	n/a
335.525459041595	2.10078310966492	tomspunt	competing?	block_question_presentation	n/a	n/a	n/a	n/a
335.525459041595	0.3	tomspunt	competing?	block_question_presentation	n/a	n/a	n/a	n/a
357.000134458542	2.10078382492065	tomspunt	reaching?	block_question_presentation	n/a	n/a	n/a	n/a
357.000134458542	0.3	tomspunt	reaching?	block_question_presentation	n/a	n/a	n/a	n/a
374.840120067596	2.10078430175781	tomspunt	open mouth?	block_question_presentation	n/a	n/a	n/a	n/a
374.840120067596	0.3	tomspunt	open mouth?	block_question_presentation	n/a	n/a	n/a	n/a
393.513751020432	2.10078310966492	tomspunt	argument?	block_question_presentation	n/a	n/a	n/a	n/a
393.513751020432	0.3	tomspunt	argument?	block_question_presentation	n/a	n/a	n/a	n/a
411.737213125229	2.10078382492065	tomspunt	helping?	block_question_presentation	n/a	n/a	n/a	n/a
411.737213125229	0.3	tomspunt	helping?	block_question_presentation	n/a	n/a	n/a	n/a
429.810620298386	2.10078406333923	tomspunt	both hands?	block_question_presentation	n/a	n/a	n/a	n/a
429.810620298386	0.3	tomspunt	both hands?	block_question_presentation	n/a	n/a	n/a	n/a
447.333821763992	2.08411026000977	tomspunt	healthy?	block_question_presentation	n/a	n/a	n/a	n/a
447.333821763992	0.3	tomspunt	healthy?	block_question_presentation	n/a	n/a	n/a	n/a
466.374256362915	2.10078263282776	tomspunt	pressing button?	block_question_presentation	n/a	n/a	n/a	n/a
466.374256362915	0.3	tomspunt	pressing button?	block_question_presentation	n/a	n/a	n/a	n/a
483.91413020134	2.1007821559906	tomspunt	looking at camera?	block_question_presentation	n/a	n/a	n/a	n/a
483.91413020134	0.3	tomspunt	looking at camera?	block_question_presentation	n/a	n/a	n/a	n/a
502.871200313568	2.10078287124634	tomspunt	self-doubt?	block_question_presentation	n/a	n/a	n/a	n/a
502.871200313568	0.3	tomspunt	self-doubt?	block_question_presentation	n/a	n/a	n/a	n/a
520.394401063919	2.10078358650208	tomspunt	self-protection?	block_question_presentation	n/a	n/a	n/a	n/a
520.394401063919	0.3	tomspunt	self-protection?	block_question_presentation	n/a	n/a	n/a	n/a
538.617863645554	2.08411073684692	tomspunt	lifting?	block_question_presentation	n/a	n/a	n/a	n/a
538.617863645554	0.3	tomspunt	lifting?	block_question_presentation	n/a	n/a	n/a	n/a
556.491195669174	2.10078310966492	tomspunt	looking to side?	block_question_presentation	n/a	n/a	n/a	n/a
556.491195669174	0.3	tomspunt	looking to side?	block_question_presentation	n/a	n/a	n/a	n/a
578.966243019104	2.10078454017639	tomspunt	proud?	block_question_presentation	n/a	n/a	n/a	n/a
578.966243019104	0.3	tomspunt	proud?	block_question_presentation	n/a	n/a	n/a	n/a
