onset	duration	subtask_type	question	event_type	participant_response	normative_response	response_accuracy	stim_file_TODO
5.030400037765503	1.2251801490783691	tomspunt	reaching?	how_hand	yes	yes	correct	task-tomspunt/H_007.jpg
6.564440011978149	1.745530128479004	tomspunt	reaching?	how_hand	yes	no	incorrect	task-tomspunt/H_532.jpg
8.598710060119629	1.140120029449463	tomspunt	reaching?	how_hand	yes	yes	correct	task-tomspunt/H_474.jpg
10.04938006401062	1.6229701042175293	tomspunt	reaching?	how_hand	no	no	correct	task-tomspunt/H_438.jpg
11.983610153198242	1.8914799690246584	tomspunt	reaching?	how_hand	yes	yes	correct	task-tomspunt/H_364.jpg
14.017880201339722	1.1047799587249756	tomspunt	reaching?	how_hand	yes	yes	correct	task-tomspunt/H_006.jpg
15.435200214385986	0.7520098686218262	tomspunt	reaching?	how_hand	yes	yes	correct	task-tomspunt/H_003.jpg
16.502360105514526	1.6030800342559814	tomspunt	reaching?	how_hand	no	no	correct	task-tomspunt/H_132.jpg
22.55516004562378	1.5690100193023682	tomspunt	healthy?	why_hand	yes	yes	correct	task-tomspunt/H_627.jpg
24.43936014175415	n/a	tomspunt	healthy?	why_hand	n/a	yes	incorrect	task-tomspunt/H_438.jpg
26.473640203475952	0.2183599472045898	tomspunt	healthy?	why_hand	yes	yes	correct	task-tomspunt/H_364.jpg
27.007220029830933	1.5022599697113037	tomspunt	healthy?	why_hand	no	no	correct	task-tomspunt/H_130.jpg
28.82472014427185	1.235990047454834	tomspunt	healthy?	why_hand	yes	yes	correct	task-tomspunt/H_362.jpg
30.37544012069702	1.8432800769805908	tomspunt	healthy?	why_hand	no	no	correct	task-tomspunt/H_007.jpg
32.4097101688385	1.102519989013672	tomspunt	healthy?	why_hand	yes	yes	correct	task-tomspunt/H_167.jpg
33.827030181884766	1.917949914932251	tomspunt	healthy?	why_hand	no	no	correct	task-tomspunt/H_019.jpg
41.66399002075195	1.185530185699463	tomspunt	admiring?	why_face	yes	yes	correct	task-tomspunt/F_779.jpg
43.16468000411987	0.94346022605896	tomspunt	admiring?	why_face	yes	yes	correct	task-tomspunt/F_593.jpg
44.415250062942505	1.2856299877166748	tomspunt	admiring?	why_face	no	no	correct	task-tomspunt/F_110.jpg
46.015990018844604	1.0094201564788818	tomspunt	admiring?	why_face	yes	yes	correct	task-tomspunt/F_590.jpg
47.33327007293701	1.475480079650879	tomspunt	admiring?	why_face	no	no	correct	task-tomspunt/F_692.jpg
49.117430210113525	1.102259874343872	tomspunt	admiring?	why_face	yes	yes	correct	task-tomspunt/F_759.jpg
50.53475022315979	0.9409098625183104	tomspunt	admiring?	why_face	yes	yes	correct	task-tomspunt/F_648.jpg
51.785330057144165	1.6063899993896484	tomspunt	admiring?	why_face	no	no	correct	task-tomspunt/F_129.jpg
60.622740030288696	0.93677020072937	tomspunt	smiling?	how_face	yes	yes	correct	task-tomspunt/F_139.jpg
61.87332010269165	0.7695801258087158	tomspunt	smiling?	how_face	no	no	correct	task-tomspunt/F_712.jpg
62.95715022087097	1.2191598415374756	tomspunt	smiling?	how_face	yes	yes	correct	task-tomspunt/F_695.jpg
64.49119019508362	1.3024399280548096	tomspunt	smiling?	how_face	no	no	correct	task-tomspunt/F_758.jpg
66.10861015319824	0.8188800811767578	tomspunt	smiling?	how_face	yes	yes	correct	task-tomspunt/F_083.jpg
67.24247002601624	0.9521300792694092	tomspunt	smiling?	how_face	yes	yes	correct	task-tomspunt/F_759.jpg
68.50972008705139	0.80253005027771	tomspunt	smiling?	how_face	no	no	correct	task-tomspunt/F_412.jpg
69.62690019607544	0.7166500091552734	tomspunt	smiling?	how_face	yes	yes	correct	task-tomspunt/F_593.jpg
78.1641800403595	1.4028301239013672	tomspunt	lifting?	how_hand	yes	yes	correct	task-tomspunt/H_136.jpg
79.88164019584656	0.9024298191070556	tomspunt	lifting?	how_hand	no	no	correct	task-tomspunt/H_038.jpg
81.0988700389862	1.9031100273132324	tomspunt	lifting?	how_hand	yes	yes	correct	task-tomspunt/H_189.jpg
83.13314008712769	1.078350067138672	tomspunt	lifting?	how_hand	no	no	correct	task-tomspunt/H_077.jpg
84.51711010932922	0.9520399570465088	tomspunt	lifting?	how_hand	yes	yes	correct	task-tomspunt/H_443.jpg
85.78436017036438	1.0778498649597168	tomspunt	lifting?	how_hand	no	no	correct	task-tomspunt/H_012.jpg
87.16834020614624	0.8186697959899902	tomspunt	lifting?	how_hand	yes	yes	correct	task-tomspunt/H_362.jpg
88.30219006538391	1.393510103225708	tomspunt	lifting?	how_hand	yes	yes	correct	task-tomspunt/H_170.jpg
100.64123010635376	1.035680055618286	tomspunt	helping?	why_hand	yes	yes	correct	task-tomspunt/H_077.jpg
101.99185013771056	0.9046800136566162	tomspunt	helping?	why_hand	yes	yes	correct	task-tomspunt/H_349.jpg
103.2090802192688	0.7210299968719482	tomspunt	helping?	why_hand	yes	yes	correct	task-tomspunt/H_474.jpg
104.2428901195526	1.320470094680786	tomspunt	helping?	why_hand	no	yes	incorrect	task-tomspunt/H_024.jpg
105.87698006629944	1.8081800937652588	tomspunt	helping?	why_hand	no	no	correct	task-tomspunt/H_012.jpg
107.91125011444092	1.1024000644683838	tomspunt	helping?	why_hand	no	no	correct	task-tomspunt/H_159.jpg
109.32857012748718	1.1855299472808838	tomspunt	helping?	why_hand	yes	yes	correct	task-tomspunt/H_111.jpg
110.8292601108551	0.8690500259399414	tomspunt	helping?	why_hand	yes	no	incorrect	task-tomspunt/H_091.jpg
118.51614999771118	0.9522202014923096	tomspunt	proud?	why_face	yes	yes	correct	task-tomspunt/F_598.jpg
119.78340005874634	0.8519599437713623	tomspunt	proud?	why_face	no	no	correct	task-tomspunt/F_760.jpg
120.95061016082764	1.3188400268554688	tomspunt	proud?	why_face	yes	yes	correct	task-tomspunt/F_582.jpg
122.58469009399414	1.3190500736236572	tomspunt	proud?	why_face	no	no	correct	task-tomspunt/F_412.jpg
124.21878004074097	0.901940107345581	tomspunt	proud?	why_face	yes	yes	correct	task-tomspunt/F_083.jpg
125.4360101222992	1.3191900253295898	tomspunt	proud?	why_face	no	no	correct	task-tomspunt/F_776.jpg
127.07010006904602	0.8787100315093994	tomspunt	proud?	why_face	yes	yes	correct	task-tomspunt/F_618.jpg
128.25398015975952	0.978839874267578	tomspunt	proud?	why_face	yes	yes	correct	task-tomspunt/F_695.jpg
136.04091000556946	1.3855299949645996	tomspunt	looking to side?	how_face	yes	yes	correct	task-tomspunt/F_590.jpg
137.741690158844	0.6578400135040283	tomspunt	looking to side?	how_face	yes	yes	correct	task-tomspunt/F_433.jpg
138.70881009101868	0.6912500858306885	tomspunt	looking to side?	how_face	yes	yes	correct	task-tomspunt/F_716.jpg
139.70927000045776	0.7577002048492432	tomspunt	looking to side?	how_face	yes	no	incorrect	task-tomspunt/F_779.jpg
140.77643013000488	1.123840093612671	tomspunt	looking to side?	how_face	yes	yes	correct	task-tomspunt/F_760.jpg
142.21043014526367	1.1354498863220217	tomspunt	looking to side?	how_face	no	no	correct	task-tomspunt/F_111.jpg
143.66110014915466	0.8689100742340088	tomspunt	looking to side?	how_face	yes	yes	correct	task-tomspunt/F_110.jpg
144.84498000144958	1.3389902114868164	tomspunt	looking to side?	how_face	no	no	correct	task-tomspunt/F_798.jpg
155.1497302055359	1.4858999252319336	tomspunt	argument?	why_face	yes	yes	correct	task-tomspunt/F_716.jpg
156.95057010650635	1.1692500114440918	tomspunt	argument?	why_face	no	no	correct	task-tomspunt/F_139.jpg
158.4345901012421	1.0338900089263916	tomspunt	argument?	why_face	yes	yes	correct	task-tomspunt/F_712.jpg
159.76853013038635	1.2187700271606443	tomspunt	argument?	why_face	no	no	correct	task-tomspunt/F_433.jpg
161.30258011817932	1.7028100490570068	tomspunt	argument?	why_face	yes	yes	correct	task-tomspunt/F_403.jpg
163.3201801776886	1.1192898750305176	tomspunt	argument?	why_face	no	no	correct	task-tomspunt/F_844.jpg
164.7541701793671	1.2525599002838137	tomspunt	argument?	why_face	yes	yes	correct	task-tomspunt/F_743.jpg
166.32156014442444	1.0690500736236572	tomspunt	argument?	why_face	yes	yes	correct	task-tomspunt/F_758.jpg
172.9913101196289	0.8856899738311768	tomspunt	open mouth?	how_face	yes	yes	correct	task-tomspunt/F_844.jpg
174.1918601989746	0.4854400157928467	tomspunt	open mouth?	how_face	yes	yes	correct	task-tomspunt/F_776.jpg
174.99223017692566	0.8611099720001221	tomspunt	open mouth?	how_face	no	no	correct	task-tomspunt/F_544.jpg
176.15944004058838	0.5607600212097168	tomspunt	open mouth?	how_face	yes	yes	correct	task-tomspunt/F_692.jpg
177.02651000022888	0.9354701042175292	tomspunt	open mouth?	how_face	no	no	correct	task-tomspunt/F_584.jpg
178.2770800590515	0.6023299694061279	tomspunt	open mouth?	how_face	yes	yes	correct	task-tomspunt/F_403.jpg
179.19416999816897	0.5854201316833496	tomspunt	open mouth?	how_face	yes	yes	correct	task-tomspunt/F_086.jpg
180.09459018707275	0.9260199069976808	tomspunt	open mouth?	how_face	no	no	correct	task-tomspunt/F_648.jpg
190.88291001319885	1.1385900974273682	tomspunt	pressing button?	how_hand	yes	yes	correct	task-tomspunt/H_019.jpg
192.33358001708984	1.0710899829864502	tomspunt	pressing button?	how_hand	no	no	correct	task-tomspunt/H_024.jpg
193.71755003929135	1.4039201736450195	tomspunt	pressing button?	how_hand	no	no	correct	task-tomspunt/H_130.jpg
195.43501019477844	0.6198899745941162	tomspunt	pressing button?	how_hand	yes	yes	correct	task-tomspunt/H_502.jpg
196.36877012252808	1.5195000171661377	tomspunt	pressing button?	how_hand	no	no	correct	task-tomspunt/H_261.jpg
198.20295000076297	0.7186300754547119	tomspunt	pressing button?	how_hand	yes	yes	correct	task-tomspunt/H_332.jpg
199.23677015304563	0.6353600025177002	tomspunt	pressing button?	how_hand	yes	yes	correct	task-tomspunt/H_126.jpg
200.1872000694275	0.702049970626831	tomspunt	pressing button?	how_hand	yes	yes	correct	task-tomspunt/H_483.jpg
208.6744601726532	1.1190199851989746	tomspunt	competing?	why_hand	yes	yes	correct	task-tomspunt/H_261.jpg
210.1084501743317	0.6979899406433105	tomspunt	competing?	why_hand	no	no	correct	task-tomspunt/H_483.jpg
211.10891008377075	0.6976499557495117	tomspunt	competing?	why_hand	yes	yes	correct	task-tomspunt/H_132.jpg
212.10938000679016	1.3357300758361816	tomspunt	competing?	why_hand	no	no	correct	task-tomspunt/H_126.jpg
213.76014018058777	1.0632898807525637	tomspunt	competing?	why_hand	yes	yes	correct	task-tomspunt/H_136.jpg
215.1274402141571	n/a	tomspunt	competing?	why_hand	n/a	no	incorrect	task-tomspunt/H_502.jpg
217.16171002388	0.8356502056121826	tomspunt	competing?	why_hand	yes	yes	correct	task-tomspunt/H_003.jpg
218.3122401237488	0.8690199851989746	tomspunt	competing?	why_hand	yes	yes	correct	task-tomspunt/H_170.jpg
226.73280000686648	1.575080156326294	tomspunt	self-doubt?	why_face	yes	yes	correct	task-tomspunt/F_544.jpg
228.61700010299683	1.1856300830841064	tomspunt	self-doubt?	why_face	no	no	correct	task-tomspunt/F_086.jpg
230.11769008636475	0.7402100563049316	tomspunt	self-doubt?	why_face	yes	yes	correct	task-tomspunt/F_798.jpg
231.1681802272797	0.718519926071167	tomspunt	self-doubt?	why_face	yes	yes	correct	task-tomspunt/F_111.jpg
232.20199012756348	1.652359962463379	tomspunt	self-doubt?	why_face	no	no	correct	task-tomspunt/F_774.jpg
234.16957020759585	0.6719799041748047	tomspunt	self-doubt?	why_face	yes	yes	correct	task-tomspunt/F_754.jpg
235.1533501148224	1.3554999828338623	tomspunt	self-doubt?	why_face	yes	no	incorrect	task-tomspunt/F_128.jpg
236.8207900524139	1.1206300258636477	tomspunt	self-doubt?	why_face	yes	yes	correct	task-tomspunt/F_584.jpg
245.79160022735596	1.167949914932251	tomspunt	looking at camera?	how_face	yes	yes	correct	task-tomspunt/F_128.jpg
247.25894021987915	0.8341999053955078	tomspunt	looking at camera?	how_face	yes	yes	correct	task-tomspunt/F_618.jpg
248.39280009269712	0.60194993019104	tomspunt	looking at camera?	how_face	yes	yes	correct	task-tomspunt/F_598.jpg
249.30989003181455	0.6185300350189209	tomspunt	looking at camera?	how_face	no	no	correct	task-tomspunt/F_743.jpg
250.2436602115631	0.6019599437713623	tomspunt	looking at camera?	how_face	yes	yes	correct	task-tomspunt/F_774.jpg
251.16075015068057	0.735339879989624	tomspunt	looking at camera?	how_face	yes	no	incorrect	task-tomspunt/F_582.jpg
252.21123003959656	1.4525601863861084	tomspunt	looking at camera?	how_face	no	no	correct	task-tomspunt/F_754.jpg
253.97872018814087	0.6185300350189209	tomspunt	looking at camera?	how_face	yes	yes	correct	task-tomspunt/F_129.jpg
264.5836100578308	1.361109972000122	tomspunt	both hands?	how_hand	yes	yes	correct	task-tomspunt/H_167.jpg
266.25105023384094	1.0525798797607422	tomspunt	both hands?	how_hand	no	no	correct	task-tomspunt/H_091.jpg
267.6183500289917	1.5526201725006104	tomspunt	both hands?	how_hand	no	no	correct	task-tomspunt/H_627.jpg
269.48588013648987	1.142139911651611	tomspunt	both hands?	how_hand	yes	yes	correct	task-tomspunt/H_027.jpg
270.93655014038086	n/a	tomspunt	both hands?	how_hand	n/a	yes	incorrect	task-tomspunt/H_111.jpg
272.97082018852234	n/a	tomspunt	both hands?	how_hand	n/a	no	incorrect	task-tomspunt/H_159.jpg
275.00508999824524	1.6193602085113523	tomspunt	both hands?	how_hand	yes	yes	correct	task-tomspunt/H_581.jpg
276.93932008743286	0.8728101253509521	tomspunt	both hands?	how_hand	yes	yes	correct	task-tomspunt/H_349.jpg
283.37563014030457	1.5206599235534668	tomspunt	self-protection?	why_hand	no	yes	incorrect	task-tomspunt/H_443.jpg
285.20981001853943	1.8402700424194336	tomspunt	self-protection?	why_hand	no	no	correct	task-tomspunt/H_006.jpg
287.2440800666809	1.1525800228118896	tomspunt	self-protection?	why_hand	no	yes	incorrect	task-tomspunt/H_581.jpg
288.7114200592041	1.0189800262451172	tomspunt	self-protection?	why_hand	no	no	correct	task-tomspunt/H_532.jpg
290.0453701019287	0.9520199298858644	tomspunt	self-protection?	why_hand	yes	yes	correct	task-tomspunt/H_027.jpg
291.3126301765442	1.1857898235321045	tomspunt	self-protection?	why_hand	yes	yes	correct	task-tomspunt/H_038.jpg
292.8133201599121	1.1502799987792969	tomspunt	self-protection?	why_hand	no	no	correct	task-tomspunt/H_332.jpg
294.2639901638031	1.0524499416351318	tomspunt	self-protection?	why_hand	yes	yes	correct	task-tomspunt/H_189.jpg
304.85221004486084	0.7355899810791016	tomspunt	smiling?	how_face	yes	yes	correct	task-tomspunt/F_759.jpg
305.90270018577576	0.6856298446655273	tomspunt	smiling?	how_face	no	no	correct	task-tomspunt/F_412.jpg
306.90316009521484	0.5452001094818115	tomspunt	smiling?	how_face	yes	yes	correct	task-tomspunt/F_593.jpg
307.7535500526428	0.7852599620819092	tomspunt	smiling?	how_face	no	no	correct	task-tomspunt/F_712.jpg
308.85406017303467	0.6941299438476562	tomspunt	smiling?	how_face	yes	yes	correct	task-tomspunt/F_695.jpg
309.85452008247375	0.6688299179077148	tomspunt	smiling?	how_face	yes	yes	correct	task-tomspunt/F_139.jpg
310.83831000328064	0.6021101474761963	tomspunt	smiling?	how_face	yes	yes	correct	task-tomspunt/F_083.jpg
311.75540018081665	0.602449893951416	tomspunt	smiling?	how_face	no	no	correct	task-tomspunt/F_758.jpg
322.6437602043152	0.9357798099517822	tomspunt	admiring?	why_face	yes	yes	correct	task-tomspunt/F_593.jpg
323.89434003829956	0.6554701328277588	tomspunt	admiring?	why_face	yes	no	incorrect	task-tomspunt/F_129.jpg
324.8614602088928	1.2355098724365234	tomspunt	admiring?	why_face	yes	yes	correct	task-tomspunt/F_759.jpg
326.41217017173767	1.438040018081665	tomspunt	admiring?	why_face	no	no	correct	task-tomspunt/F_692.jpg
328.1629800796509	0.820810079574585	tomspunt	admiring?	why_face	yes	yes	correct	task-tomspunt/F_779.jpg
329.29684019088745	1.2704298496246338	tomspunt	admiring?	why_face	yes	yes	correct	task-tomspunt/F_590.jpg
330.880900144577	1.186039924621582	tomspunt	admiring?	why_face	yes	yes	correct	task-tomspunt/F_648.jpg
332.38160014152527	0.902329921722412	tomspunt	admiring?	why_face	no	no	correct	task-tomspunt/F_110.jpg
340.53536009788513	0.9019200801849364	tomspunt	competing?	why_hand	yes	yes	correct	task-tomspunt/H_261.jpg
341.75259017944336	1.0188498497009275	tomspunt	competing?	why_hand	yes	yes	correct	task-tomspunt/H_170.jpg
343.08654022216797	0.6022098064422607	tomspunt	competing?	why_hand	yes	no	incorrect	task-tomspunt/H_483.jpg
344.0036301612854	1.900820016860962	tomspunt	competing?	why_hand	yes	yes	correct	task-tomspunt/H_132.jpg
346.0379002094269	0.6856498718261719	tomspunt	competing?	why_hand	yes	yes	correct	task-tomspunt/H_136.jpg
347.03836011886597	1.0633199214935305	tomspunt	competing?	why_hand	yes	yes	correct	task-tomspunt/H_003.jpg
348.4056601524353	0.9356000423431396	tomspunt	competing?	why_hand	no	no	correct	task-tomspunt/H_126.jpg
349.65624022483826	0.9957399368286132	tomspunt	competing?	why_hand	no	no	correct	task-tomspunt/H_502.jpg
362.0119500160218	1.5580999851226809	tomspunt	reaching?	how_hand	yes	yes	correct	task-tomspunt/H_003.jpg
363.8794801235199	0.72406005859375	tomspunt	reaching?	how_hand	yes	yes	correct	task-tomspunt/H_364.jpg
364.9132900238037	0.8899500370025635	tomspunt	reaching?	how_hand	no	no	correct	task-tomspunt/H_532.jpg
366.1138401031494	0.7732100486755371	tomspunt	reaching?	how_hand	yes	yes	correct	task-tomspunt/H_006.jpg
367.19768023490906	1.2529799938201904	tomspunt	reaching?	how_hand	no	no	correct	task-tomspunt/H_438.jpg
368.7650701999664	0.8380599021911621	tomspunt	reaching?	how_hand	yes	yes	correct	task-tomspunt/H_007.jpg
369.9156000614166	1.238420009613037	tomspunt	reaching?	how_hand	yes	yes	correct	task-tomspunt/H_474.jpg
371.4663100242615	1.3879201412200928	tomspunt	reaching?	how_hand	yes	no	incorrect	task-tomspunt/H_132.jpg
379.853520154953	1.2510099411010742	tomspunt	open mouth?	how_face	yes	yes	correct	task-tomspunt/F_403.jpg
381.4042401313782	0.7854199409484863	tomspunt	open mouth?	how_face	no	no	correct	task-tomspunt/F_648.jpg
382.50475001335144	0.735720157623291	tomspunt	open mouth?	how_face	yes	yes	correct	task-tomspunt/F_776.jpg
383.5552301406861	1.702280044555664	tomspunt	open mouth?	how_face	no	no	correct	task-tomspunt/F_584.jpg
385.5728302001953	0.5355398654937744	tomspunt	open mouth?	how_face	yes	yes	correct	task-tomspunt/F_844.jpg
386.4232201576233	0.7323200702667236	tomspunt	open mouth?	how_face	yes	yes	correct	task-tomspunt/F_692.jpg
387.4570300579071	0.548410177230835	tomspunt	open mouth?	how_face	yes	yes	correct	task-tomspunt/F_086.jpg
388.3074300289154	0.718559980392456	tomspunt	open mouth?	how_face	no	no	correct	task-tomspunt/F_544.jpg
398.5288100242615	1.4859201908111572	tomspunt	argument?	why_face	yes	yes	correct	task-tomspunt/F_403.jpg
400.3296501636505	0.7438700199127197	tomspunt	argument?	why_face	no	no	correct	task-tomspunt/F_844.jpg
401.3801300525665	1.643100023269653	tomspunt	argument?	why_face	yes	yes	correct	task-tomspunt/F_712.jpg
403.3310301303863	0.7261700630187988	tomspunt	argument?	why_face	yes	yes	correct	task-tomspunt/F_758.jpg
404.36484003067017	0.975710153579712	tomspunt	argument?	why_face	no	no	correct	task-tomspunt/F_433.jpg
405.64877009391785	0.641430139541626	tomspunt	argument?	why_face	yes	yes	correct	task-tomspunt/F_716.jpg
406.59921002388	1.2414801120758057	tomspunt	argument?	why_face	no	no	correct	task-tomspunt/F_139.jpg
408.14992022514343	1.3575799465179443	tomspunt	argument?	why_face	yes	yes	correct	task-tomspunt/F_743.jpg
416.75390005111694	1.1876499652862549	tomspunt	helping?	why_hand	no	yes	incorrect	task-tomspunt/H_024.jpg
418.25459003448486	0.6357600688934326	tomspunt	helping?	why_hand	yes	yes	correct	task-tomspunt/H_349.jpg
419.2050302028656	1.0202298164367676	tomspunt	helping?	why_hand	yes	yes	correct	task-tomspunt/H_077.jpg
420.5389800071716	0.8695700168609619	tomspunt	helping?	why_hand	yes	yes	correct	task-tomspunt/H_474.jpg
421.72286009788513	1.1689400672912598	tomspunt	helping?	why_hand	no	no	correct	task-tomspunt/H_091.jpg
423.2068800926209	1.418839931488037	tomspunt	helping?	why_hand	yes	no	incorrect	task-tomspunt/H_159.jpg
424.94100999832153	0.9856300354003906	tomspunt	helping?	why_hand	yes	yes	correct	task-tomspunt/H_111.jpg
426.2416100502014	1.2690200805664062	tomspunt	helping?	why_hand	no	no	correct	task-tomspunt/H_012.jpg
434.8122401237488	1.6808199882507324	tomspunt	both hands?	how_hand	yes	yes	correct	task-tomspunt/H_111.jpg
436.7964901924134	0.868919849395752	tomspunt	both hands?	how_hand	yes	yes	correct	task-tomspunt/H_027.jpg
437.98037004470825	1.5466301441192627	tomspunt	both hands?	how_hand	no	no	correct	task-tomspunt/H_091.jpg
439.8312201499939	0.7522499561309814	tomspunt	both hands?	how_hand	yes	yes	correct	task-tomspunt/H_167.jpg
440.8983800411224	1.1621899604797363	tomspunt	both hands?	how_hand	yes	yes	correct	task-tomspunt/H_581.jpg
442.3657300472259	1.3861901760101318	tomspunt	both hands?	how_hand	no	no	correct	task-tomspunt/H_159.jpg
444.0665102005005	0.7689399719238281	tomspunt	both hands?	how_hand	yes	yes	correct	task-tomspunt/H_349.jpg
445.1503500938415	1.260240077972412	tomspunt	both hands?	how_hand	no	no	correct	task-tomspunt/H_627.jpg
452.33700013160706	0.8573598861694336	tomspunt	healthy?	why_hand	yes	yes	correct	task-tomspunt/H_438.jpg
453.5042102336883	0.7072699069976807	tomspunt	healthy?	why_hand	yes	yes	correct	task-tomspunt/H_364.jpg
454.5213401317597	0.9735698699951172	tomspunt	healthy?	why_hand	yes	yes	correct	task-tomspunt/H_362.jpg
455.8052701950073	0.8060398101806641	tomspunt	healthy?	why_hand	yes	no	incorrect	task-tomspunt/H_019.jpg
456.9224500656128	1.4389700889587402	tomspunt	healthy?	why_hand	yes	yes	correct	task-tomspunt/H_167.jpg
458.6732602119446	1.538329839706421	tomspunt	healthy?	why_hand	no	no	correct	task-tomspunt/H_007.jpg
460.5241100788117	n/a	tomspunt	healthy?	why_hand	n/a	yes	incorrect	task-tomspunt/H_627.jpg
462.55839014053345	0.1700398921966552	tomspunt	healthy?	why_hand	yes	no	incorrect	task-tomspunt/H_130.jpg
471.395800113678	0.90201997756958	tomspunt	pressing button?	how_hand	yes	yes	correct	task-tomspunt/H_126.jpg
472.6130301952362	0.7353498935699463	tomspunt	pressing button?	how_hand	no	no	correct	task-tomspunt/H_130.jpg
473.66352009773254	0.6827900409698486	tomspunt	pressing button?	how_hand	yes	yes	correct	task-tomspunt/H_483.jpg
474.6473000049591	1.618990182876587	tomspunt	pressing button?	how_hand	no	no	correct	task-tomspunt/H_024.jpg
476.58153009414673	0.6019001007080078	tomspunt	pressing button?	how_hand	yes	yes	correct	task-tomspunt/H_332.jpg
477.49862003326416	0.8190100193023682	tomspunt	pressing button?	how_hand	yes	yes	correct	task-tomspunt/H_019.jpg
478.63248014450073	1.1354200839996338	tomspunt	pressing button?	how_hand	no	no	correct	task-tomspunt/H_261.jpg
480.0831501483917	0.9688000679016112	tomspunt	pressing button?	how_hand	yes	yes	correct	task-tomspunt/H_502.jpg
488.92056012153625	0.9524400234222412	tomspunt	looking at camera?	how_face	yes	yes	correct	task-tomspunt/F_618.jpg
490.18782019615173	1.2434799671173096	tomspunt	looking at camera?	how_face	no	no	correct	task-tomspunt/F_754.jpg
491.7385301589966	0.6688799858093262	tomspunt	looking at camera?	how_face	yes	yes	correct	task-tomspunt/F_129.jpg
492.72232007980347	n/a	tomspunt	looking at camera?	how_face	n/a	yes	incorrect	task-tomspunt/F_598.jpg
494.75659012794495	n/a	tomspunt	looking at camera?	how_face	n/a	yes	incorrect	task-tomspunt/F_128.jpg
496.79087018966675	1.7232098579406738	tomspunt	looking at camera?	how_face	yes	no	incorrect	task-tomspunt/F_582.jpg
498.8251399993897	0.7568600177764893	tomspunt	looking at camera?	how_face	yes	yes	correct	task-tomspunt/F_774.jpg
499.8923001289368	0.7567698955535889	tomspunt	looking at camera?	how_face	no	no	correct	task-tomspunt/F_743.jpg
507.8793201446533	1.8045799732208252	tomspunt	self-doubt?	why_face	yes	yes	correct	task-tomspunt/F_798.jpg
509.9135901927948	0.7190999984741211	tomspunt	self-doubt?	why_face	no	no	correct	task-tomspunt/F_086.jpg
510.9474000930786	0.7691500186920166	tomspunt	self-doubt?	why_face	yes	yes	correct	task-tomspunt/F_544.jpg
512.0312402248383	0.9521899223327636	tomspunt	self-doubt?	why_face	yes	yes	correct	task-tomspunt/F_754.jpg
513.2984900474548	0.9189801216125488	tomspunt	self-doubt?	why_face	yes	yes	correct	task-tomspunt/F_111.jpg
514.5323901176453	0.7357399463653564	tomspunt	self-doubt?	why_face	yes	yes	correct	task-tomspunt/F_584.jpg
515.5828800201416	1.1025102138519287	tomspunt	self-doubt?	why_face	no	no	correct	task-tomspunt/F_128.jpg
517.0002000331879	1.2692201137542725	tomspunt	self-doubt?	why_face	yes	no	incorrect	task-tomspunt/F_774.jpg
525.4040801525116	1.2188599109649658	tomspunt	self-protection?	why_hand	yes	yes	correct	task-tomspunt/H_581.jpg
526.9381201267242	1.6023800373077393	tomspunt	self-protection?	why_hand	no	yes	incorrect	task-tomspunt/H_443.jpg
528.8556802272797	n/a	tomspunt	self-protection?	why_hand	n/a	no	incorrect	task-tomspunt/H_332.jpg
530.8899500370026	0.5856900215148926	tomspunt	self-protection?	why_hand	yes	yes	correct	task-tomspunt/H_027.jpg
531.7903702259064	1.5111699104309082	tomspunt	self-protection?	why_hand	no	no	correct	task-tomspunt/H_532.jpg
533.6078701019287	0.8271200656890869	tomspunt	self-protection?	why_hand	yes	yes	correct	task-tomspunt/H_189.jpg
534.7417302131653	1.7226598262786863	tomspunt	self-protection?	why_hand	yes	no	incorrect	task-tomspunt/H_006.jpg
536.7760000228882	1.102180004119873	tomspunt	self-protection?	why_hand	yes	yes	correct	task-tomspunt/H_038.jpg
543.6291701793671	1.323070049285889	tomspunt	lifting?	how_hand	yes	yes	correct	task-tomspunt/H_443.jpg
545.2632501125336	1.1896600723266602	tomspunt	lifting?	how_hand	no	no	correct	task-tomspunt/H_038.jpg
546.7639501094818	1.3392300605773926	tomspunt	lifting?	how_hand	yes	yes	correct	task-tomspunt/H_136.jpg
548.4147100448608	1.7044801712036133	tomspunt	lifting?	how_hand	yes	no	incorrect	task-tomspunt/H_012.jpg
550.4323101043701	0.7046201229095459	tomspunt	lifting?	how_hand	yes	yes	correct	task-tomspunt/H_362.jpg
551.4494500160217	1.17084002494812	tomspunt	lifting?	how_hand	yes	yes	correct	task-tomspunt/H_189.jpg
552.9334599971771	0.8520002365112305	tomspunt	lifting?	how_hand	yes	yes	correct	task-tomspunt/H_170.jpg
554.1006700992584	1.2532601356506348	tomspunt	lifting?	how_hand	yes	no	incorrect	task-tomspunt/H_077.jpg
561.5040900707245	0.9519400596618652	tomspunt	looking to side?	how_face	yes	yes	correct	task-tomspunt/F_716.jpg
562.7713401317596	0.7999699115753174	tomspunt	looking to side?	how_face	no	no	correct	task-tomspunt/F_798.jpg
563.8718500137329	0.8185601234436035	tomspunt	looking to side?	how_face	yes	yes	correct	task-tomspunt/F_760.jpg
565.0057101249695	0.9189000129699708	tomspunt	looking to side?	how_face	yes	yes	correct	task-tomspunt/F_110.jpg
566.2396101951599	0.7355198860168457	tomspunt	looking to side?	how_face	yes	no	incorrect	task-tomspunt/F_779.jpg
567.2900900840759	0.764739990234375	tomspunt	looking to side?	how_face	yes	yes	correct	task-tomspunt/F_590.jpg
568.3572602272034	0.7981398105621338	tomspunt	looking to side?	how_face	yes	no	incorrect	task-tomspunt/F_111.jpg
569.4577600955963	0.7636599540710449	tomspunt	looking to side?	how_face	yes	yes	correct	task-tomspunt/F_433.jpg
583.9811401367188	0.919059991836548	tomspunt	proud?	why_face	yes	yes	correct	task-tomspunt/F_083.jpg
585.2150402069092	0.9912099838256836	tomspunt	proud?	why_face	yes	yes	correct	task-tomspunt/F_582.jpg
586.5156400203705	1.1078200340270996	tomspunt	proud?	why_face	yes	yes	correct	task-tomspunt/F_618.jpg
587.9329600334167	1.1190400123596191	tomspunt	proud?	why_face	no	no	correct	task-tomspunt/F_776.jpg
589.3669600486755	0.66867995262146	tomspunt	proud?	why_face	yes	yes	correct	task-tomspunt/F_598.jpg
590.350750207901	0.8557999134063721	tomspunt	proud?	why_face	no	no	correct	task-tomspunt/F_760.jpg
591.5179500579834	1.022170066833496	tomspunt	proud?	why_face	no	no	correct	task-tomspunt/F_412.jpg
592.851900100708	0.8052699565887451	tomspunt	proud?	why_face	yes	yes	correct	task-tomspunt/F_695.jpg
0.0860562229156492	2.03427314758301	tomspunt	reaching?	block_question_presentation	n/a	n/a	n/a	n/a
0.0860562229156492	0.3	tomspunt	reaching?	block_question_presentation	n/a	n/a	n/a	n/a
17.5441205406189	2.10096979141235	tomspunt	healthy?	block_question_presentation	n/a	n/a	n/a	n/a
17.5441205406189	0.3	tomspunt	healthy?	block_question_presentation	n/a	n/a	n/a	n/a
36.6529455089569	2.10097074508667	tomspunt	admiring?	block_question_presentation	n/a	n/a	n/a	n/a
36.6529455089569	0.3	tomspunt	admiring?	block_question_presentation	n/a	n/a	n/a	n/a
55.6117024326324	2.10097074508667	tomspunt	smiling?	block_question_presentation	n/a	n/a	n/a	n/a
55.6117024326324	0.3	tomspunt	smiling?	block_question_presentation	n/a	n/a	n/a	n/a
73.1531383895874	2.08429527282715	tomspunt	lifting?	block_question_presentation	n/a	n/a	n/a	n/a
73.1531383895874	0.3	tomspunt	lifting?	block_question_presentation	n/a	n/a	n/a	n/a
95.6301863098144	2.10097074508667	tomspunt	helping?	block_question_presentation	n/a	n/a	n/a	n/a
95.6301863098144	0.3	tomspunt	helping?	block_question_presentation	n/a	n/a	n/a	n/a
113.505109539032	2.10097002983093	tomspunt	proud?	block_question_presentation	n/a	n/a	n/a	n/a
113.505109539032	0.3	tomspunt	proud?	block_question_presentation	n/a	n/a	n/a	n/a
131.029870500565	2.10097026824951	tomspunt	looking to side?	block_question_presentation	n/a	n/a	n/a	n/a
131.029870500565	0.3	tomspunt	looking to side?	block_question_presentation	n/a	n/a	n/a	n/a
150.138696422577	2.10096979141235	tomspunt	argument?	block_question_presentation	n/a	n/a	n/a	n/a
150.138696422577	0.3	tomspunt	argument?	block_question_presentation	n/a	n/a	n/a	n/a
167.980270614624	2.10097002983093	tomspunt	open mouth?	block_question_presentation	n/a	n/a	n/a	n/a
167.980270614624	0.3	tomspunt	open mouth?	block_question_presentation	n/a	n/a	n/a	n/a
185.871867647171	2.10097002983093	tomspunt	pressing button?	block_question_presentation	n/a	n/a	n/a	n/a
185.871867647171	0.3	tomspunt	pressing button?	block_question_presentation	n/a	n/a	n/a	n/a
203.663418521881	2.10096979141235	tomspunt	competing?	block_question_presentation	n/a	n/a	n/a	n/a
203.663418521881	0.3	tomspunt	competing?	block_question_presentation	n/a	n/a	n/a	n/a
221.721759309769	2.10096979141235	tomspunt	self-doubt?	block_question_presentation	n/a	n/a	n/a	n/a
221.721759309769	0.3	tomspunt	self-doubt?	block_question_presentation	n/a	n/a	n/a	n/a
240.780561676025	2.10097050666809	tomspunt	looking at camera?	block_question_presentation	n/a	n/a	n/a	n/a
240.780561676025	0.3	tomspunt	looking at camera?	block_question_presentation	n/a	n/a	n/a	n/a
259.572575559616	2.10096955299377	tomspunt	both hands?	block_question_presentation	n/a	n/a	n/a	n/a
259.572575559616	0.3	tomspunt	both hands?	block_question_presentation	n/a	n/a	n/a	n/a
278.364588727951	2.10096979141235	tomspunt	self-protection?	block_question_presentation	n/a	n/a	n/a	n/a
278.364588727951	0.3	tomspunt	self-protection?	block_question_presentation	n/a	n/a	n/a	n/a
299.841174592972	2.10097002983093	tomspunt	smiling?	block_question_presentation	n/a	n/a	n/a	n/a
299.841174592972	0.3	tomspunt	smiling?	block_question_presentation	n/a	n/a	n/a	n/a
317.632725467682	2.10097002983093	tomspunt	admiring?	block_question_presentation	n/a	n/a	n/a	n/a
317.632725467682	0.3	tomspunt	admiring?	block_question_presentation	n/a	n/a	n/a	n/a
335.52432226181	2.10097050666809	tomspunt	competing?	block_question_presentation	n/a	n/a	n/a	n/a
335.52432226181	0.3	tomspunt	competing?	block_question_presentation	n/a	n/a	n/a	n/a
357.000909318924	2.10097026824951	tomspunt	reaching?	block_question_presentation	n/a	n/a	n/a	n/a
357.000909318924	0.3	tomspunt	reaching?	block_question_presentation	n/a	n/a	n/a	n/a
374.842482318878	2.10097002983093	tomspunt	open mouth?	block_question_presentation	n/a	n/a	n/a	n/a
374.842482318878	0.3	tomspunt	open mouth?	block_question_presentation	n/a	n/a	n/a	n/a
393.517776002884	2.10096955299377	tomspunt	argument?	block_question_presentation	n/a	n/a	n/a	n/a
393.517776002884	0.3	tomspunt	argument?	block_question_presentation	n/a	n/a	n/a	n/a
411.742859115601	2.10097026824951	tomspunt	helping?	block_question_presentation	n/a	n/a	n/a	n/a
411.742859115601	0.3	tomspunt	helping?	block_question_presentation	n/a	n/a	n/a	n/a
429.801200380325	2.10097122192383	tomspunt	both hands?	block_question_presentation	n/a	n/a	n/a	n/a
429.801200380325	0.3	tomspunt	both hands?	block_question_presentation	n/a	n/a	n/a	n/a
447.325961580276	2.10096979141235	tomspunt	healthy?	block_question_presentation	n/a	n/a	n/a	n/a
447.325961580276	0.3	tomspunt	healthy?	block_question_presentation	n/a	n/a	n/a	n/a
466.38476442337	2.10097026824951	tomspunt	pressing button?	block_question_presentation	n/a	n/a	n/a	n/a
466.38476442337	0.3	tomspunt	pressing button?	block_question_presentation	n/a	n/a	n/a	n/a
483.909525384903	2.10097002983093	tomspunt	looking at camera?	block_question_presentation	n/a	n/a	n/a	n/a
483.909525384903	0.3	tomspunt	looking at camera?	block_question_presentation	n/a	n/a	n/a	n/a
502.868281831741	2.10097146034241	tomspunt	self-doubt?	block_question_presentation	n/a	n/a	n/a	n/a
502.868281831741	0.3	tomspunt	self-doubt?	block_question_presentation	n/a	n/a	n/a	n/a
520.393043746948	2.10097026824951	tomspunt	self-protection?	block_question_presentation	n/a	n/a	n/a	n/a
520.393043746948	0.3	tomspunt	self-protection?	block_question_presentation	n/a	n/a	n/a	n/a
538.618127336502	2.08429551124573	tomspunt	lifting?	block_question_presentation	n/a	n/a	n/a	n/a
538.618127336502	0.3	tomspunt	lifting?	block_question_presentation	n/a	n/a	n/a	n/a
556.493051042557	2.08429574966431	tomspunt	looking to side?	block_question_presentation	n/a	n/a	n/a	n/a
556.493051042557	0.3	tomspunt	looking to side?	block_question_presentation	n/a	n/a	n/a	n/a
578.970098962784	2.10097074508667	tomspunt	proud?	block_question_presentation	n/a	n/a	n/a	n/a
578.970098962784	0.3	tomspunt	proud?	block_question_presentation	n/a	n/a	n/a	n/a
