onset	duration	trial_type	response_x	response_y	situation	context	modality	stim_file
4.822	25.986	narrative_presentation	n/a	n/a	Recovery of a lost one	town	Audio	task-narratives/Narrative6Situation1.mp3
30.807	1.271	rating_feeling	1164	546	Recovery of a lost one	town	Audio	n/a
31.107	0.971	feeling_mouse_trajectory	1164	546	Recovery of a lost one	town	Audio	n/a
34.849	1.786	rating_expectation	704	536	Recovery of a lost one	town	Audio	n/a
35.299	1.336	expectation_mouse_trajectory	704	536	Recovery of a lost one	town	Audio	n/a
41.932	27.974	narrative_presentation	n/a	n/a	The enigma	town	Audio	task-narratives/Narrative6Situation2.mp3
69.906	2.123	rating_feeling	1164	546	The enigma	town	Audio	n/a
70.223	1.807	feeling_mouse_trajectory	1164	546	The enigma	town	Audio	n/a
73.932	1.688	rating_expectation	704	536	The enigma	town	Audio	n/a
74.082	1.538	expectation_mouse_trajectory	704	536	The enigma	town	Audio	n/a
83.002	11.973	narrative_presentation	n/a	n/a	Revolt	town	Audio	task-narratives/Narrative6Situation3.mp3
94.975	2.401	rating_feeling	1164	546	Revolt	town	Audio	n/a
95.642	1.734	feeling_mouse_trajectory	1164	546	Revolt	town	Audio	n/a
99.002	1.951	rating_expectation	704	536	Revolt	town	Audio	n/a
99.585	1.368	expectation_mouse_trajectory	704	536	Revolt	town	Audio	n/a
105.057	11.983	narrative_presentation	n/a	n/a	Loss of loved one	swamp	Audio	task-narratives/Narrative6Situation4.mp3
117.04	2.039	rating_feeling	1164	546	Loss of loved one	swamp	Audio	n/a
117.24	1.839	feeling_mouse_trajectory	1164	546	Loss of loved one	swamp	Audio	n/a
121.065	2.138	rating_expectation	704	536	Loss of loved one	swamp	Audio	n/a
122.565	0.638	expectation_mouse_trajectory	704	536	Loss of loved one	swamp	Audio	n/a
127.133	7.308	narrative_presentation	n/a	n/a	An enemy loved	swamp	Audio	task-narratives/Narrative6Situation5.mp3
134.442	2.251	rating_feeling	1164	546	An enemy loved	swamp	Audio	n/a
135.475	1.218	feeling_mouse_trajectory	1164	546	An enemy loved	swamp	Audio	n/a
138.469	1.201	rating_expectation	704	536	An enemy loved	swamp	Audio	n/a
138.869	0.801	expectation_mouse_trajectory	704	536	An enemy loved	swamp	Audio	n/a
144.521	10.82	narrative_presentation	n/a	n/a	Daring Enterprise	swamp	Audio	task-narratives/Narrative6Situation6.mp3
155.341	1.058	rating_feeling	1164	546	Daring Enterprise	swamp	Audio	n/a
155.724	0.675	feeling_mouse_trajectory	1164	546	Daring Enterprise	swamp	Audio	n/a
159.375	1.29	rating_expectation	704	536	Daring Enterprise	swamp	Audio	n/a
159.692	0.973	expectation_mouse_trajectory	704	536	Daring Enterprise	swamp	Audio	n/a
168.447	23.275	narrative_presentation	n/a	n/a	Self-sacrifice for kin	city	Audio	task-narratives/Narrative6Situation7.mp3
191.723	1.784	rating_feeling	1164	546	Self-sacrifice for kin	city	Audio	n/a
192.056	1.451	feeling_mouse_trajectory	1164	546	Self-sacrifice for kin	city	Audio	n/a
195.755	1.251	rating_expectation	704	536	Self-sacrifice for kin	city	Audio	n/a
195.872	1.134	expectation_mouse_trajectory	704	536	Self-sacrifice for kin	city	Audio	n/a
204.828	5.275	narrative_presentation	n/a	n/a	Falling prey to misfortune	city	Audio	task-narratives/Narrative6Situation8.mp3
210.103	2.388	rating_feeling	1164	546	Falling prey to misfortune	city	Audio	n/a
211.003	1.488	feeling_mouse_trajectory	1164	546	Falling prey to misfortune	city	Audio	n/a
214.132	1.353	rating_expectation	704	536	Falling prey to misfortune	city	Audio	n/a
214.632	0.853	expectation_mouse_trajectory	704	536	Falling prey to misfortune	city	Audio	n/a
222.184	9.31	narrative_presentation	n/a	n/a	Madness	city	Audio	task-narratives/Narrative6Situation9.mp3
231.493	1.484	rating_feeling	1164	546	Madness	city	Audio	n/a
231.76	1.217	feeling_mouse_trajectory	1164	546	Madness	city	Audio	n/a
235.52	1.484	rating_expectation	704	536	Madness	city	Audio	n/a
235.92	1.084	expectation_mouse_trajectory	704	536	Madness	city	Audio	n/a
244.593	12.648	narrative_presentation	n/a	n/a	Enmity of kin	prison	Audio	task-narratives/Narrative5Situation1.mp3
257.24	2.87	rating_feeling	1164	546	Enmity of kin	prison	Audio	n/a
258.19	1.92	feeling_mouse_trajectory	1164	546	Enmity of kin	prison	Audio	n/a
261.265	1.869	rating_expectation	704	536	Enmity of kin	prison	Audio	n/a
262.348	0.785	expectation_mouse_trajectory	704	536	Enmity of kin	prison	Audio	n/a
268.318	28.117	narrative_presentation	n/a	n/a	All sacrificed for passion	prison	Audio	task-narratives/Narrative5Situation2.mp3
296.435	1.639	rating_feeling	1164	546	All sacrificed for passion	prison	Audio	n/a
296.835	1.239	feeling_mouse_trajectory	1164	546	All sacrificed for passion	prison	Audio	n/a
300.464	2.321	rating_expectation	704	536	All sacrificed for passion	prison	Audio	n/a
301.698	1.087	expectation_mouse_trajectory	704	536	All sacrificed for passion	prison	Audio	n/a
307.517	13.328	narrative_presentation	n/a	n/a	Discovery of dishonour of loved one	prison	Audio	task-narratives/Narrative5Situation3.mp3
320.845	1.634	rating_feeling	1164	546	Discovery of dishonour of loved one	prison	Audio	n/a
320.878	1.601	feeling_mouse_trajectory	1164	546	Discovery of dishonour of loved one	prison	Audio	n/a
324.87	1.217	rating_expectation	704	536	Discovery of dishonour of loved one	prison	Audio	n/a
325.22	0.867	expectation_mouse_trajectory	704	536	Discovery of dishonour of loved one	prison	Audio	n/a
329.941	20.149	narrative_presentation	n/a	n/a	Crimes of love	park	Audio	task-narratives/Narrative5Situation4.mp3
350.09	2.269	rating_feeling	1164	546	Crimes of love	park	Audio	n/a
350.54	1.819	feeling_mouse_trajectory	1164	546	Crimes of love	park	Audio	n/a
354.115	2.168	rating_expectation	704	536	Crimes of love	park	Audio	n/a
354.832	1.451	expectation_mouse_trajectory	704	536	Crimes of love	park	Audio	n/a
363.17	14.113	narrative_presentation	n/a	n/a	Necessity of sacrificing loved ones	park	Audio	task-narratives/Narrative5Situation5.mp3
377.283	2.009	rating_feeling	1164	546	Necessity of sacrificing loved ones	park	Audio	n/a
378.333	0.959	feeling_mouse_trajectory	1164	546	Necessity of sacrificing loved ones	park	Audio	n/a
381.308	1.29	rating_expectation	704	536	Necessity of sacrificing loved ones	park	Audio	n/a
381.724	0.874	expectation_mouse_trajectory	704	536	Necessity of sacrificing loved ones	park	Audio	n/a
388.379	5.482	narrative_presentation	n/a	n/a	Adultery	park	Audio	task-narratives/Narrative5Situation6.mp3
393.862	1.369	rating_feeling	1164	546	Adultery	park	Audio	n/a
394.045	1.186	feeling_mouse_trajectory	1164	546	Adultery	park	Audio	n/a
397.881	1.834	rating_expectation	704	536	Adultery	park	Audio	n/a
398.748	0.968	expectation_mouse_trajectory	704	536	Adultery	park	Audio	n/a
405.936	20.808	narrative_presentation	n/a	n/a	Revolt	beach	Audio	task-narratives/Narrative5Situation7.mp3
426.744	1.474	rating_feeling	1164	546	Revolt	beach	Audio	n/a
427.178	1.04	feeling_mouse_trajectory	1164	546	Revolt	beach	Audio	n/a
430.781	1.439	rating_expectation	704	536	Revolt	beach	Audio	n/a
431.098	1.122	expectation_mouse_trajectory	704	536	Revolt	beach	Audio	n/a
437.85	7.279	narrative_presentation	n/a	n/a	An enemy loved	beach	Audio	task-narratives/Narrative5Situation8.mp3
445.129	1.667	rating_feeling	1164	546	An enemy loved	beach	Audio	n/a
445.629	1.167	feeling_mouse_trajectory	1164	546	An enemy loved	beach	Audio	n/a
449.15	1.051	rating_expectation	704	536	An enemy loved	beach	Audio	n/a
449.583	0.617	expectation_mouse_trajectory	704	536	An enemy loved	beach	Audio	n/a
456.205	37.959	narrative_presentation	n/a	n/a	Mistaken jealousy	beach	Audio	task-narratives/Narrative5Situation9.mp3
494.163	1.284	rating_feeling	1164	546	Mistaken jealousy	beach	Audio	n/a
494.43	1.017	feeling_mouse_trajectory	1164	546	Mistaken jealousy	beach	Audio	n/a
498.186	1.801	rating_expectation	704	536	Mistaken jealousy	beach	Audio	n/a
499.02	0.968	expectation_mouse_trajectory	704	536	Mistaken jealousy	beach	Audio	n/a
