onset	duration	trial_type	response_x	response_y	situation	context	modality	stim_file
4.857	22.445	narrative_presentation	n/a	n/a	Conflict with a god	swamp	Text	task-narratives/Narrative4Situation1.txt
27.303	2.018	rating_feeling	747	541	Conflict with a god	swamp	Text	n/a
28.403	0.918	feeling_mouse_trajectory	747	541	Conflict with a god	swamp	Text	n/a
31.353	2.401	rating_expectation	1087	575	Conflict with a god	swamp	Text	n/a
32.586	1.168	expectation_mouse_trajectory	1087	575	Conflict with a god	swamp	Text	n/a
40.42	24.796	narrative_presentation	n/a	n/a	Adultery	swamp	Text	task-narratives/Narrative4Situation2.txt
65.217	1.851	rating_feeling	747	541	Adultery	swamp	Text	n/a
65.9	1.167	feeling_mouse_trajectory	747	541	Adultery	swamp	Text	n/a
69.235	1.284	rating_expectation	1087	575	Adultery	swamp	Text	n/a
69.618	0.901	expectation_mouse_trajectory	1087	575	Adultery	swamp	Text	n/a
75.3	21.131	narrative_presentation	n/a	n/a	Slaying of kin unrecognized	swamp	Text	task-narratives/Narrative4Situation3.txt
96.431	2.552	rating_feeling	747	541	Slaying of kin unrecognized	swamp	Text	n/a
97.148	1.835	feeling_mouse_trajectory	747	541	Slaying of kin unrecognized	swamp	Text	n/a
100.445	1.334	rating_expectation	1087	575	Slaying of kin unrecognized	swamp	Text	n/a
100.812	0.967	expectation_mouse_trajectory	1087	575	Slaying of kin unrecognized	swamp	Text	n/a
105.511	21.112	narrative_presentation	n/a	n/a	Fatal imprudence	hospital	Text	task-narratives/Narrative4Situation4.txt
126.623	1.807	rating_feeling	747	541	Fatal imprudence	hospital	Text	n/a
127.107	1.324	feeling_mouse_trajectory	747	541	Fatal imprudence	hospital	Text	n/a
130.645	0.901	rating_expectation	1087	575	Fatal imprudence	hospital	Text	n/a
130.679	0.867	expectation_mouse_trajectory	1087	575	Fatal imprudence	hospital	Text	n/a
135.739	25.8	narrative_presentation	n/a	n/a	Erroneous judgement	hospital	Text	task-narratives/Narrative4Situation5.txt
161.539	1.601	rating_feeling	747	541	Erroneous judgement	hospital	Text	n/a
161.806	1.334	feeling_mouse_trajectory	747	541	Erroneous judgement	hospital	Text	n/a
165.569	1.868	rating_expectation	1087	575	Erroneous judgement	hospital	Text	n/a
166.019	1.418	expectation_mouse_trajectory	1087	575	Erroneous judgement	hospital	Text	n/a
170.636	23.445	narrative_presentation	n/a	n/a	Necessity of sacrificing loved ones	hospital	Text	task-narratives/Narrative4Situation6.txt
194.08	2.501	rating_feeling	747	541	Necessity of sacrificing loved ones	hospital	Text	n/a
194.814	1.768	feeling_mouse_trajectory	747	541	Necessity of sacrificing loved ones	hospital	Text	n/a
198.098	2.118	rating_expectation	1087	575	Necessity of sacrificing loved ones	hospital	Text	n/a
198.665	1.551	expectation_mouse_trajectory	1087	575	Necessity of sacrificing loved ones	hospital	Text	n/a
203.164	19.093	narrative_presentation	n/a	n/a	Recovery of a lost one	prison	Text	task-narratives/Narrative4Situation7.txt
222.258	1.555	rating_feeling	747	541	Recovery of a lost one	prison	Text	n/a
223.191	0.622	feeling_mouse_trajectory	747	541	Recovery of a lost one	prison	Text	n/a
226.279	2.57	rating_expectation	1087	575	Recovery of a lost one	prison	Text	n/a
226.795	2.054	expectation_mouse_trajectory	1087	575	Recovery of a lost one	prison	Text	n/a
231.342	38.534	narrative_presentation	n/a	n/a	Crimes of love	prison	Text	task-narratives/Narrative4Situation8.txt
269.876	1.637	rating_feeling	747	541	Crimes of love	prison	Text	n/a
270.709	0.804	feeling_mouse_trajectory	747	541	Crimes of love	prison	Text	n/a
273.895	3.069	rating_expectation	1087	575	Crimes of love	prison	Text	n/a
274.212	2.752	expectation_mouse_trajectory	1087	575	Crimes of love	prison	Text	n/a
282.961	12.391	narrative_presentation	n/a	n/a	Abduction	prison	Text	task-narratives/Narrative4Situation9.txt
295.352	2.218	rating_feeling	747	541	Abduction	prison	Text	n/a
295.852	1.718	feeling_mouse_trajectory	747	541	Abduction	prison	Text	n/a
299.369	2.793	rating_expectation	1087	575	Abduction	prison	Text	n/a
299.403	2.76	expectation_mouse_trajectory	1087	575	Abduction	prison	Text	n/a
309.437	32.165	narrative_presentation	n/a	n/a	Slaying of kin unrecognized	town	Text	task-narratives/Narrative3Situation1.txt
341.602	1.377	rating_feeling	747	541	Slaying of kin unrecognized	town	Text	n/a
342.152	0.827	feeling_mouse_trajectory	747	541	Slaying of kin unrecognized	town	Text	n/a
345.619	1.476	rating_expectation	1087	575	Slaying of kin unrecognized	town	Text	n/a
345.936	1.159	expectation_mouse_trajectory	1087	575	Slaying of kin unrecognized	town	Text	n/a
353.687	17.094	narrative_presentation	n/a	n/a	Erroneous judgement	town	Text	task-narratives/Narrative3Situation2.txt
370.781	2.284	rating_feeling	747	541	Erroneous judgement	town	Text	n/a
372.181	0.884	feeling_mouse_trajectory	747	541	Erroneous judgement	town	Text	n/a
374.797	1.701	rating_expectation	1087	575	Erroneous judgement	town	Text	n/a
375.264	1.234	expectation_mouse_trajectory	1087	575	Erroneous judgement	town	Text	n/a
380.864	10.391	narrative_presentation	n/a	n/a	Revolt	town	Text	task-narratives/Narrative3Situation3.txt
391.255	1.925	rating_feeling	747	541	Revolt	town	Text	n/a
391.705	1.475	feeling_mouse_trajectory	747	541	Revolt	town	Text	n/a
395.272	3.207	rating_expectation	1087	575	Revolt	town	Text	n/a
396.572	1.907	expectation_mouse_trajectory	1087	575	Revolt	town	Text	n/a
400.338	28.147	narrative_presentation	n/a	n/a	The enigma	city	Text	task-narratives/Narrative3Situation4.txt
428.485	2.785	rating_feeling	747	541	The enigma	city	Text	n/a
429.652	1.618	feeling_mouse_trajectory	747	541	The enigma	city	Text	n/a
432.502	2.443	rating_expectation	1087	575	The enigma	city	Text	n/a
433.469	1.477	expectation_mouse_trajectory	1087	575	The enigma	city	Text	n/a
439.569	15.077	narrative_presentation	n/a	n/a	Deliverance	city	Text	task-narratives/Narrative3Situation5.txt
454.647	1.218	rating_feeling	747	541	Deliverance	city	Text	n/a
455.113	0.752	feeling_mouse_trajectory	747	541	Deliverance	city	Text	n/a
458.662	1.184	rating_expectation	1087	575	Deliverance	city	Text	n/a
458.912	0.934	expectation_mouse_trajectory	1087	575	Deliverance	city	Text	n/a
465.729	15.076	narrative_presentation	n/a	n/a	Remorse	city	Text	task-narratives/Narrative3Situation6.txt
480.805	1.359	rating_feeling	747	541	Remorse	city	Text	n/a
481.271	0.892	feeling_mouse_trajectory	747	541	Remorse	city	Text	n/a
484.822	1.424	rating_expectation	1087	575	Remorse	city	Text	n/a
485.206	1.041	expectation_mouse_trajectory	1087	575	Remorse	city	Text	n/a
492.889	36.85	narrative_presentation	n/a	n/a	Loss of loved one	forest	Text	task-narratives/Narrative3Situation7.txt
529.739	1.824	rating_feeling	747	541	Loss of loved one	forest	Text	n/a
530.106	1.457	feeling_mouse_trajectory	747	541	Loss of loved one	forest	Text	n/a
533.762	0.989	rating_expectation	1087	575	Loss of loved one	forest	Text	n/a
533.846	0.906	expectation_mouse_trajectory	1087	575	Loss of loved one	forest	Text	n/a
539.857	9.707	narrative_presentation	n/a	n/a	All sacrificed for passion	forest	Text	task-narratives/Narrative3Situation8.txt
549.564	1.486	rating_feeling	747	541	All sacrificed for passion	forest	Text	n/a
550.114	0.936	feeling_mouse_trajectory	747	541	All sacrificed for passion	forest	Text	n/a
553.581	0.934	rating_expectation	1087	575	All sacrificed for passion	forest	Text	n/a
553.897	0.617	expectation_mouse_trajectory	1087	575	All sacrificed for passion	forest	Text	n/a
558.647	27.483	narrative_presentation	n/a	n/a	Discovery of dishonour of loved one	forest	Text	task-narratives/Narrative3Situation9.txt
586.131	1.669	rating_feeling	747	541	Discovery of dishonour of loved one	forest	Text	n/a
586.731	1.069	feeling_mouse_trajectory	747	541	Discovery of dishonour of loved one	forest	Text	n/a
590.146	0.918	rating_expectation	1087	575	Discovery of dishonour of loved one	forest	Text	n/a
590.429	0.635	expectation_mouse_trajectory	1087	575	Discovery of dishonour of loved one	forest	Text	n/a
