onset	duration	trial_type	response_value	stim_file
2.775	211.373	video	n/a	task-alignvideo/ses-03_run-01_order-01_content-mountainbike.mp4
218.733	n/a	rating_relevance	n/a	task-alignvideo/ses-03_run-01_order-01_content-mountainbike.mp4
223.768	n/a	rating_happy	n/a	task-alignvideo/ses-03_run-01_order-01_content-mountainbike.mp4
228.803	n/a	rating_sad	n/a	task-alignvideo/ses-03_run-01_order-01_content-mountainbike.mp4
233.822	n/a	rating_afraid	n/a	task-alignvideo/ses-03_run-01_order-01_content-mountainbike.mp4
238.84	n/a	rating_disgusted	n/a	task-alignvideo/ses-03_run-01_order-01_content-mountainbike.mp4
243.875	n/a	rating_warm	n/a	task-alignvideo/ses-03_run-01_order-01_content-mountainbike.mp4
248.911	n/a	rating_engaged	n/a	task-alignvideo/ses-03_run-01_order-01_content-mountainbike.mp4
249.51	20.942	video	n/a	task-alignvideo/ses-03_run-01_order-02_content-carflood.mp4
275.004	n/a	rating_relevance	n/a	task-alignvideo/ses-03_run-01_order-02_content-carflood.mp4
280.022	n/a	rating_happy	n/a	task-alignvideo/ses-03_run-01_order-02_content-carflood.mp4
285.041	n/a	rating_sad	n/a	task-alignvideo/ses-03_run-01_order-02_content-carflood.mp4
290.059	n/a	rating_afraid	n/a	task-alignvideo/ses-03_run-01_order-02_content-carflood.mp4
295.078	n/a	rating_disgusted	n/a	task-alignvideo/ses-03_run-01_order-02_content-carflood.mp4
300.096	n/a	rating_warm	n/a	task-alignvideo/ses-03_run-01_order-02_content-carflood.mp4
305.115	n/a	rating_engaged	n/a	task-alignvideo/ses-03_run-01_order-02_content-carflood.mp4
305.672	30.146	video	n/a	task-alignvideo/ses-03_run-01_order-03_content-fireplace.mp4
340.361	n/a	rating_relevance	n/a	task-alignvideo/ses-03_run-01_order-03_content-fireplace.mp4
345.397	n/a	rating_happy	n/a	task-alignvideo/ses-03_run-01_order-03_content-fireplace.mp4
350.432	n/a	rating_sad	n/a	task-alignvideo/ses-03_run-01_order-03_content-fireplace.mp4
355.467	n/a	rating_afraid	n/a	task-alignvideo/ses-03_run-01_order-03_content-fireplace.mp4
360.486	n/a	rating_disgusted	n/a	task-alignvideo/ses-03_run-01_order-03_content-fireplace.mp4
365.504	n/a	rating_warm	n/a	task-alignvideo/ses-03_run-01_order-03_content-fireplace.mp4
370.523	n/a	rating_engaged	n/a	task-alignvideo/ses-03_run-01_order-03_content-fireplace.mp4
371.069	123.299	video	n/a	task-alignvideo/ses-03_run-01_order-04_content-snakes.mp4
498.921	n/a	rating_relevance	n/a	task-alignvideo/ses-03_run-01_order-04_content-snakes.mp4
503.939	n/a	rating_happy	n/a	task-alignvideo/ses-03_run-01_order-04_content-snakes.mp4
508.958	n/a	rating_sad	n/a	task-alignvideo/ses-03_run-01_order-04_content-snakes.mp4
513.976	n/a	rating_afraid	n/a	task-alignvideo/ses-03_run-01_order-04_content-snakes.mp4
518.995	n/a	rating_disgusted	n/a	task-alignvideo/ses-03_run-01_order-04_content-snakes.mp4
524.013	n/a	rating_warm	n/a	task-alignvideo/ses-03_run-01_order-04_content-snakes.mp4
529.032	n/a	rating_engaged	n/a	task-alignvideo/ses-03_run-01_order-04_content-snakes.mp4
