onset	duration	run_type	trial_type	trial_index	cue	stimulusintensity	rating_value	rating_glmslabel	rating_value_fillna	rating_glmslabel_fillna	rating_mouseonset	rating_mousedur	stim_file_TODO	pain_onset_ttl1	pain_onset_ttl2	pain_onset_ttl3	pain_onset_ttl4	pain_stimulus_delivery_success	cognitive_correct_response	cognitive_participant_response	cognitive_response_accuracy
10.98	0.99	cognitive	cue	1	low_cue	n/a	n/a	n/a	n/a	n/a	n/a	n/a	task-social/cue/runtype-cognitive/scl/l053.png	n/a	n/a	n/a	n/a	n/a	n/a	n/a	n/a
14.3	1.38	cognitive	expectrating	1	low_cue	n/a	20.39	Moderate	20.39	Moderate	0.05	1.33	task-social/cue/runtype-cognitive/scl/l053.png	n/a	n/a	n/a	n/a	n/a	n/a	n/a	n/a
32.49	5.0	cognitive	stimulus	1	low_cue	med_stim	n/a	n/a	n/a	n/a	n/a	n/a	task-social/stim/runtype-cognitive/43_100.jpg	n/a	n/a	n/a	n/a	n/a	same	diff	False
45.3	2.59	cognitive	outcomerating	1	low_cue	med_stim	66.01	Very Strong	66.01	Very Strong	0.05	1.33	task-social/outcomerating/task-cognitive_scale.png	n/a	n/a	n/a	n/a	n/a	n/a	n/a	n/a
51.48	0.99	cognitive	cue	2	low_cue	n/a	n/a	n/a	n/a	n/a	n/a	n/a	task-social/cue/runtype-cognitive/scl/l037.png	n/a	n/a	n/a	n/a	n/a	n/a	n/a	n/a
53.7	1.77	cognitive	expectrating	2	low_cue	n/a	12.4	Moderate	12.4	Moderate	0.73	1.03	task-social/cue/runtype-cognitive/scl/l037.png	n/a	n/a	n/a	n/a	n/a	n/a	n/a	n/a
62.39	5.0	cognitive	stimulus	2	low_cue	high_stim	n/a	n/a	n/a	n/a	n/a	n/a	task-social/stim/runtype-cognitive/18_150.jpg	n/a	n/a	n/a	n/a	n/a	same	same	True
75.19	1.52	cognitive	outcomerating	2	low_cue	high_stim	16.04	Moderate	16.04	Moderate	0.73	1.03	task-social/outcomerating/task-cognitive_scale.png	n/a	n/a	n/a	n/a	n/a	n/a	n/a	n/a
82.99	0.98	cognitive	cue	3	high_cue	n/a	n/a	n/a	n/a	n/a	n/a	n/a	task-social/cue/runtype-cognitive/sch/h015.png	n/a	n/a	n/a	n/a	n/a	n/a	n/a	n/a
85.8	1.54	cognitive	expectrating	3	high_cue	n/a	14.48	Moderate	14.48	Moderate	0.35	1.19	task-social/cue/runtype-cognitive/sch/h015.png	n/a	n/a	n/a	n/a	n/a	n/a	n/a	n/a
92.5	5.0	cognitive	stimulus	3	high_cue	low_stim	n/a	n/a	n/a	n/a	n/a	n/a	task-social/stim/runtype-cognitive/35_50.jpg	n/a	n/a	n/a	n/a	n/a	same	diff	False
100.38	3.02	cognitive	outcomerating	3	high_cue	low_stim	93.22	Very Strong	93.22	Very Strong	0.35	1.19	task-social/outcomerating/task-cognitive_scale.png	n/a	n/a	n/a	n/a	n/a	n/a	n/a	n/a
117.19	0.99	cognitive	cue	4	high_cue	n/a	n/a	n/a	n/a	n/a	n/a	n/a	task-social/cue/runtype-cognitive/sch/h050.png	n/a	n/a	n/a	n/a	n/a	n/a	n/a	n/a
119.29	1.91	cognitive	expectrating	4	high_cue	n/a	99.04	Strongest sensation of any kind	99.04	Strongest sensation of any kind	0.05	1.86	task-social/cue/runtype-cognitive/sch/h050.png	n/a	n/a	n/a	n/a	n/a	n/a	n/a	n/a
132.8	5.0	cognitive	stimulus	4	high_cue	med_stim	n/a	n/a	n/a	n/a	n/a	n/a	task-social/stim/runtype-cognitive/5_100.jpg	n/a	n/a	n/a	n/a	n/a	same	diff	False
145.58	3.2	cognitive	outcomerating	4	high_cue	med_stim	97.13	Very Strong	97.13	Very Strong	0.05	1.86	task-social/outcomerating/task-cognitive_scale.png	n/a	n/a	n/a	n/a	n/a	n/a	n/a	n/a
150.49	0.99	cognitive	cue	5	high_cue	n/a	n/a	n/a	n/a	n/a	n/a	n/a	task-social/cue/runtype-cognitive/sch/h009.png	n/a	n/a	n/a	n/a	n/a	n/a	n/a	n/a
152.69	3.18	cognitive	expectrating	5	high_cue	n/a	79.82	Very Strong	79.82	Very Strong	1.07	2.12	task-social/cue/runtype-cognitive/sch/h009.png	n/a	n/a	n/a	n/a	n/a	n/a	n/a	n/a
170.89	5.0	cognitive	stimulus	5	high_cue	high_stim	n/a	n/a	n/a	n/a	n/a	n/a	task-social/stim/runtype-cognitive/11_150_R.jpg	n/a	n/a	n/a	n/a	n/a	diff	same	False
179.6	2.83	cognitive	outcomerating	5	high_cue	high_stim	34.15	Strong	34.15	Strong	1.07	2.12	task-social/outcomerating/task-cognitive_scale.png	n/a	n/a	n/a	n/a	n/a	n/a	n/a	n/a
185.08	0.99	cognitive	cue	6	low_cue	n/a	n/a	n/a	n/a	n/a	n/a	n/a	task-social/cue/runtype-cognitive/scl/l012.png	n/a	n/a	n/a	n/a	n/a	n/a	n/a	n/a
187.1	1.32	cognitive	expectrating	6	low_cue	n/a	25.82	Moderate	25.82	Moderate	0.05	1.27	task-social/cue/runtype-cognitive/scl/l012.png	n/a	n/a	n/a	n/a	n/a	n/a	n/a	n/a
195.59	5.0	cognitive	stimulus	6	low_cue	high_stim	n/a	n/a	n/a	n/a	n/a	n/a	task-social/stim/runtype-cognitive/29_150_R.jpg	n/a	n/a	n/a	n/a	n/a	diff	diff	True
204.29	2.54	cognitive	outcomerating	6	low_cue	high_stim	69.01	Very Strong	69.01	Very Strong	0.05	1.27	task-social/outcomerating/task-cognitive_scale.png	n/a	n/a	n/a	n/a	n/a	n/a	n/a	n/a
213.19	0.98	cognitive	cue	7	low_cue	n/a	n/a	n/a	n/a	n/a	n/a	n/a	task-social/cue/runtype-cognitive/scl/l046.png	n/a	n/a	n/a	n/a	n/a	n/a	n/a	n/a
216.49	1.89	cognitive	expectrating	7	low_cue	n/a	34.9	Strong	34.9	Strong	0.27	1.62	task-social/cue/runtype-cognitive/scl/l046.png	n/a	n/a	n/a	n/a	n/a	n/a	n/a	n/a
225.0	5.0	cognitive	stimulus	7	low_cue	low_stim	n/a	n/a	n/a	n/a	n/a	n/a	task-social/stim/runtype-cognitive/44_50_R.jpg	n/a	n/a	n/a	n/a	n/a	diff	diff	True
238.09	2.07	cognitive	outcomerating	7	low_cue	low_stim	34.65	Strong	34.65	Strong	0.27	1.62	task-social/outcomerating/task-cognitive_scale.png	n/a	n/a	n/a	n/a	n/a	n/a	n/a	n/a
244.29	0.99	cognitive	cue	8	high_cue	n/a	n/a	n/a	n/a	n/a	n/a	n/a	task-social/cue/runtype-cognitive/sch/h032.png	n/a	n/a	n/a	n/a	n/a	n/a	n/a	n/a
247.29	1.71	cognitive	expectrating	8	high_cue	n/a	75.96	Very Strong	75.96	Very Strong	0.13	1.58	task-social/cue/runtype-cognitive/sch/h032.png	n/a	n/a	n/a	n/a	n/a	n/a	n/a	n/a
253.99	5.0	cognitive	stimulus	8	high_cue	high_stim	n/a	n/a	n/a	n/a	n/a	n/a	task-social/stim/runtype-cognitive/47_150_R.jpg	n/a	n/a	n/a	n/a	n/a	diff	diff	True
263.0	n/a	cognitive	outcomerating	8	high_cue	high_stim	n/a	n/a	73.74	Very Strong	0.13	1.58	task-social/outcomerating/task-cognitive_scale.png	n/a	n/a	n/a	n/a	n/a	n/a	n/a	n/a
270.38	1.0	cognitive	cue	9	high_cue	n/a	n/a	n/a	n/a	n/a	n/a	n/a	task-social/cue/runtype-cognitive/sch/h011.png	n/a	n/a	n/a	n/a	n/a	n/a	n/a	n/a
272.4	2.15	cognitive	expectrating	9	high_cue	n/a	59.12	Strong	59.12	Strong	0.63	1.52	task-social/cue/runtype-cognitive/sch/h011.png	n/a	n/a	n/a	n/a	n/a	n/a	n/a	n/a
281.69	5.0	cognitive	stimulus	9	high_cue	low_stim	n/a	n/a	n/a	n/a	n/a	n/a	task-social/stim/runtype-cognitive/44_50.jpg	n/a	n/a	n/a	n/a	n/a	same	same	True
298.59	3.03	cognitive	outcomerating	9	high_cue	low_stim	67.45	Very Strong	67.45	Very Strong	0.63	1.52	task-social/outcomerating/task-cognitive_scale.png	n/a	n/a	n/a	n/a	n/a	n/a	n/a	n/a
304.09	0.98	cognitive	cue	10	low_cue	n/a	n/a	n/a	n/a	n/a	n/a	n/a	task-social/cue/runtype-cognitive/scl/l050.png	n/a	n/a	n/a	n/a	n/a	n/a	n/a	n/a
306.29	1.67	cognitive	expectrating	10	low_cue	n/a	29.23	Strong	29.23	Strong	0.05	1.62	task-social/cue/runtype-cognitive/scl/l050.png	n/a	n/a	n/a	n/a	n/a	n/a	n/a	n/a
313.6	5.0	cognitive	stimulus	10	low_cue	med_stim	n/a	n/a	n/a	n/a	n/a	n/a	task-social/stim/runtype-cognitive/44_100_R.jpg	n/a	n/a	n/a	n/a	n/a	diff	diff	True
329.79	2.4	cognitive	outcomerating	10	low_cue	med_stim	49.9	Strong	49.9	Strong	0.05	1.62	task-social/outcomerating/task-cognitive_scale.png	n/a	n/a	n/a	n/a	n/a	n/a	n/a	n/a
338.09	0.99	cognitive	cue	11	low_cue	n/a	n/a	n/a	n/a	n/a	n/a	n/a	task-social/cue/runtype-cognitive/scl/l021.png	n/a	n/a	n/a	n/a	n/a	n/a	n/a	n/a
340.29	3.76	cognitive	expectrating	11	low_cue	n/a	19.53	Moderate	19.53	Moderate	0.82	2.94	task-social/cue/runtype-cognitive/scl/l021.png	n/a	n/a	n/a	n/a	n/a	n/a	n/a	n/a
352.2	5.0	cognitive	stimulus	11	low_cue	low_stim	n/a	n/a	n/a	n/a	n/a	n/a	task-social/stim/runtype-cognitive/29_50_R.jpg	n/a	n/a	n/a	n/a	n/a	diff	same	False
363.9	2.95	cognitive	outcomerating	11	low_cue	low_stim	73.96	Very Strong	73.96	Very Strong	0.82	2.94	task-social/outcomerating/task-cognitive_scale.png	n/a	n/a	n/a	n/a	n/a	n/a	n/a	n/a
376.09	0.99	cognitive	cue	12	high_cue	n/a	n/a	n/a	n/a	n/a	n/a	n/a	task-social/cue/runtype-cognitive/sch/h017.png	n/a	n/a	n/a	n/a	n/a	n/a	n/a	n/a
378.89	1.94	cognitive	expectrating	12	high_cue	n/a	75.07	Very Strong	75.07	Very Strong	0.05	1.89	task-social/cue/runtype-cognitive/sch/h017.png	n/a	n/a	n/a	n/a	n/a	n/a	n/a	n/a
387.39	5.0	cognitive	stimulus	12	high_cue	med_stim	n/a	n/a	n/a	n/a	n/a	n/a	task-social/stim/runtype-cognitive/42_100.jpg	n/a	n/a	n/a	n/a	n/a	same	diff	False
394.99	1.85	cognitive	outcomerating	12	high_cue	med_stim	32.42	Strong	32.42	Strong	0.05	1.89	task-social/outcomerating/task-cognitive_scale.png	n/a	n/a	n/a	n/a	n/a	n/a	n/a	n/a
