onset	duration	run_type	trial_type	trial_index	cue	stimulusintensity	rating_value	rating_glmslabel	rating_value_fillna	rating_glmslabel_fillna	rating_mouseonset	rating_mousedur	stim_file	pain_onset_ttl1	pain_onset_ttl2	pain_onset_ttl3	pain_onset_ttl4	pain_stimulus_delivery_success	cognitive_correct_response	cognitive_participant_response	cognitive_response_accuracy
4.98	1.0	pain	cue	1	high_cue	n/a	n/a	n/a	n/a	n/a	n/a	n/a	task-social/cue/runtype-pain/sch/h045.png	n/a	n/a	n/a	n/a	n/a	n/a	n/a	n/a
7.2	2.36	pain	expectrating	1	high_cue	n/a	59.36	Strong	59.36	Strong	0.92	1.44	task-social/cue/runtype-pain/sch/h045.png	n/a	n/a	n/a	n/a	n/a	n/a	n/a	n/a
17.28	11.899999999999999	pain	stimulus	1	high_cue	low_stim	n/a	n/a	n/a	n/a	n/a	n/a	n/a	17.28	20.78	25.78	29.18	success	n/a	n/a	n/a
27.39	3.82	pain	outcomerating	1	high_cue	low_stim	44.83	Strong	44.83	Strong	1.7	2.12	task-social/outcomerating/task-pain_scale.png	n/a	n/a	n/a	n/a	success	n/a	n/a	n/a
39.59	1.0	pain	cue	2	high_cue	n/a	n/a	n/a	n/a	n/a	n/a	n/a	task-social/cue/runtype-pain/sch/h035.png	n/a	n/a	n/a	n/a	n/a	n/a	n/a	n/a
42.8	1.47	pain	expectrating	2	high_cue	n/a	74.56	Very Strong	74.56	Very Strong	0.37	1.1	task-social/cue/runtype-pain/sch/h035.png	n/a	n/a	n/a	n/a	n/a	n/a	n/a	n/a
48.53	11.899999999999999	pain	stimulus	2	high_cue	low_stim	n/a	n/a	n/a	n/a	n/a	n/a	n/a	48.53	52.03	57.03	60.43	success	n/a	n/a	n/a
61.79	2.12	pain	outcomerating	2	high_cue	low_stim	72.08	Very Strong	72.08	Very Strong	0.35	1.77	task-social/outcomerating/task-pain_scale.png	n/a	n/a	n/a	n/a	success	n/a	n/a	n/a
72.49	1.0	pain	cue	3	high_cue	n/a	n/a	n/a	n/a	n/a	n/a	n/a	task-social/cue/runtype-pain/sch/h052.png	n/a	n/a	n/a	n/a	n/a	n/a	n/a	n/a
74.49	3.83	pain	expectrating	3	high_cue	n/a	85.24	Very Strong	85.24	Very Strong	1.18	2.65	task-social/cue/runtype-pain/sch/h052.png	n/a	n/a	n/a	n/a	n/a	n/a	n/a	n/a
80.24	12.36	pain	stimulus	3	high_cue	med_stim	n/a	n/a	n/a	n/a	n/a	n/a	n/a	80.24	84.0	89.0	92.61	success	n/a	n/a	n/a
93.1	3.1	pain	outcomerating	3	high_cue	med_stim	85.87	Very Strong	85.87	Very Strong	0.05	3.05	task-social/outcomerating/task-pain_scale.png	n/a	n/a	n/a	n/a	success	n/a	n/a	n/a
105.29	1.0	pain	cue	4	low_cue	n/a	n/a	n/a	n/a	n/a	n/a	n/a	task-social/cue/runtype-pain/scl/l046.png	n/a	n/a	n/a	n/a	n/a	n/a	n/a	n/a
107.29	n/a	pain	expectrating	4	low_cue	n/a	n/a	n/a	13.07	Moderate	1.57	3.82	task-social/cue/runtype-pain/scl/l046.png	n/a	n/a	n/a	n/a	n/a	n/a	n/a	n/a
113.01	12.36999999999999	pain	stimulus	4	low_cue	med_stim	n/a	n/a	n/a	n/a	n/a	n/a	n/a	113.01	116.77	121.77	125.38	success	n/a	n/a	n/a
123.19	n/a	pain	outcomerating	4	low_cue	med_stim	n/a	n/a	53.18	Strong	1.0	2.83	task-social/outcomerating/task-pain_scale.png	n/a	n/a	n/a	n/a	success	n/a	n/a	n/a
129.39	0.98	pain	cue	5	high_cue	n/a	n/a	n/a	n/a	n/a	n/a	n/a	task-social/cue/runtype-pain/sch/h007.png	n/a	n/a	n/a	n/a	n/a	n/a	n/a	n/a
133.3	1.73	pain	expectrating	5	high_cue	n/a	80.85	Very Strong	80.85	Very Strong	0.6	1.13	task-social/cue/runtype-pain/sch/h007.png	n/a	n/a	n/a	n/a	n/a	n/a	n/a	n/a
148.9	12.829999999999984	pain	stimulus	5	high_cue	high_stim	n/a	n/a	n/a	n/a	n/a	n/a	n/a	148.9	152.91	157.91	161.72	success	n/a	n/a	n/a
163.09	2.83	pain	outcomerating	5	high_cue	high_stim	81.41	Very Strong	81.41	Very Strong	0.87	1.97	task-social/outcomerating/task-pain_scale.png	n/a	n/a	n/a	n/a	success	n/a	n/a	n/a
167.89	1.0	pain	cue	6	low_cue	n/a	n/a	n/a	n/a	n/a	n/a	n/a	task-social/cue/runtype-pain/scl/l016.png	n/a	n/a	n/a	n/a	n/a	n/a	n/a	n/a
171.09	n/a	pain	expectrating	6	low_cue	n/a	n/a	n/a	29.8	Strong	0.22	3.93	task-social/cue/runtype-pain/scl/l016.png	n/a	n/a	n/a	n/a	n/a	n/a	n/a	n/a
180.31	12.829999999999984	pain	stimulus	6	low_cue	high_stim	n/a	n/a	n/a	n/a	n/a	n/a	n/a	180.31	184.32	189.32	193.13	success	n/a	n/a	n/a
191.08	2.94	pain	outcomerating	6	low_cue	high_stim	76.92	Very Strong	76.92	Very Strong	0.65	2.29	task-social/outcomerating/task-pain_scale.png	n/a	n/a	n/a	n/a	success	n/a	n/a	n/a
200.49	1.0	pain	cue	7	high_cue	n/a	n/a	n/a	n/a	n/a	n/a	n/a	task-social/cue/runtype-pain/sch/h039.png	n/a	n/a	n/a	n/a	n/a	n/a	n/a	n/a
202.49	2.22	pain	expectrating	7	high_cue	n/a	93.91	Very Strong	93.91	Very Strong	0.07	2.15	task-social/cue/runtype-pain/sch/h039.png	n/a	n/a	n/a	n/a	n/a	n/a	n/a	n/a
212.94	12.819999999999993	pain	stimulus	7	high_cue	high_stim	n/a	n/a	n/a	n/a	n/a	n/a	n/a	212.94	216.95	221.95	225.76	success	n/a	n/a	n/a
226.7	2.83	pain	outcomerating	7	high_cue	high_stim	76.3	Very Strong	76.3	Very Strong	0.88	1.95	task-social/outcomerating/task-pain_scale.png	n/a	n/a	n/a	n/a	success	n/a	n/a	n/a
236.99	1.0	pain	cue	8	high_cue	n/a	n/a	n/a	n/a	n/a	n/a	n/a	task-social/cue/runtype-pain/sch/h046.png	n/a	n/a	n/a	n/a	n/a	n/a	n/a	n/a
240.19	1.71	pain	expectrating	8	high_cue	n/a	84.41	Very Strong	84.41	Very Strong	0.83	0.87	task-social/cue/runtype-pain/sch/h046.png	n/a	n/a	n/a	n/a	n/a	n/a	n/a	n/a
249.42	12.359999999999985	pain	stimulus	8	high_cue	med_stim	n/a	n/a	n/a	n/a	n/a	n/a	n/a	249.42	253.18	258.18	261.79	success	n/a	n/a	n/a
262.69	2.27	pain	outcomerating	8	high_cue	med_stim	79.37	Very Strong	79.37	Very Strong	0.42	1.85	task-social/outcomerating/task-pain_scale.png	n/a	n/a	n/a	n/a	success	n/a	n/a	n/a
268.48	1.0	pain	cue	9	low_cue	n/a	n/a	n/a	n/a	n/a	n/a	n/a	task-social/cue/runtype-pain/scl/l041.png	n/a	n/a	n/a	n/a	n/a	n/a	n/a	n/a
271.7	2.18	pain	expectrating	9	low_cue	n/a	1.89	Barely detectable	1.89	Barely detectable	0.08	2.1	task-social/cue/runtype-pain/scl/l041.png	n/a	n/a	n/a	n/a	n/a	n/a	n/a	n/a
278.74	11.899999999999977	pain	stimulus	9	low_cue	low_stim	n/a	n/a	n/a	n/a	n/a	n/a	n/a	278.74	282.24	287.24	290.64	success	n/a	n/a	n/a
288.89	2.75	pain	outcomerating	9	low_cue	low_stim	51.66	Strong	51.66	Strong	0.88	1.87	task-social/outcomerating/task-pain_scale.png	n/a	n/a	n/a	n/a	success	n/a	n/a	n/a
296.39	1.0	pain	cue	10	low_cue	n/a	n/a	n/a	n/a	n/a	n/a	n/a	task-social/cue/runtype-pain/scl/l021.png	n/a	n/a	n/a	n/a	n/a	n/a	n/a	n/a
298.29	2.0	pain	expectrating	10	low_cue	n/a	50.05	Strong	50.05	Strong	0.17	1.83	task-social/cue/runtype-pain/scl/l021.png	n/a	n/a	n/a	n/a	n/a	n/a	n/a	n/a
306.7	12.819999999999993	pain	stimulus	10	low_cue	high_stim	n/a	n/a	n/a	n/a	n/a	n/a	n/a	306.7	310.71	315.71	319.52	success	n/a	n/a	n/a
319.98	3.08	pain	outcomerating	10	low_cue	high_stim	46.95	Strong	46.95	Strong	0.18	2.89	task-social/outcomerating/task-pain_scale.png	n/a	n/a	n/a	n/a	success	n/a	n/a	n/a
330.69	1.0	pain	cue	11	low_cue	n/a	n/a	n/a	n/a	n/a	n/a	n/a	task-social/cue/runtype-pain/scl/l024.png	n/a	n/a	n/a	n/a	n/a	n/a	n/a	n/a
332.39	2.52	pain	expectrating	11	low_cue	n/a	24.79	Moderate	24.79	Moderate	0.8	1.72	task-social/cue/runtype-pain/scl/l024.png	n/a	n/a	n/a	n/a	n/a	n/a	n/a	n/a
340.01	11.910000000000025	pain	stimulus	11	low_cue	low_stim	n/a	n/a	n/a	n/a	n/a	n/a	n/a	340.01	343.51	348.51	351.91	success	n/a	n/a	n/a
365.78	2.16	pain	outcomerating	11	low_cue	low_stim	23.89	Moderate	23.89	Moderate	1.08	1.08	task-social/outcomerating/task-pain_scale.png	n/a	n/a	n/a	n/a	success	n/a	n/a	n/a
371.99	1.0	pain	cue	12	low_cue	n/a	n/a	n/a	n/a	n/a	n/a	n/a	task-social/cue/runtype-pain/scl/l049.png	n/a	n/a	n/a	n/a	n/a	n/a	n/a	n/a
373.59	1.66	pain	expectrating	12	low_cue	n/a	49.42	Strong	49.42	Strong	0.05	1.61	task-social/cue/runtype-pain/scl/l049.png	n/a	n/a	n/a	n/a	n/a	n/a	n/a	n/a
381.22	12.369999999999948	pain	stimulus	12	low_cue	med_stim	n/a	n/a	n/a	n/a	n/a	n/a	n/a	381.22	384.98	389.98	393.59	success	n/a	n/a	n/a
395.19	2.52	pain	outcomerating	12	low_cue	med_stim	34.07	Strong	34.07	Strong	0.82	1.7	task-social/outcomerating/task-pain_scale.png	n/a	n/a	n/a	n/a	success	n/a	n/a	n/a
