onset	duration	run_type	trial_type	trial_index	cue	stimulusintensity	rating_value	rating_glmslabel	rating_value_fillna	rating_glmslabel_fillna	rating_mouseonset	rating_mousedur	stim_file	pain_onset_ttl1	pain_onset_ttl2	pain_onset_ttl3	pain_onset_ttl4	pain_stimulus_delivery_success	cognitive_correct_response	cognitive_participant_response	cognitive_response_accuracy
4.7	0.98	cognitive	cue	1	high_cue	n/a	n/a	n/a	n/a	n/a	n/a	n/a	n/a	n/a	n/a	n/a	n/a	n/a	n/a	n/a	n/a
7.12	1.52	cognitive	expectrating	1	high_cue	n/a	50.55	Strong	50.55	Strong	0.4	1.12	task-social/cue/runtype-cognitive/sch/h049.png	n/a	n/a	n/a	n/a	n/a	n/a	n/a	n/a
21.91	5.0	cognitive	stimulus	1	high_cue	low_stim	n/a	n/a	n/a	n/a	n/a	n/a	task-social/stim/runtype-cognitive/27_50_R.jpg	n/a	n/a	n/a	n/a	n/a	diff	same	False
31.3	n/a	cognitive	outcomerating	1	high_cue	low_stim	n/a	n/a	48.9	Strong	1.73	2.18	task-social/outcomerating/task-cognitive_scale.png	n/a	n/a	n/a	n/a	n/a	n/a	n/a	n/a
37.2	0.98	cognitive	cue	2	low_cue	n/a	n/a	n/a	n/a	n/a	n/a	n/a	n/a	n/a	n/a	n/a	n/a	n/a	n/a	n/a	n/a
39.0	1.02	cognitive	expectrating	2	low_cue	n/a	35.67	Strong	35.67	Strong	0.05	0.97	task-social/cue/runtype-cognitive/scl/l004.png	n/a	n/a	n/a	n/a	n/a	n/a	n/a	n/a
46.1	5.0	cognitive	stimulus	2	low_cue	low_stim	n/a	n/a	n/a	n/a	n/a	n/a	task-social/stim/runtype-cognitive/18_50.jpg	n/a	n/a	n/a	n/a	n/a	same	same	True
57.31	2.72	cognitive	outcomerating	2	low_cue	low_stim	47.96	Strong	47.96	Strong	0.6	2.12	task-social/outcomerating/task-cognitive_scale.png	n/a	n/a	n/a	n/a	n/a	n/a	n/a	n/a
62.19	0.99	cognitive	cue	3	low_cue	n/a	n/a	n/a	n/a	n/a	n/a	n/a	n/a	n/a	n/a	n/a	n/a	n/a	n/a	n/a	n/a
64.29	1.77	cognitive	expectrating	3	low_cue	n/a	31.96	Strong	31.96	Strong	0.27	1.5	task-social/cue/runtype-cognitive/scl/l035.png	n/a	n/a	n/a	n/a	n/a	n/a	n/a	n/a
77.1	5.0	cognitive	stimulus	3	low_cue	med_stim	n/a	n/a	n/a	n/a	n/a	n/a	task-social/stim/runtype-cognitive/42_100_R.jpg	n/a	n/a	n/a	n/a	n/a	diff	n/a	False
86.7	3.98	cognitive	outcomerating	3	low_cue	med_stim	45.33	Strong	45.33	Strong	0.3	3.68	task-social/outcomerating/task-cognitive_scale.png	n/a	n/a	n/a	n/a	n/a	n/a	n/a	n/a
91.8	0.98	cognitive	cue	4	low_cue	n/a	n/a	n/a	n/a	n/a	n/a	n/a	n/a	n/a	n/a	n/a	n/a	n/a	n/a	n/a	n/a
94.9	1.74	cognitive	expectrating	4	low_cue	n/a	10.22	Moderate	10.22	Moderate	0.4	1.34	task-social/cue/runtype-cognitive/scl/l001.png	n/a	n/a	n/a	n/a	n/a	n/a	n/a	n/a
106.09	5.0	cognitive	stimulus	4	low_cue	high_stim	n/a	n/a	n/a	n/a	n/a	n/a	task-social/stim/runtype-cognitive/42_150_R.jpg	n/a	n/a	n/a	n/a	n/a	diff	n/a	False
115.4	1.92	cognitive	outcomerating	4	low_cue	high_stim	55.21	Strong	55.21	Strong	0.53	1.38	task-social/outcomerating/task-cognitive_scale.png	n/a	n/a	n/a	n/a	n/a	n/a	n/a	n/a
120.1	0.99	cognitive	cue	5	high_cue	n/a	n/a	n/a	n/a	n/a	n/a	n/a	n/a	n/a	n/a	n/a	n/a	n/a	n/a	n/a	n/a
122.51	1.72	cognitive	expectrating	5	high_cue	n/a	70.57	Very Strong	70.57	Very Strong	0.05	1.67	task-social/cue/runtype-cognitive/sch/h053.png	n/a	n/a	n/a	n/a	n/a	n/a	n/a	n/a
134.1	5.0	cognitive	stimulus	5	high_cue	med_stim	n/a	n/a	n/a	n/a	n/a	n/a	task-social/stim/runtype-cognitive/11_100_R.jpg	n/a	n/a	n/a	n/a	n/a	diff	n/a	False
144.71	2.6	cognitive	outcomerating	5	high_cue	med_stim	29.55	Strong	29.55	Strong	0.72	1.89	task-social/outcomerating/task-cognitive_scale.png	n/a	n/a	n/a	n/a	n/a	n/a	n/a	n/a
149.29	0.99	cognitive	cue	6	high_cue	n/a	n/a	n/a	n/a	n/a	n/a	n/a	n/a	n/a	n/a	n/a	n/a	n/a	n/a	n/a	n/a
151.39	1.6	cognitive	expectrating	6	high_cue	n/a	61.79	Strong	61.79	Strong	0.6	1.0	task-social/cue/runtype-cognitive/sch/h002.png	n/a	n/a	n/a	n/a	n/a	n/a	n/a	n/a
162.9	5.0	cognitive	stimulus	6	high_cue	high_stim	n/a	n/a	n/a	n/a	n/a	n/a	task-social/stim/runtype-cognitive/35_150.jpg	n/a	n/a	n/a	n/a	n/a	same	same	True
172.6	1.6	cognitive	outcomerating	6	high_cue	high_stim	14.21	Moderate	14.21	Moderate	0.63	0.97	task-social/outcomerating/task-cognitive_scale.png	n/a	n/a	n/a	n/a	n/a	n/a	n/a	n/a
178.6	0.98	cognitive	cue	7	high_cue	n/a	n/a	n/a	n/a	n/a	n/a	n/a	n/a	n/a	n/a	n/a	n/a	n/a	n/a	n/a	n/a
180.7	1.16	cognitive	expectrating	7	high_cue	n/a	27.6	Moderate	27.6	Moderate	0.05	1.11	task-social/cue/runtype-cognitive/sch/h020.png	n/a	n/a	n/a	n/a	n/a	n/a	n/a	n/a
189.31	5.0	cognitive	stimulus	7	high_cue	low_stim	n/a	n/a	n/a	n/a	n/a	n/a	task-social/stim/runtype-cognitive/29_50.jpg	n/a	n/a	n/a	n/a	n/a	same	diff	False
207.2	2.73	cognitive	outcomerating	7	high_cue	low_stim	41.56	Strong	41.56	Strong	0.7	2.03	task-social/outcomerating/task-cognitive_scale.png	n/a	n/a	n/a	n/a	n/a	n/a	n/a	n/a
219.0	0.98	cognitive	cue	8	high_cue	n/a	n/a	n/a	n/a	n/a	n/a	n/a	n/a	n/a	n/a	n/a	n/a	n/a	n/a	n/a	n/a
221.1	2.85	cognitive	expectrating	8	high_cue	n/a	46.32	Strong	46.32	Strong	0.05	2.8	task-social/cue/runtype-cognitive/sch/h034.png	n/a	n/a	n/a	n/a	n/a	n/a	n/a	n/a
228.0	5.0	cognitive	stimulus	8	high_cue	high_stim	n/a	n/a	n/a	n/a	n/a	n/a	task-social/stim/runtype-cognitive/10_150_R.jpg	n/a	n/a	n/a	n/a	n/a	diff	diff	True
240.59	3.0	cognitive	outcomerating	8	high_cue	high_stim	20.0	Moderate	20.0	Moderate	0.37	2.64	task-social/outcomerating/task-cognitive_scale.png	n/a	n/a	n/a	n/a	n/a	n/a	n/a	n/a
245.49	0.99	cognitive	cue	9	low_cue	n/a	n/a	n/a	n/a	n/a	n/a	n/a	n/a	n/a	n/a	n/a	n/a	n/a	n/a	n/a	n/a
248.6	1.23	cognitive	expectrating	9	low_cue	n/a	20.77	Moderate	20.77	Moderate	0.3	0.93	task-social/cue/runtype-cognitive/scl/l003.png	n/a	n/a	n/a	n/a	n/a	n/a	n/a	n/a
259.2	5.0	cognitive	stimulus	9	low_cue	low_stim	n/a	n/a	n/a	n/a	n/a	n/a	task-social/stim/runtype-cognitive/42_50_R.jpg	n/a	n/a	n/a	n/a	n/a	diff	diff	True
270.5	n/a	cognitive	outcomerating	9	low_cue	low_stim	n/a	n/a	26.57	Moderate	0.05	3.65	task-social/outcomerating/task-cognitive_scale.png	n/a	n/a	n/a	n/a	n/a	n/a	n/a	n/a
276.39	0.99	cognitive	cue	10	low_cue	n/a	n/a	n/a	n/a	n/a	n/a	n/a	n/a	n/a	n/a	n/a	n/a	n/a	n/a	n/a	n/a
279.51	0.95	cognitive	expectrating	10	low_cue	n/a	16.43	Moderate	16.43	Moderate	0.13	0.82	task-social/cue/runtype-cognitive/scl/l056.png	n/a	n/a	n/a	n/a	n/a	n/a	n/a	n/a
290.79	5.0	cognitive	stimulus	10	low_cue	med_stim	n/a	n/a	n/a	n/a	n/a	n/a	task-social/stim/runtype-cognitive/11_100.jpg	n/a	n/a	n/a	n/a	n/a	same	same	True
302.0	3.44	cognitive	outcomerating	10	low_cue	med_stim	16.32	Moderate	16.32	Moderate	1.33	2.1	task-social/outcomerating/task-cognitive_scale.png	n/a	n/a	n/a	n/a	n/a	n/a	n/a	n/a
322.99	0.99	cognitive	cue	11	low_cue	n/a	n/a	n/a	n/a	n/a	n/a	n/a	n/a	n/a	n/a	n/a	n/a	n/a	n/a	n/a	n/a
325.41	1.49	cognitive	expectrating	11	low_cue	n/a	22.53	Moderate	22.53	Moderate	0.03	1.45	task-social/cue/runtype-cognitive/scl/l006.png	n/a	n/a	n/a	n/a	n/a	n/a	n/a	n/a
332.79	5.0	cognitive	stimulus	11	low_cue	high_stim	n/a	n/a	n/a	n/a	n/a	n/a	task-social/stim/runtype-cognitive/5_150_R.jpg	n/a	n/a	n/a	n/a	n/a	diff	diff	True
341.2	1.78	cognitive	outcomerating	11	low_cue	high_stim	2.3	Barely detectable	2.3	Barely detectable	0.37	1.42	task-social/outcomerating/task-cognitive_scale.png	n/a	n/a	n/a	n/a	n/a	n/a	n/a	n/a
362.29	1.0	cognitive	cue	12	high_cue	n/a	n/a	n/a	n/a	n/a	n/a	n/a	n/a	n/a	n/a	n/a	n/a	n/a	n/a	n/a	n/a
365.41	1.59	cognitive	expectrating	12	high_cue	n/a	46.78	Strong	46.78	Strong	0.05	1.54	task-social/cue/runtype-cognitive/sch/h019.png	n/a	n/a	n/a	n/a	n/a	n/a	n/a	n/a
377.49	5.0	cognitive	stimulus	12	high_cue	med_stim	n/a	n/a	n/a	n/a	n/a	n/a	task-social/stim/runtype-cognitive/27_100_R.jpg	n/a	n/a	n/a	n/a	n/a	diff	diff	True
394.1	3.67	cognitive	outcomerating	12	high_cue	med_stim	13.76	Moderate	13.76	Moderate	0.83	2.84	task-social/outcomerating/task-cognitive_scale.png	n/a	n/a	n/a	n/a	n/a	n/a	n/a	n/a
