onset	duration	run_type	trial_type	trial_index	cue	stimulusintensity	rating_value	rating_glmslabel	rating_value_fillna	rating_glmslabel_fillna	rating_mouseonset	rating_mousedur	stim_file_TODO	pain_onset_ttl1	pain_onset_ttl2	pain_onset_ttl3	pain_onset_ttl4	pain_stimulus_delivery_success	cognitive_correct_response	cognitive_participant_response	cognitive_response_accuracy
5.0	0.98	pain	cue	1	low_cue	n/a	n/a	n/a	n/a	n/a	n/a	n/a	task-social/cue/runtype-pain/scl/l044.png	n/a	n/a	n/a	n/a	n/a	n/a	n/a	n/a
7.6	3.49	pain	expectrating	1	low_cue	n/a	54.84	Strong	54.84	Strong	0.98	2.5	task-social/cue/runtype-pain/scl/l044.png	n/a	n/a	n/a	n/a	n/a	n/a	n/a	n/a
16.85	12.82	pain	stimulus	1	low_cue	high_stim	n/a	n/a	n/a	n/a	n/a	n/a	n/a	16.85	20.86	25.86	29.67	success	n/a	n/a	n/a
28.79	2.7	pain	outcomerating	1	low_cue	high_stim	54.78	Strong	54.78	Strong	0.98	2.5	task-social/outcomerating/task-pain_scale.png	n/a	n/a	n/a	n/a	success	n/a	n/a	n/a
37.4	1.0	pain	cue	2	high_cue	n/a	n/a	n/a	n/a	n/a	n/a	n/a	task-social/cue/runtype-pain/sch/h047.png	n/a	n/a	n/a	n/a	n/a	n/a	n/a	n/a
39.7	2.33	pain	expectrating	2	high_cue	n/a	52.81	Strong	52.81	Strong	0.57	1.77	task-social/cue/runtype-pain/sch/h047.png	n/a	n/a	n/a	n/a	n/a	n/a	n/a	n/a
50.0	12.369999999999997	pain	stimulus	2	high_cue	med_stim	n/a	n/a	n/a	n/a	n/a	n/a	n/a	50.0	53.76	58.76	62.37	success	n/a	n/a	n/a
65.49	3.08	pain	outcomerating	2	high_cue	med_stim	41.92	Strong	41.92	Strong	0.57	1.77	task-social/outcomerating/task-pain_scale.png	n/a	n/a	n/a	n/a	success	n/a	n/a	n/a
70.69	1.0	pain	cue	3	low_cue	n/a	n/a	n/a	n/a	n/a	n/a	n/a	task-social/cue/runtype-pain/scl/l055.png	n/a	n/a	n/a	n/a	n/a	n/a	n/a	n/a
72.99	n/a	pain	expectrating	3	low_cue	n/a	n/a	n/a	42.89	Strong	2.98	3.75	task-social/cue/runtype-pain/scl/l055.png	n/a	n/a	n/a	n/a	n/a	n/a	n/a	n/a
77.91	11.909999999999997	pain	stimulus	3	low_cue	low_stim	n/a	n/a	n/a	n/a	n/a	n/a	n/a	77.91	81.41	86.41	89.81	success	n/a	n/a	n/a
88.3	2.33	pain	outcomerating	3	low_cue	low_stim	43.22	Strong	43.22	Strong	2.98	3.75	task-social/outcomerating/task-pain_scale.png	n/a	n/a	n/a	n/a	success	n/a	n/a	n/a
100.19	1.0	pain	cue	4	high_cue	n/a	n/a	n/a	n/a	n/a	n/a	n/a	task-social/cue/runtype-pain/sch/h033.png	n/a	n/a	n/a	n/a	n/a	n/a	n/a	n/a
102.79	1.57	pain	expectrating	4	high_cue	n/a	47.28	Strong	47.28	Strong	0.05	1.52	task-social/cue/runtype-pain/sch/h033.png	n/a	n/a	n/a	n/a	n/a	n/a	n/a	n/a
108.21	11.91000000000001	pain	stimulus	4	high_cue	low_stim	n/a	n/a	n/a	n/a	n/a	n/a	n/a	108.21	111.71	116.71	120.11	success	n/a	n/a	n/a
123.69	2.85	pain	outcomerating	4	high_cue	low_stim	45.81	Strong	45.81	Strong	0.05	1.52	task-social/outcomerating/task-pain_scale.png	n/a	n/a	n/a	n/a	success	n/a	n/a	n/a
132.6	1.0	pain	cue	5	low_cue	n/a	n/a	n/a	n/a	n/a	n/a	n/a	task-social/cue/runtype-pain/scl/l043.png	n/a	n/a	n/a	n/a	n/a	n/a	n/a	n/a
135.2	1.95	pain	expectrating	5	low_cue	n/a	44.51	Strong	44.51	Strong	0.43	1.52	task-social/cue/runtype-pain/scl/l043.png	n/a	n/a	n/a	n/a	n/a	n/a	n/a	n/a
145.52	12.369999999999976	pain	stimulus	5	low_cue	med_stim	n/a	n/a	n/a	n/a	n/a	n/a	n/a	145.52	149.28	154.28	157.89	success	n/a	n/a	n/a
156.39	3.67	pain	outcomerating	5	low_cue	med_stim	47.43	Strong	47.43	Strong	0.43	1.52	task-social/outcomerating/task-pain_scale.png	n/a	n/a	n/a	n/a	success	n/a	n/a	n/a
165.29	1.0	pain	cue	6	high_cue	n/a	n/a	n/a	n/a	n/a	n/a	n/a	task-social/cue/runtype-pain/sch/h053.png	n/a	n/a	n/a	n/a	n/a	n/a	n/a	n/a
167.59	2.47	pain	expectrating	6	high_cue	n/a	45.49	Strong	45.49	Strong	0.67	1.8	task-social/cue/runtype-pain/sch/h053.png	n/a	n/a	n/a	n/a	n/a	n/a	n/a	n/a
177.82	12.819999999999993	pain	stimulus	6	high_cue	high_stim	n/a	n/a	n/a	n/a	n/a	n/a	n/a	177.82	181.83	186.83	190.64	success	n/a	n/a	n/a
190.6	2.95	pain	outcomerating	6	high_cue	high_stim	44.51	Strong	44.51	Strong	0.67	1.8	task-social/outcomerating/task-pain_scale.png	n/a	n/a	n/a	n/a	success	n/a	n/a	n/a
199.39	1.0	pain	cue	7	low_cue	n/a	n/a	n/a	n/a	n/a	n/a	n/a	task-social/cue/runtype-pain/scl/l015.png	n/a	n/a	n/a	n/a	n/a	n/a	n/a	n/a
201.79	2.18	pain	expectrating	7	low_cue	n/a	41.73	Strong	41.73	Strong	0.05	2.13	task-social/cue/runtype-pain/scl/l015.png	n/a	n/a	n/a	n/a	n/a	n/a	n/a	n/a
212.13	11.900000000000006	pain	stimulus	7	low_cue	low_stim	n/a	n/a	n/a	n/a	n/a	n/a	n/a	212.13	215.63	220.63	224.03	success	n/a	n/a	n/a
230.98	2.02	pain	outcomerating	7	low_cue	low_stim	37.65	Strong	37.65	Strong	0.05	2.13	task-social/outcomerating/task-pain_scale.png	n/a	n/a	n/a	n/a	success	n/a	n/a	n/a
236.39	1.0	pain	cue	8	low_cue	n/a	n/a	n/a	n/a	n/a	n/a	n/a	task-social/cue/runtype-pain/scl/l053.png	n/a	n/a	n/a	n/a	n/a	n/a	n/a	n/a
239.09	2.75	pain	expectrating	8	low_cue	n/a	37.98	Strong	37.98	Strong	0.05	2.7	task-social/cue/runtype-pain/scl/l053.png	n/a	n/a	n/a	n/a	n/a	n/a	n/a	n/a
245.43	12.819999999999993	pain	stimulus	8	low_cue	high_stim	n/a	n/a	n/a	n/a	n/a	n/a	n/a	245.43	249.44	254.44	258.25	success	n/a	n/a	n/a
261.2	3.0	pain	outcomerating	8	low_cue	high_stim	47.45	Strong	47.45	Strong	0.05	2.7	task-social/outcomerating/task-pain_scale.png	n/a	n/a	n/a	n/a	success	n/a	n/a	n/a
266.5	1.0	pain	cue	9	high_cue	n/a	n/a	n/a	n/a	n/a	n/a	n/a	task-social/cue/runtype-pain/sch/h015.png	n/a	n/a	n/a	n/a	n/a	n/a	n/a	n/a
269.7	2.08	pain	expectrating	9	high_cue	n/a	47.28	Strong	47.28	Strong	0.58	1.5	task-social/cue/runtype-pain/sch/h015.png	n/a	n/a	n/a	n/a	n/a	n/a	n/a	n/a
278.23	12.819999999999993	pain	stimulus	9	high_cue	high_stim	n/a	n/a	n/a	n/a	n/a	n/a	n/a	278.23	282.24	287.24	291.05	success	n/a	n/a	n/a
290.69	2.42	pain	outcomerating	9	high_cue	high_stim	46.3	Strong	46.3	Strong	0.58	1.5	task-social/outcomerating/task-pain_scale.png	n/a	n/a	n/a	n/a	success	n/a	n/a	n/a
304.49	1.0	pain	cue	10	high_cue	n/a	n/a	n/a	n/a	n/a	n/a	n/a	task-social/cue/runtype-pain/sch/h027.png	n/a	n/a	n/a	n/a	n/a	n/a	n/a	n/a
307.4	2.62	pain	expectrating	10	high_cue	n/a	46.14	Strong	46.14	Strong	0.37	2.25	task-social/cue/runtype-pain/sch/h027.png	n/a	n/a	n/a	n/a	n/a	n/a	n/a	n/a
317.63	12.360000000000014	pain	stimulus	10	high_cue	med_stim	n/a	n/a	n/a	n/a	n/a	n/a	n/a	317.63	321.39	326.39	330.0	success	n/a	n/a	n/a
329.69	2.98	pain	outcomerating	10	high_cue	med_stim	39.78	Strong	39.78	Strong	0.37	2.25	task-social/outcomerating/task-pain_scale.png	n/a	n/a	n/a	n/a	success	n/a	n/a	n/a
335.89	1.0	pain	cue	11	high_cue	n/a	n/a	n/a	n/a	n/a	n/a	n/a	task-social/cue/runtype-pain/sch/h010.png	n/a	n/a	n/a	n/a	n/a	n/a	n/a	n/a
338.29	2.88	pain	expectrating	11	high_cue	n/a	42.72	Strong	42.72	Strong	1.28	1.6	task-social/cue/runtype-pain/sch/h010.png	n/a	n/a	n/a	n/a	n/a	n/a	n/a	n/a
344.62	11.909999999999968	pain	stimulus	11	high_cue	low_stim	n/a	n/a	n/a	n/a	n/a	n/a	n/a	344.62	348.12	353.12	356.52	success	n/a	n/a	n/a
358.3	2.03	pain	outcomerating	11	high_cue	low_stim	39.6	Strong	39.6	Strong	1.28	1.6	task-social/outcomerating/task-pain_scale.png	n/a	n/a	n/a	n/a	success	n/a	n/a	n/a
371.19	1.0	pain	cue	12	low_cue	n/a	n/a	n/a	n/a	n/a	n/a	n/a	task-social/cue/runtype-pain/scl/l021.png	n/a	n/a	n/a	n/a	n/a	n/a	n/a	n/a
373.09	2.99	pain	expectrating	12	low_cue	n/a	43.86	Strong	43.86	Strong	0.05	2.94	task-social/cue/runtype-pain/scl/l021.png	n/a	n/a	n/a	n/a	n/a	n/a	n/a	n/a
383.21	12.370000000000005	pain	stimulus	12	low_cue	med_stim	n/a	n/a	n/a	n/a	n/a	n/a	n/a	383.21	386.97	391.97	395.58	success	n/a	n/a	n/a
394.9	3.12	pain	outcomerating	12	low_cue	med_stim	38.95	Strong	38.95	Strong	0.05	2.94	task-social/outcomerating/task-pain_scale.png	n/a	n/a	n/a	n/a	success	n/a	n/a	n/a
