onset	duration	trial_type	response_x	response_y	situation	context	modality	stim_file
8.853	32.166	narrative_presentation	n/a	n/a	Slaying of kin unrecognized	town	Text	task-narratives/Narrative3Situation1.txt
41.02	1.618	rating_feeling	734	521	Slaying of kin unrecognized	town	Text	n/a
41.886	0.752	feeling_mouse_trajectory	734	521	Slaying of kin unrecognized	town	Text	n/a
45.103	1.851	rating_expectation	740	435	Slaying of kin unrecognized	town	Text	n/a
45.87	1.085	expectation_mouse_trajectory	740	435	Slaying of kin unrecognized	town	Text	n/a
53.186	17.112	narrative_presentation	n/a	n/a	Erroneous judgement	town	Text	task-narratives/Narrative3Situation2.txt
70.298	3.983	rating_feeling	1050	392	Erroneous judgement	town	Text	n/a
71.081	3.2	feeling_mouse_trajectory	1050	392	Erroneous judgement	town	Text	n/a
74.334	2.087	rating_expectation	1010	414	Erroneous judgement	town	Text	n/a
74.501	1.92	expectation_mouse_trajectory	1010	414	Erroneous judgement	town	Text	n/a
80.43	10.392	narrative_presentation	n/a	n/a	Revolt	town	Text	task-narratives/Narrative3Situation3.txt
90.821	3.669	rating_feeling	992	373	Revolt	town	Text	n/a
91.688	2.802	feeling_mouse_trajectory	992	373	Revolt	town	Text	n/a
94.838	1.868	rating_expectation	1061	401	Revolt	town	Text	n/a
95.521	1.185	expectation_mouse_trajectory	1061	401	Revolt	town	Text	n/a
99.92	28.149	narrative_presentation	n/a	n/a	The enigma	city	Text	task-narratives/Narrative3Situation4.txt
128.069	2.268	rating_feeling	881	456	The enigma	city	Text	n/a
129.003	1.335	feeling_mouse_trajectory	881	456	The enigma	city	Text	n/a
132.085	2.251	rating_expectation	862	432	The enigma	city	Text	n/a
132.935	1.401	expectation_mouse_trajectory	862	432	The enigma	city	Text	n/a
139.185	15.098	narrative_presentation	n/a	n/a	Deliverance	city	Text	task-narratives/Narrative3Situation5.txt
154.283	2.391	rating_feeling	811	379	Deliverance	city	Text	n/a
155.183	1.491	feeling_mouse_trajectory	811	379	Deliverance	city	Text	n/a
158.317	2.322	rating_expectation	708	434	Deliverance	city	Text	n/a
159.183	1.456	expectation_mouse_trajectory	708	434	Deliverance	city	Text	n/a
165.411	15.076	narrative_presentation	n/a	n/a	Remorse	city	Text	task-narratives/Narrative3Situation6.txt
180.487	3.883	rating_feeling	933	435	Remorse	city	Text	n/a
181.871	2.5	feeling_mouse_trajectory	933	435	Remorse	city	Text	n/a
184.505	3.969	rating_expectation	975	440	Remorse	city	Text	n/a
184.721	3.752	expectation_mouse_trajectory	975	440	Remorse	city	Text	n/a
192.572	36.85	narrative_presentation	n/a	n/a	Loss of loved one	forest	Text	task-narratives/Narrative3Situation7.txt
229.422	2.702	rating_feeling	708	390	Loss of loved one	forest	Text	n/a
230.022	2.102	feeling_mouse_trajectory	708	390	Loss of loved one	forest	Text	n/a
233.44	2.652	rating_expectation	706	432	Loss of loved one	forest	Text	n/a
233.94	2.152	expectation_mouse_trajectory	706	432	Loss of loved one	forest	Text	n/a
239.506	9.712	narrative_presentation	n/a	n/a	All sacrificed for passion	forest	Text	task-narratives/Narrative3Situation8.txt
249.218	2.388	rating_feeling	779	518	All sacrificed for passion	forest	Text	n/a
250.668	0.938	feeling_mouse_trajectory	779	518	All sacrificed for passion	forest	Text	n/a
253.25	3.02	rating_expectation	987	459	All sacrificed for passion	forest	Text	n/a
254.083	2.187	expectation_mouse_trajectory	987	459	All sacrificed for passion	forest	Text	n/a
258.313	27.481	narrative_presentation	n/a	n/a	Discovery of dishonour of loved one	forest	Text	task-narratives/Narrative3Situation9.txt
285.793	2.625	rating_feeling	690	400	Discovery of dishonour of loved one	forest	Text	n/a
286.577	1.841	feeling_mouse_trajectory	690	400	Discovery of dishonour of loved one	forest	Text	n/a
289.816	2.423	rating_expectation	783	416	Discovery of dishonour of loved one	forest	Text	n/a
290.583	1.657	expectation_mouse_trajectory	783	416	Discovery of dishonour of loved one	forest	Text	n/a
295.91	22.446	narrative_presentation	n/a	n/a	Conflict with a god	swamp	Text	task-narratives/Narrative4Situation1.txt
318.356	2.518	rating_feeling	856	486	Conflict with a god	swamp	Text	n/a
319.572	1.302	feeling_mouse_trajectory	856	486	Conflict with a god	swamp	Text	n/a
322.373	2.952	rating_expectation	798	478	Conflict with a god	swamp	Text	n/a
323.156	2.168	expectation_mouse_trajectory	798	478	Conflict with a god	swamp	Text	n/a
331.44	24.797	narrative_presentation	n/a	n/a	Adultery	swamp	Text	task-narratives/Narrative4Situation2.txt
356.237	2.051	rating_feeling	691	419	Adultery	swamp	Text	n/a
356.87	1.418	feeling_mouse_trajectory	691	419	Adultery	swamp	Text	n/a
360.253	1.968	rating_expectation	702	457	Adultery	swamp	Text	n/a
360.653	1.568	expectation_mouse_trajectory	702	457	Adultery	swamp	Text	n/a
366.32	21.115	narrative_presentation	n/a	n/a	Slaying of kin unrecognized	swamp	Text	task-narratives/Narrative4Situation3.txt
387.435	2.22	rating_feeling	678	418	Slaying of kin unrecognized	swamp	Text	n/a
387.868	1.787	feeling_mouse_trajectory	678	418	Slaying of kin unrecognized	swamp	Text	n/a
391.469	1.985	rating_expectation	707	443	Slaying of kin unrecognized	swamp	Text	n/a
392.353	1.102	expectation_mouse_trajectory	707	443	Slaying of kin unrecognized	swamp	Text	n/a
396.548	21.112	narrative_presentation	n/a	n/a	Fatal imprudence	hospital	Text	task-narratives/Narrative4Situation4.txt
417.659	1.709	rating_feeling	679	514	Fatal imprudence	hospital	Text	n/a
418.159	1.209	feeling_mouse_trajectory	679	514	Fatal imprudence	hospital	Text	n/a
421.677	2.408	rating_expectation	703	406	Fatal imprudence	hospital	Text	n/a
422.443	1.641	expectation_mouse_trajectory	703	406	Fatal imprudence	hospital	Text	n/a
426.759	25.796	narrative_presentation	n/a	n/a	Erroneous judgement	hospital	Text	task-narratives/Narrative4Situation5.txt
452.555	1.902	rating_feeling	659	449	Erroneous judgement	hospital	Text	n/a
453.372	1.085	feeling_mouse_trajectory	659	449	Erroneous judgement	hospital	Text	n/a
456.573	1.952	rating_expectation	691	411	Erroneous judgement	hospital	Text	n/a
457.14	1.385	expectation_mouse_trajectory	691	411	Erroneous judgement	hospital	Text	n/a
461.639	23.446	narrative_presentation	n/a	n/a	Necessity of sacrificing loved ones	hospital	Text	task-narratives/Narrative4Situation6.txt
485.085	2.868	rating_feeling	760	453	Necessity of sacrificing loved ones	hospital	Text	n/a
485.635	2.318	feeling_mouse_trajectory	760	453	Necessity of sacrificing loved ones	hospital	Text	n/a
489.101	2.068	rating_expectation	703	428	Necessity of sacrificing loved ones	hospital	Text	n/a
489.851	1.318	expectation_mouse_trajectory	703	428	Necessity of sacrificing loved ones	hospital	Text	n/a
494.184	19.094	narrative_presentation	n/a	n/a	Recovery of a lost one	prison	Text	task-narratives/Narrative4Situation7.txt
513.278	1.973	rating_feeling	806	505	Recovery of a lost one	prison	Text	n/a
513.911	1.34	feeling_mouse_trajectory	806	505	Recovery of a lost one	prison	Text	n/a
517.3	1.789	rating_expectation	764	477	Recovery of a lost one	prison	Text	n/a
517.933	1.155	expectation_mouse_trajectory	764	477	Recovery of a lost one	prison	Text	n/a
522.395	38.535	narrative_presentation	n/a	n/a	Crimes of love	prison	Text	task-narratives/Narrative4Situation8.txt
560.93	2.589	rating_feeling	689	441	Crimes of love	prison	Text	n/a
561.446	2.072	feeling_mouse_trajectory	689	441	Crimes of love	prison	Text	n/a
564.95	2.305	rating_expectation	657	391	Crimes of love	prison	Text	n/a
565.383	1.871	expectation_mouse_trajectory	657	391	Crimes of love	prison	Text	n/a
574.031	12.391	narrative_presentation	n/a	n/a	Abduction	prison	Text	task-narratives/Narrative4Situation9.txt
586.422	3.852	rating_feeling	619	486	Abduction	prison	Text	n/a
586.838	3.435	feeling_mouse_trajectory	619	486	Abduction	prison	Text	n/a
590.439	2.068	rating_expectation	706	385	Abduction	prison	Text	n/a
591.039	1.468	expectation_mouse_trajectory	706	385	Abduction	prison	Text	n/a
