onset	duration	trial_type	response_x	response_y	situation	context	modality	stim_file
7.834	12.686	narrative_presentation	n/a	n/a	Enmity of kin	prison	Audio	task-narratives/Narrative5Situation1.mp3
20.52	2.49	rating_feeling	816	426	Enmity of kin	prison	Audio	task-narratives/Narrative5Situation1.mp3
21.42	1.59	feeling_mouse_trajectory	816	426	Enmity of kin	prison	Audio	task-narratives/Narrative5Situation1.mp3
24.558	2.022	rating_expectation	755	426	Enmity of kin	prison	Audio	task-narratives/Narrative5Situation1.mp3
25.408	1.172	expectation_mouse_trajectory	755	426	Enmity of kin	prison	Audio	task-narratives/Narrative5Situation1.mp3
31.643	28.122	narrative_presentation	n/a	n/a	The enigma	town	Audio	task-narratives/Narrative5Situation2.mp3
59.765	1.392	rating_feeling	816	426	The enigma	town	Audio	task-narratives/Narrative5Situation2.mp3
60.049	1.108	feeling_mouse_trajectory	816	426	The enigma	town	Audio	task-narratives/Narrative5Situation2.mp3
63.801	2.74	rating_expectation	755	426	The enigma	town	Audio	task-narratives/Narrative5Situation2.mp3
64.684	1.857	expectation_mouse_trajectory	755	426	The enigma	town	Audio	task-narratives/Narrative5Situation2.mp3
70.872	13.313	narrative_presentation	n/a	n/a	Discovery of dishonour of loved one	prison	Audio	task-narratives/Narrative5Situation3.mp3
84.185	1.534	rating_feeling	816	426	Discovery of dishonour of loved one	prison	Audio	task-narratives/Narrative5Situation3.mp3
84.602	1.118	feeling_mouse_trajectory	816	426	Discovery of dishonour of loved one	prison	Audio	task-narratives/Narrative5Situation3.mp3
88.21	1.651	rating_expectation	755	426	Discovery of dishonour of loved one	prison	Audio	task-narratives/Narrative5Situation3.mp3
88.443	1.418	expectation_mouse_trajectory	755	426	Discovery of dishonour of loved one	prison	Audio	task-narratives/Narrative5Situation3.mp3
93.264	20.153	narrative_presentation	n/a	n/a	Loss of loved one	swamp	Audio	task-narratives/Narrative5Situation4.mp3
113.416	2.038	rating_feeling	816	426	Loss of loved one	swamp	Audio	task-narratives/Narrative5Situation4.mp3
113.7	1.755	feeling_mouse_trajectory	816	426	Loss of loved one	swamp	Audio	task-narratives/Narrative5Situation4.mp3
117.457	1.987	rating_expectation	755	426	Loss of loved one	swamp	Audio	task-narratives/Narrative5Situation4.mp3
118.357	1.087	expectation_mouse_trajectory	755	426	Loss of loved one	swamp	Audio	task-narratives/Narrative5Situation4.mp3
126.526	14.125	narrative_presentation	n/a	n/a	Necessity of sacrificing loved ones	park	Audio	task-narratives/Narrative5Situation5.mp3
140.651	1.734	rating_feeling	816	426	Necessity of sacrificing loved ones	park	Audio	task-narratives/Narrative5Situation5.mp3
141.234	1.151	feeling_mouse_trajectory	816	426	Necessity of sacrificing loved ones	park	Audio	task-narratives/Narrative5Situation5.mp3
144.681	1.434	rating_expectation	755	426	Necessity of sacrificing loved ones	park	Audio	task-narratives/Narrative5Situation5.mp3
144.964	1.151	expectation_mouse_trajectory	755	426	Necessity of sacrificing loved ones	park	Audio	task-narratives/Narrative5Situation5.mp3
151.735	5.497	narrative_presentation	n/a	n/a	Daring Enterprise	swamp	Audio	task-narratives/Narrative5Situation6.mp3
157.233	3.572	rating_feeling	816	426	Daring Enterprise	swamp	Audio	task-narratives/Narrative5Situation6.mp3
157.933	2.872	feeling_mouse_trajectory	816	426	Daring Enterprise	swamp	Audio	task-narratives/Narrative5Situation6.mp3
161.274	1.854	rating_expectation	755	426	Daring Enterprise	swamp	Audio	task-narratives/Narrative5Situation6.mp3
161.774	1.354	expectation_mouse_trajectory	755	426	Daring Enterprise	swamp	Audio	task-narratives/Narrative5Situation6.mp3
169.342	20.824	narrative_presentation	n/a	n/a	Revolt	beach	Audio	task-narratives/Narrative5Situation7.mp3
190.167	2.052	rating_feeling	816	426	Revolt	beach	Audio	task-narratives/Narrative5Situation7.mp3
190.517	1.702	feeling_mouse_trajectory	816	426	Revolt	beach	Audio	task-narratives/Narrative5Situation7.mp3
194.199	2.558	rating_expectation	755	426	Revolt	beach	Audio	task-narratives/Narrative5Situation7.mp3
194.549	2.208	expectation_mouse_trajectory	755	426	Revolt	beach	Audio	task-narratives/Narrative5Situation7.mp3
201.271	7.295	narrative_presentation	n/a	n/a	Falling prey to misfortune	city	Audio	task-narratives/Narrative5Situation8.mp3
208.566	2.237	rating_feeling	816	426	Falling prey to misfortune	city	Audio	task-narratives/Narrative5Situation8.mp3
208.866	1.937	feeling_mouse_trajectory	816	426	Falling prey to misfortune	city	Audio	task-narratives/Narrative5Situation8.mp3
212.607	2.069	rating_expectation	755	426	Falling prey to misfortune	city	Audio	task-narratives/Narrative5Situation8.mp3
213.107	1.569	expectation_mouse_trajectory	755	426	Falling prey to misfortune	city	Audio	task-narratives/Narrative5Situation8.mp3
219.661	37.955	narrative_presentation	n/a	n/a	Mistaken jealousy	beach	Audio	task-narratives/Narrative5Situation9.mp3
257.616	1.835	rating_feeling	816	426	Mistaken jealousy	beach	Audio	task-narratives/Narrative5Situation9.mp3
258.016	1.435	feeling_mouse_trajectory	816	426	Mistaken jealousy	beach	Audio	task-narratives/Narrative5Situation9.mp3
261.641	1.968	rating_expectation	755	426	Mistaken jealousy	beach	Audio	task-narratives/Narrative5Situation9.mp3
262.458	1.151	expectation_mouse_trajectory	755	426	Mistaken jealousy	beach	Audio	task-narratives/Narrative5Situation9.mp3
267.712	25.987	narrative_presentation	n/a	n/a	Enmity of kin	prison	Audio	task-narratives/Narrative6Situation1.mp3
293.699	2.404	rating_feeling	816	426	Enmity of kin	prison	Audio	task-narratives/Narrative6Situation1.mp3
294.099	2.004	feeling_mouse_trajectory	816	426	Enmity of kin	prison	Audio	task-narratives/Narrative6Situation1.mp3
297.74	2.37	rating_expectation	755	426	Enmity of kin	prison	Audio	task-narratives/Narrative6Situation1.mp3
298.19	1.92	expectation_mouse_trajectory	755	426	Enmity of kin	prison	Audio	task-narratives/Narrative6Situation1.mp3
304.809	27.989	narrative_presentation	n/a	n/a	The enigma	town	Audio	task-narratives/Narrative6Situation2.mp3
332.798	1.357	rating_feeling	816	426	The enigma	town	Audio	task-narratives/Narrative6Situation2.mp3
333.215	0.94	feeling_mouse_trajectory	816	426	The enigma	town	Audio	task-narratives/Narrative6Situation2.mp3
336.84	2.905	rating_expectation	755	426	The enigma	town	Audio	task-narratives/Narrative6Situation2.mp3
337.24	2.505	expectation_mouse_trajectory	755	426	The enigma	town	Audio	task-narratives/Narrative6Situation2.mp3
345.926	11.997	narrative_presentation	n/a	n/a	Discovery of dishonour of loved one	prison	Audio	task-narratives/Narrative6Situation3.mp3
357.923	2.151	rating_feeling	816	426	Discovery of dishonour of loved one	prison	Audio	task-narratives/Narrative6Situation3.mp3
358.223	1.851	feeling_mouse_trajectory	816	426	Discovery of dishonour of loved one	prison	Audio	task-narratives/Narrative6Situation3.mp3
361.963	1.918	rating_expectation	755	426	Discovery of dishonour of loved one	prison	Audio	task-narratives/Narrative6Situation3.mp3
362.363	1.518	expectation_mouse_trajectory	755	426	Discovery of dishonour of loved one	prison	Audio	task-narratives/Narrative6Situation3.mp3
368.016	11.999	narrative_presentation	n/a	n/a	Loss of loved one	swamp	Audio	task-narratives/Narrative6Situation4.mp3
380.015	1.722	rating_feeling	816	426	Loss of loved one	swamp	Audio	task-narratives/Narrative6Situation4.mp3
380.515	1.222	feeling_mouse_trajectory	816	426	Loss of loved one	swamp	Audio	task-narratives/Narrative6Situation4.mp3
384.057	1.788	rating_expectation	755	426	Loss of loved one	swamp	Audio	task-narratives/Narrative6Situation4.mp3
384.357	1.488	expectation_mouse_trajectory	755	426	Loss of loved one	swamp	Audio	task-narratives/Narrative6Situation4.mp3
390.127	7.325	narrative_presentation	n/a	n/a	Necessity of sacrificing loved ones	park	Audio	task-narratives/Narrative6Situation5.mp3
397.452	2.351	rating_feeling	816	426	Necessity of sacrificing loved ones	park	Audio	task-narratives/Narrative6Situation5.mp3
397.969	1.835	feeling_mouse_trajectory	816	426	Necessity of sacrificing loved ones	park	Audio	task-narratives/Narrative6Situation5.mp3
401.476	1.651	rating_expectation	755	426	Necessity of sacrificing loved ones	park	Audio	task-narratives/Narrative6Situation5.mp3
401.893	1.234	expectation_mouse_trajectory	755	426	Necessity of sacrificing loved ones	park	Audio	task-narratives/Narrative6Situation5.mp3
407.531	10.84	narrative_presentation	n/a	n/a	Daring Enterprise	swamp	Audio	task-narratives/Narrative6Situation6.mp3
418.371	1.808	rating_feeling	816	426	Daring Enterprise	swamp	Audio	task-narratives/Narrative6Situation6.mp3
418.804	1.375	feeling_mouse_trajectory	816	426	Daring Enterprise	swamp	Audio	task-narratives/Narrative6Situation6.mp3
422.407	1.74	rating_expectation	755	426	Daring Enterprise	swamp	Audio	task-narratives/Narrative6Situation6.mp3
422.94	1.207	expectation_mouse_trajectory	755	426	Daring Enterprise	swamp	Audio	task-narratives/Narrative6Situation6.mp3
431.49	23.282	narrative_presentation	n/a	n/a	Revolt	beach	Audio	task-narratives/Narrative6Situation7.mp3
454.773	3.3	rating_feeling	816	426	Revolt	beach	Audio	task-narratives/Narrative6Situation7.mp3
455.856	2.217	feeling_mouse_trajectory	816	426	Revolt	beach	Audio	task-narratives/Narrative6Situation7.mp3
458.798	1.933	rating_expectation	755	426	Revolt	beach	Audio	task-narratives/Narrative6Situation7.mp3
459.431	1.3	expectation_mouse_trajectory	755	426	Revolt	beach	Audio	task-narratives/Narrative6Situation7.mp3
467.87	5.297	narrative_presentation	n/a	n/a	Falling prey to misfortune	city	Audio	task-narratives/Narrative6Situation8.mp3
473.167	2.25	rating_feeling	816	426	Falling prey to misfortune	city	Audio	task-narratives/Narrative6Situation8.mp3
473.801	1.617	feeling_mouse_trajectory	816	426	Falling prey to misfortune	city	Audio	task-narratives/Narrative6Situation8.mp3
477.207	0.186	rating_expectation	755	426	Falling prey to misfortune	city	Audio	task-narratives/Narrative6Situation8.mp3
477.424	-0.031	expectation_mouse_trajectory	755	426	Falling prey to misfortune	city	Audio	task-narratives/Narrative6Situation8.mp3
485.277	9.315	narrative_presentation	n/a	n/a	Mistaken jealousy	beach	Audio	task-narratives/Narrative6Situation9.mp3
494.591	1.118	rating_feeling	816	426	Mistaken jealousy	beach	Audio	task-narratives/Narrative6Situation9.mp3
494.891	0.818	feeling_mouse_trajectory	816	426	Mistaken jealousy	beach	Audio	task-narratives/Narrative6Situation9.mp3
498.629	3.085	rating_expectation	755	426	Mistaken jealousy	beach	Audio	task-narratives/Narrative6Situation9.mp3
499.162	2.552	expectation_mouse_trajectory	755	426	Mistaken jealousy	beach	Audio	task-narratives/Narrative6Situation9.mp3
