onset	duration	subtask_type	question	event_type	participant_response	normative_response	response_accuracy	stim_file	trial_index
0.068	2.051	tomspunt	reaching?	block_question_presentation	n/a	n/a	n/a	n/a	0
0.068	0.3	tomspunt	reaching?	block_question_presentation	n/a	n/a	n/a	n/a	1
0.068	0.3	tomspunt	reaching?	block_question_presentation	n/a	n/a	n/a	n/a	2
0.068	0.3	tomspunt	reaching?	block_question_presentation	n/a	n/a	n/a	n/a	3
0.068	0.3	tomspunt	reaching?	block_question_presentation	n/a	n/a	n/a	n/a	4
0.068	0.3	tomspunt	reaching?	block_question_presentation	n/a	n/a	n/a	n/a	5
0.068	0.3	tomspunt	reaching?	block_question_presentation	n/a	n/a	n/a	n/a	6
0.068	0.3	tomspunt	reaching?	block_question_presentation	n/a	n/a	n/a	n/a	7
5.028	1.351	tomspunt	reaching?	how_hand	yes	yes	correct	task-memory/H_007.jpg	0
6.679	1.436	tomspunt	reaching?	how_hand	no	no	correct	task-memory/H_532.jpg	1
8.43	1.236	tomspunt	reaching?	how_hand	yes	yes	correct	task-memory/H_474.jpg	2
9.98	1.842	tomspunt	reaching?	how_hand	no	no	correct	task-memory/H_438.jpg	3
12.014	0.02	tomspunt	reaching?	how_hand	no	yes	incorrect	task-memory/H_364.jpg	4
12.348	1.049	tomspunt	reaching?	how_hand	yes	yes	correct	task-memory/H_006.jpg	5
13.698	0.951	tomspunt	reaching?	how_hand	yes	yes	correct	task-memory/H_003.jpg	6
14.965	0.018	tomspunt	reaching?	how_hand	yes	no	incorrect	task-memory/H_132.jpg	7
17.541	2.101	tomspunt	healthy?	block_question_presentation	n/a	n/a	n/a	n/a	8
17.541	0.3	tomspunt	healthy?	block_question_presentation	n/a	n/a	n/a	n/a	9
17.541	0.3	tomspunt	healthy?	block_question_presentation	n/a	n/a	n/a	n/a	10
17.541	0.3	tomspunt	healthy?	block_question_presentation	n/a	n/a	n/a	n/a	11
17.541	0.3	tomspunt	healthy?	block_question_presentation	n/a	n/a	n/a	n/a	12
17.541	0.3	tomspunt	healthy?	block_question_presentation	n/a	n/a	n/a	n/a	13
17.541	0.3	tomspunt	healthy?	block_question_presentation	n/a	n/a	n/a	n/a	14
17.541	0.3	tomspunt	healthy?	block_question_presentation	n/a	n/a	n/a	n/a	15
22.552	1.294	tomspunt	healthy?	why_hand	yes	yes	correct	task-memory/H_627.jpg	8
24.152	1.882	tomspunt	healthy?	why_hand	no	yes	incorrect	task-memory/H_438.jpg	9
26.186	0.027	tomspunt	healthy?	why_hand	no	yes	incorrect	task-memory/H_364.jpg	10
26.52	1.585	tomspunt	healthy?	why_hand	no	no	correct	task-memory/H_130.jpg	11
28.421	1.025	tomspunt	healthy?	why_hand	yes	yes	correct	task-memory/H_362.jpg	12
29.754	1.341	tomspunt	healthy?	why_hand	no	no	correct	task-memory/H_007.jpg	13
31.405	0.924	tomspunt	healthy?	why_hand	yes	yes	correct	task-memory/H_167.jpg	14
32.639	1.307	tomspunt	healthy?	why_hand	no	no	correct	task-memory/H_019.jpg	15
36.648	2.101	tomspunt	admiring?	block_question_presentation	n/a	n/a	n/a	n/a	16
36.648	0.3	tomspunt	admiring?	block_question_presentation	n/a	n/a	n/a	n/a	17
36.648	0.3	tomspunt	admiring?	block_question_presentation	n/a	n/a	n/a	n/a	18
36.648	0.3	tomspunt	admiring?	block_question_presentation	n/a	n/a	n/a	n/a	19
36.648	0.3	tomspunt	admiring?	block_question_presentation	n/a	n/a	n/a	n/a	20
36.648	0.3	tomspunt	admiring?	block_question_presentation	n/a	n/a	n/a	n/a	21
36.648	0.3	tomspunt	admiring?	block_question_presentation	n/a	n/a	n/a	n/a	22
36.648	0.3	tomspunt	admiring?	block_question_presentation	n/a	n/a	n/a	n/a	23
41.659	0.954	tomspunt	admiring?	why_face	yes	yes	correct	task-memory/F_779.jpg	16
42.926	1.003	tomspunt	admiring?	why_face	yes	yes	correct	task-memory/F_593.jpg	17
44.243	0.886	tomspunt	admiring?	why_face	no	no	correct	task-memory/F_110.jpg	18
45.444	0.752	tomspunt	admiring?	why_face	yes	yes	correct	task-memory/F_590.jpg	19
46.511	0.985	tomspunt	admiring?	why_face	no	no	correct	task-memory/F_692.jpg	20
47.811	0.635	tomspunt	admiring?	why_face	yes	yes	correct	task-memory/F_759.jpg	21
48.762	0.735	tomspunt	admiring?	why_face	yes	yes	correct	task-memory/F_648.jpg	22
49.812	1.018	tomspunt	admiring?	why_face	no	no	correct	task-memory/F_129.jpg	23
55.622	2.084	tomspunt	smiling?	block_question_presentation	n/a	n/a	n/a	n/a	24
55.622	0.3	tomspunt	smiling?	block_question_presentation	n/a	n/a	n/a	n/a	25
55.622	0.3	tomspunt	smiling?	block_question_presentation	n/a	n/a	n/a	n/a	26
55.622	0.3	tomspunt	smiling?	block_question_presentation	n/a	n/a	n/a	n/a	27
55.622	0.3	tomspunt	smiling?	block_question_presentation	n/a	n/a	n/a	n/a	28
55.622	0.3	tomspunt	smiling?	block_question_presentation	n/a	n/a	n/a	n/a	29
55.622	0.3	tomspunt	smiling?	block_question_presentation	n/a	n/a	n/a	n/a	30
55.622	0.3	tomspunt	smiling?	block_question_presentation	n/a	n/a	n/a	n/a	31
60.616	1.385	tomspunt	smiling?	how_face	yes	yes	correct	task-memory/F_139.jpg	24
62.317	0.835	tomspunt	smiling?	how_face	no	no	correct	task-memory/F_712.jpg	25
63.467	0.652	tomspunt	smiling?	how_face	yes	yes	correct	task-memory/F_695.jpg	26
64.434	0.718	tomspunt	smiling?	how_face	no	no	correct	task-memory/F_758.jpg	27
65.468	0.635	tomspunt	smiling?	how_face	yes	yes	correct	task-memory/F_083.jpg	28
66.418	0.718	tomspunt	smiling?	how_face	yes	yes	correct	task-memory/F_759.jpg	29
67.452	0.802	tomspunt	smiling?	how_face	no	no	correct	task-memory/F_412.jpg	30
68.569	0.861	tomspunt	smiling?	how_face	yes	yes	correct	task-memory/F_593.jpg	31
73.145	2.101	tomspunt	lifting?	block_question_presentation	n/a	n/a	n/a	n/a	32
73.145	0.3	tomspunt	lifting?	block_question_presentation	n/a	n/a	n/a	n/a	33
73.145	0.3	tomspunt	lifting?	block_question_presentation	n/a	n/a	n/a	n/a	34
73.145	0.3	tomspunt	lifting?	block_question_presentation	n/a	n/a	n/a	n/a	35
73.145	0.3	tomspunt	lifting?	block_question_presentation	n/a	n/a	n/a	n/a	36
73.145	0.3	tomspunt	lifting?	block_question_presentation	n/a	n/a	n/a	n/a	37
73.145	0.3	tomspunt	lifting?	block_question_presentation	n/a	n/a	n/a	n/a	38
73.145	0.3	tomspunt	lifting?	block_question_presentation	n/a	n/a	n/a	n/a	39
78.156	0.94	tomspunt	lifting?	how_hand	yes	yes	correct	task-memory/H_136.jpg	32
79.406	1.285	tomspunt	lifting?	how_hand	no	no	correct	task-memory/H_038.jpg	33
81.007	0.939	tomspunt	lifting?	how_hand	yes	yes	correct	task-memory/H_189.jpg	34
82.258	1.055	tomspunt	lifting?	how_hand	no	no	correct	task-memory/H_077.jpg	35
83.625	0.888	tomspunt	lifting?	how_hand	yes	yes	correct	task-memory/H_443.jpg	36
84.825	0.921	tomspunt	lifting?	how_hand	no	no	correct	task-memory/H_012.jpg	37
86.059	0.754	tomspunt	lifting?	how_hand	yes	yes	correct	task-memory/H_362.jpg	38
87.126	0.937	tomspunt	lifting?	how_hand	yes	yes	correct	task-memory/H_170.jpg	39
95.62	2.101	tomspunt	helping?	block_question_presentation	n/a	n/a	n/a	n/a	40
95.62	0.3	tomspunt	helping?	block_question_presentation	n/a	n/a	n/a	n/a	41
95.62	0.3	tomspunt	helping?	block_question_presentation	n/a	n/a	n/a	n/a	42
95.62	0.3	tomspunt	helping?	block_question_presentation	n/a	n/a	n/a	n/a	43
95.62	0.3	tomspunt	helping?	block_question_presentation	n/a	n/a	n/a	n/a	44
95.62	0.3	tomspunt	helping?	block_question_presentation	n/a	n/a	n/a	n/a	45
95.62	0.3	tomspunt	helping?	block_question_presentation	n/a	n/a	n/a	n/a	46
95.62	0.3	tomspunt	helping?	block_question_presentation	n/a	n/a	n/a	n/a	47
100.631	0.885	tomspunt	helping?	why_hand	yes	yes	correct	task-memory/H_077.jpg	40
101.832	0.919	tomspunt	helping?	why_hand	yes	yes	correct	task-memory/H_349.jpg	41
103.065	0.885	tomspunt	helping?	why_hand	yes	yes	correct	task-memory/H_474.jpg	42
104.266	1.147	tomspunt	helping?	why_hand	yes	yes	correct	task-memory/H_024.jpg	43
105.716	1.018	tomspunt	helping?	why_hand	no	no	correct	task-memory/H_012.jpg	44
107.05	1.668	tomspunt	helping?	why_hand	no	no	correct	task-memory/H_159.jpg	45
109.034	0.996	tomspunt	helping?	why_hand	yes	yes	correct	task-memory/H_111.jpg	46
110.335	1.112	tomspunt	helping?	why_hand	no	no	correct	task-memory/H_091.jpg	47
113.494	2.101	tomspunt	proud?	block_question_presentation	n/a	n/a	n/a	n/a	48
113.494	0.3	tomspunt	proud?	block_question_presentation	n/a	n/a	n/a	n/a	49
113.494	0.3	tomspunt	proud?	block_question_presentation	n/a	n/a	n/a	n/a	50
113.494	0.3	tomspunt	proud?	block_question_presentation	n/a	n/a	n/a	n/a	51
113.494	0.3	tomspunt	proud?	block_question_presentation	n/a	n/a	n/a	n/a	52
113.494	0.3	tomspunt	proud?	block_question_presentation	n/a	n/a	n/a	n/a	53
113.494	0.3	tomspunt	proud?	block_question_presentation	n/a	n/a	n/a	n/a	54
113.494	0.3	tomspunt	proud?	block_question_presentation	n/a	n/a	n/a	n/a	55
118.505	1.402	tomspunt	proud?	why_face	yes	yes	correct	task-memory/F_598.jpg	48
120.222	0.908	tomspunt	proud?	why_face	no	no	correct	task-memory/F_760.jpg	49
121.439	0.774	tomspunt	proud?	why_face	yes	yes	correct	task-memory/F_582.jpg	50
122.523	0.94	tomspunt	proud?	why_face	no	no	correct	task-memory/F_412.jpg	51
123.773	0.723	tomspunt	proud?	why_face	yes	yes	correct	task-memory/F_083.jpg	52
124.807	1.173	tomspunt	proud?	why_face	no	no	correct	task-memory/F_776.jpg	53
126.291	0.656	tomspunt	proud?	why_face	yes	yes	correct	task-memory/F_618.jpg	54
127.258	1.072	tomspunt	proud?	why_face	yes	yes	correct	task-memory/F_695.jpg	55
131.034	2.101	tomspunt	looking to side?	block_question_presentation	n/a	n/a	n/a	n/a	56
131.034	0.3	tomspunt	looking to side?	block_question_presentation	n/a	n/a	n/a	n/a	57
131.034	0.3	tomspunt	looking to side?	block_question_presentation	n/a	n/a	n/a	n/a	58
131.034	0.3	tomspunt	looking to side?	block_question_presentation	n/a	n/a	n/a	n/a	59
131.034	0.3	tomspunt	looking to side?	block_question_presentation	n/a	n/a	n/a	n/a	60
131.034	0.3	tomspunt	looking to side?	block_question_presentation	n/a	n/a	n/a	n/a	61
131.034	0.3	tomspunt	looking to side?	block_question_presentation	n/a	n/a	n/a	n/a	62
131.034	0.3	tomspunt	looking to side?	block_question_presentation	n/a	n/a	n/a	n/a	63
136.045	0.769	tomspunt	looking to side?	how_face	yes	yes	correct	task-memory/F_590.jpg	56
137.128	0.718	tomspunt	looking to side?	how_face	yes	yes	correct	task-memory/F_433.jpg	57
138.162	0.719	tomspunt	looking to side?	how_face	yes	yes	correct	task-memory/F_716.jpg	58
139.196	0.785	tomspunt	looking to side?	how_face	yes	no	incorrect	task-memory/F_779.jpg	59
140.296	0.634	tomspunt	looking to side?	how_face	yes	yes	correct	task-memory/F_760.jpg	60
141.23	0.768	tomspunt	looking to side?	how_face	yes	no	incorrect	task-memory/F_111.jpg	61
142.314	0.949	tomspunt	looking to side?	how_face	yes	yes	correct	task-memory/F_110.jpg	62
143.564	1.035	tomspunt	looking to side?	how_face	yes	no	incorrect	task-memory/F_798.jpg	63
150.141	2.101	tomspunt	argument?	block_question_presentation	n/a	n/a	n/a	n/a	64
150.141	0.3	tomspunt	argument?	block_question_presentation	n/a	n/a	n/a	n/a	65
150.141	0.3	tomspunt	argument?	block_question_presentation	n/a	n/a	n/a	n/a	66
150.141	0.3	tomspunt	argument?	block_question_presentation	n/a	n/a	n/a	n/a	67
150.141	0.3	tomspunt	argument?	block_question_presentation	n/a	n/a	n/a	n/a	68
150.141	0.3	tomspunt	argument?	block_question_presentation	n/a	n/a	n/a	n/a	69
150.141	0.3	tomspunt	argument?	block_question_presentation	n/a	n/a	n/a	n/a	70
150.141	0.3	tomspunt	argument?	block_question_presentation	n/a	n/a	n/a	n/a	71
155.152	0.678	tomspunt	argument?	why_face	yes	yes	correct	task-memory/F_716.jpg	64
156.135	0.868	tomspunt	argument?	why_face	no	no	correct	task-memory/F_139.jpg	65
157.319	0.835	tomspunt	argument?	why_face	yes	yes	correct	task-memory/F_712.jpg	66
158.47	0.885	tomspunt	argument?	why_face	no	no	correct	task-memory/F_433.jpg	67
159.67	0.902	tomspunt	argument?	why_face	yes	yes	correct	task-memory/F_403.jpg	68
160.887	1.026	tomspunt	argument?	why_face	no	no	correct	task-memory/F_844.jpg	69
162.221	0.718	tomspunt	argument?	why_face	yes	yes	correct	task-memory/F_743.jpg	70
163.255	0.801	tomspunt	argument?	why_face	yes	yes	correct	task-memory/F_758.jpg	71
167.981	2.101	tomspunt	open mouth?	block_question_presentation	n/a	n/a	n/a	n/a	72
167.981	0.3	tomspunt	open mouth?	block_question_presentation	n/a	n/a	n/a	n/a	73
167.981	0.3	tomspunt	open mouth?	block_question_presentation	n/a	n/a	n/a	n/a	74
167.981	0.3	tomspunt	open mouth?	block_question_presentation	n/a	n/a	n/a	n/a	75
167.981	0.3	tomspunt	open mouth?	block_question_presentation	n/a	n/a	n/a	n/a	76
167.981	0.3	tomspunt	open mouth?	block_question_presentation	n/a	n/a	n/a	n/a	77
167.981	0.3	tomspunt	open mouth?	block_question_presentation	n/a	n/a	n/a	n/a	78
167.981	0.3	tomspunt	open mouth?	block_question_presentation	n/a	n/a	n/a	n/a	79
172.992	0.655	tomspunt	open mouth?	how_face	yes	yes	correct	task-memory/F_844.jpg	72
173.959	0.555	tomspunt	open mouth?	how_face	yes	yes	correct	task-memory/F_776.jpg	73
174.826	0.805	tomspunt	open mouth?	how_face	no	no	correct	task-memory/F_544.jpg	74
175.943	0.637	tomspunt	open mouth?	how_face	yes	yes	correct	task-memory/F_692.jpg	75
176.893	0.704	tomspunt	open mouth?	how_face	no	no	correct	task-memory/F_584.jpg	76
177.91	0.587	tomspunt	open mouth?	how_face	yes	yes	correct	task-memory/F_403.jpg	77
178.811	0.719	tomspunt	open mouth?	how_face	yes	yes	correct	task-memory/F_086.jpg	78
179.844	0.719	tomspunt	open mouth?	how_face	no	no	correct	task-memory/F_648.jpg	79
185.871	2.101	tomspunt	pressing button?	block_question_presentation	n/a	n/a	n/a	n/a	80
185.871	0.3	tomspunt	pressing button?	block_question_presentation	n/a	n/a	n/a	n/a	81
185.871	0.3	tomspunt	pressing button?	block_question_presentation	n/a	n/a	n/a	n/a	82
185.871	0.3	tomspunt	pressing button?	block_question_presentation	n/a	n/a	n/a	n/a	83
185.871	0.3	tomspunt	pressing button?	block_question_presentation	n/a	n/a	n/a	n/a	84
185.871	0.3	tomspunt	pressing button?	block_question_presentation	n/a	n/a	n/a	n/a	85
185.871	0.3	tomspunt	pressing button?	block_question_presentation	n/a	n/a	n/a	n/a	86
185.871	0.3	tomspunt	pressing button?	block_question_presentation	n/a	n/a	n/a	n/a	87
190.882	0.681	tomspunt	pressing button?	how_hand	yes	yes	correct	task-memory/H_019.jpg	80
191.866	0.902	tomspunt	pressing button?	how_hand	no	no	correct	task-memory/H_024.jpg	81
193.083	0.769	tomspunt	pressing button?	how_hand	no	no	correct	task-memory/H_130.jpg	82
194.167	0.735	tomspunt	pressing button?	how_hand	yes	yes	correct	task-memory/H_502.jpg	83
195.217	0.752	tomspunt	pressing button?	how_hand	no	no	correct	task-memory/H_261.jpg	84
196.284	0.752	tomspunt	pressing button?	how_hand	yes	yes	correct	task-memory/H_332.jpg	85
197.351	0.762	tomspunt	pressing button?	how_hand	yes	yes	correct	task-memory/H_126.jpg	86
198.418	0.935	tomspunt	pressing button?	how_hand	yes	yes	correct	task-memory/H_483.jpg	87
203.661	2.101	tomspunt	competing?	block_question_presentation	n/a	n/a	n/a	n/a	88
203.661	0.3	tomspunt	competing?	block_question_presentation	n/a	n/a	n/a	n/a	89
203.661	0.3	tomspunt	competing?	block_question_presentation	n/a	n/a	n/a	n/a	90
203.661	0.3	tomspunt	competing?	block_question_presentation	n/a	n/a	n/a	n/a	91
203.661	0.3	tomspunt	competing?	block_question_presentation	n/a	n/a	n/a	n/a	92
203.661	0.3	tomspunt	competing?	block_question_presentation	n/a	n/a	n/a	n/a	93
203.661	0.3	tomspunt	competing?	block_question_presentation	n/a	n/a	n/a	n/a	94
203.661	0.3	tomspunt	competing?	block_question_presentation	n/a	n/a	n/a	n/a	95
208.672	1.018	tomspunt	competing?	why_hand	yes	yes	correct	task-memory/H_261.jpg	88
210.006	0.885	tomspunt	competing?	why_hand	no	no	correct	task-memory/H_483.jpg	89
211.206	0.607	tomspunt	competing?	why_hand	yes	yes	correct	task-memory/H_132.jpg	90
212.123	0.918	tomspunt	competing?	why_hand	no	no	correct	task-memory/H_126.jpg	91
213.357	0.773	tomspunt	competing?	why_hand	yes	yes	correct	task-memory/H_136.jpg	92
214.441	0.868	tomspunt	competing?	why_hand	no	no	correct	task-memory/H_502.jpg	93
215.625	0.623	tomspunt	competing?	why_hand	yes	yes	correct	task-memory/H_003.jpg	94
216.558	0.605	tomspunt	competing?	why_hand	yes	yes	correct	task-memory/H_170.jpg	95
221.735	2.101	tomspunt	self-doubt?	block_question_presentation	n/a	n/a	n/a	n/a	96
221.735	0.3	tomspunt	self-doubt?	block_question_presentation	n/a	n/a	n/a	n/a	97
221.735	0.3	tomspunt	self-doubt?	block_question_presentation	n/a	n/a	n/a	n/a	98
221.735	0.3	tomspunt	self-doubt?	block_question_presentation	n/a	n/a	n/a	n/a	99
221.735	0.3	tomspunt	self-doubt?	block_question_presentation	n/a	n/a	n/a	n/a	100
221.735	0.3	tomspunt	self-doubt?	block_question_presentation	n/a	n/a	n/a	n/a	101
221.735	0.3	tomspunt	self-doubt?	block_question_presentation	n/a	n/a	n/a	n/a	102
221.735	0.3	tomspunt	self-doubt?	block_question_presentation	n/a	n/a	n/a	n/a	103
226.745	1.135	tomspunt	self-doubt?	why_face	yes	yes	correct	task-memory/F_544.jpg	96
228.196	0.902	tomspunt	self-doubt?	why_face	no	no	correct	task-memory/F_086.jpg	97
229.413	0.585	tomspunt	self-doubt?	why_face	yes	yes	correct	task-memory/F_798.jpg	98
230.314	0.618	tomspunt	self-doubt?	why_face	yes	yes	correct	task-memory/F_111.jpg	99
231.247	0.785	tomspunt	self-doubt?	why_face	no	no	correct	task-memory/F_774.jpg	100
232.348	0.985	tomspunt	self-doubt?	why_face	yes	yes	correct	task-memory/F_754.jpg	101
233.648	1.002	tomspunt	self-doubt?	why_face	no	no	correct	task-memory/F_128.jpg	102
234.965	0.785	tomspunt	self-doubt?	why_face	yes	yes	correct	task-memory/F_584.jpg	103
240.775	2.101	tomspunt	looking at camera?	block_question_presentation	n/a	n/a	n/a	n/a	104
240.775	0.3	tomspunt	looking at camera?	block_question_presentation	n/a	n/a	n/a	n/a	105
240.775	0.3	tomspunt	looking at camera?	block_question_presentation	n/a	n/a	n/a	n/a	106
240.775	0.3	tomspunt	looking at camera?	block_question_presentation	n/a	n/a	n/a	n/a	107
240.775	0.3	tomspunt	looking at camera?	block_question_presentation	n/a	n/a	n/a	n/a	108
240.775	0.3	tomspunt	looking at camera?	block_question_presentation	n/a	n/a	n/a	n/a	109
240.775	0.3	tomspunt	looking at camera?	block_question_presentation	n/a	n/a	n/a	n/a	110
240.775	0.3	tomspunt	looking at camera?	block_question_presentation	n/a	n/a	n/a	n/a	111
245.786	0.685	tomspunt	looking at camera?	how_face	yes	yes	correct	task-memory/F_128.jpg	104
246.786	0.551	tomspunt	looking at camera?	how_face	yes	yes	correct	task-memory/F_618.jpg	105
247.653	0.652	tomspunt	looking at camera?	how_face	yes	yes	correct	task-memory/F_598.jpg	106
248.62	0.652	tomspunt	looking at camera?	how_face	no	no	correct	task-memory/F_743.jpg	107
249.587	0.668	tomspunt	looking at camera?	how_face	yes	yes	correct	task-memory/F_774.jpg	108
250.571	1.185	tomspunt	looking at camera?	how_face	yes	no	incorrect	task-memory/F_582.jpg	109
252.072	0.951	tomspunt	looking at camera?	how_face	no	no	correct	task-memory/F_754.jpg	110
253.339	0.752	tomspunt	looking at camera?	how_face	yes	yes	correct	task-memory/F_129.jpg	111
259.566	2.101	tomspunt	both hands?	block_question_presentation	n/a	n/a	n/a	n/a	112
259.566	0.3	tomspunt	both hands?	block_question_presentation	n/a	n/a	n/a	n/a	113
259.566	0.3	tomspunt	both hands?	block_question_presentation	n/a	n/a	n/a	n/a	114
259.566	0.3	tomspunt	both hands?	block_question_presentation	n/a	n/a	n/a	n/a	115
259.566	0.3	tomspunt	both hands?	block_question_presentation	n/a	n/a	n/a	n/a	116
259.566	0.3	tomspunt	both hands?	block_question_presentation	n/a	n/a	n/a	n/a	117
259.566	0.3	tomspunt	both hands?	block_question_presentation	n/a	n/a	n/a	n/a	118
259.566	0.3	tomspunt	both hands?	block_question_presentation	n/a	n/a	n/a	n/a	119
264.576	1.17	tomspunt	both hands?	how_hand	yes	yes	correct	task-memory/H_167.jpg	112
266.06	1.153	tomspunt	both hands?	how_hand	no	no	correct	task-memory/H_091.jpg	113
267.528	0.869	tomspunt	both hands?	how_hand	no	no	correct	task-memory/H_627.jpg	114
268.711	0.72	tomspunt	both hands?	how_hand	yes	yes	correct	task-memory/H_027.jpg	115
269.745	1.002	tomspunt	both hands?	how_hand	yes	yes	correct	task-memory/H_111.jpg	116
271.062	0.969	tomspunt	both hands?	how_hand	no	no	correct	task-memory/H_159.jpg	117
272.346	1.019	tomspunt	both hands?	how_hand	yes	yes	correct	task-memory/H_581.jpg	118
273.68	0.818	tomspunt	both hands?	how_hand	yes	yes	correct	task-memory/H_349.jpg	119
278.356	2.101	tomspunt	self-protection?	block_question_presentation	n/a	n/a	n/a	n/a	120
278.356	0.3	tomspunt	self-protection?	block_question_presentation	n/a	n/a	n/a	n/a	121
278.356	0.3	tomspunt	self-protection?	block_question_presentation	n/a	n/a	n/a	n/a	122
278.356	0.3	tomspunt	self-protection?	block_question_presentation	n/a	n/a	n/a	n/a	123
278.356	0.3	tomspunt	self-protection?	block_question_presentation	n/a	n/a	n/a	n/a	124
278.356	0.3	tomspunt	self-protection?	block_question_presentation	n/a	n/a	n/a	n/a	125
278.356	0.3	tomspunt	self-protection?	block_question_presentation	n/a	n/a	n/a	n/a	126
278.356	0.3	tomspunt	self-protection?	block_question_presentation	n/a	n/a	n/a	n/a	127
283.367	0.735	tomspunt	self-protection?	why_hand	yes	yes	correct	task-memory/H_443.jpg	120
284.417	1.569	tomspunt	self-protection?	why_hand	no	no	correct	task-memory/H_006.jpg	121
286.301	1.235	tomspunt	self-protection?	why_hand	yes	yes	correct	task-memory/H_581.jpg	122
287.852	1.268	tomspunt	self-protection?	why_hand	yes	no	incorrect	task-memory/H_532.jpg	123
289.436	0.835	tomspunt	self-protection?	why_hand	yes	yes	correct	task-memory/H_027.jpg	124
290.586	0.885	tomspunt	self-protection?	why_hand	yes	yes	correct	task-memory/H_038.jpg	125
291.787	0.944	tomspunt	self-protection?	why_hand	no	no	correct	task-memory/H_332.jpg	126
293.037	0.81	tomspunt	self-protection?	why_hand	yes	yes	correct	task-memory/H_189.jpg	127
299.848	2.101	tomspunt	smiling?	block_question_presentation	n/a	n/a	n/a	n/a	128
299.848	0.3	tomspunt	smiling?	block_question_presentation	n/a	n/a	n/a	n/a	129
299.848	0.3	tomspunt	smiling?	block_question_presentation	n/a	n/a	n/a	n/a	130
299.848	0.3	tomspunt	smiling?	block_question_presentation	n/a	n/a	n/a	n/a	131
299.848	0.3	tomspunt	smiling?	block_question_presentation	n/a	n/a	n/a	n/a	132
299.848	0.3	tomspunt	smiling?	block_question_presentation	n/a	n/a	n/a	n/a	133
299.848	0.3	tomspunt	smiling?	block_question_presentation	n/a	n/a	n/a	n/a	134
299.848	0.3	tomspunt	smiling?	block_question_presentation	n/a	n/a	n/a	n/a	135
304.858	0.689	tomspunt	smiling?	how_face	yes	yes	correct	task-memory/F_759.jpg	128
305.859	0.688	tomspunt	smiling?	how_face	no	no	correct	task-memory/F_412.jpg	129
306.859	0.772	tomspunt	smiling?	how_face	yes	yes	correct	task-memory/F_593.jpg	130
307.943	0.755	tomspunt	smiling?	how_face	no	no	correct	task-memory/F_712.jpg	131
309.01	0.704	tomspunt	smiling?	how_face	yes	yes	correct	task-memory/F_695.jpg	132
310.027	0.888	tomspunt	smiling?	how_face	yes	yes	correct	task-memory/F_139.jpg	133
311.227	0.754	tomspunt	smiling?	how_face	yes	yes	correct	task-memory/F_083.jpg	134
312.295	0.785	tomspunt	smiling?	how_face	no	no	correct	task-memory/F_758.jpg	135
317.638	2.101	tomspunt	admiring?	block_question_presentation	n/a	n/a	n/a	n/a	136
317.638	0.3	tomspunt	admiring?	block_question_presentation	n/a	n/a	n/a	n/a	137
317.638	0.3	tomspunt	admiring?	block_question_presentation	n/a	n/a	n/a	n/a	138
317.638	0.3	tomspunt	admiring?	block_question_presentation	n/a	n/a	n/a	n/a	139
317.638	0.3	tomspunt	admiring?	block_question_presentation	n/a	n/a	n/a	n/a	140
317.638	0.3	tomspunt	admiring?	block_question_presentation	n/a	n/a	n/a	n/a	141
317.638	0.3	tomspunt	admiring?	block_question_presentation	n/a	n/a	n/a	n/a	142
317.638	0.3	tomspunt	admiring?	block_question_presentation	n/a	n/a	n/a	n/a	143
322.648	0.952	tomspunt	admiring?	why_face	yes	yes	correct	task-memory/F_593.jpg	136
323.916	0.849	tomspunt	admiring?	why_face	no	no	correct	task-memory/F_129.jpg	137
325.066	0.682	tomspunt	admiring?	why_face	yes	yes	correct	task-memory/F_759.jpg	138
326.05	0.935	tomspunt	admiring?	why_face	no	no	correct	task-memory/F_692.jpg	139
327.3	0.701	tomspunt	admiring?	why_face	yes	yes	correct	task-memory/F_779.jpg	140
328.317	0.752	tomspunt	admiring?	why_face	yes	yes	correct	task-memory/F_590.jpg	141
329.384	0.664	tomspunt	admiring?	why_face	yes	yes	correct	task-memory/F_648.jpg	142
330.351	0.746	tomspunt	admiring?	why_face	no	no	correct	task-memory/F_110.jpg	143
335.528	2.101	tomspunt	competing?	block_question_presentation	n/a	n/a	n/a	n/a	144
335.528	0.3	tomspunt	competing?	block_question_presentation	n/a	n/a	n/a	n/a	145
335.528	0.3	tomspunt	competing?	block_question_presentation	n/a	n/a	n/a	n/a	146
335.528	0.3	tomspunt	competing?	block_question_presentation	n/a	n/a	n/a	n/a	147
335.528	0.3	tomspunt	competing?	block_question_presentation	n/a	n/a	n/a	n/a	148
335.528	0.3	tomspunt	competing?	block_question_presentation	n/a	n/a	n/a	n/a	149
335.528	0.3	tomspunt	competing?	block_question_presentation	n/a	n/a	n/a	n/a	150
335.528	0.3	tomspunt	competing?	block_question_presentation	n/a	n/a	n/a	n/a	151
340.539	0.618	tomspunt	competing?	why_hand	yes	yes	correct	task-memory/H_261.jpg	144
341.472	0.635	tomspunt	competing?	why_hand	yes	yes	correct	task-memory/H_170.jpg	145
342.423	0.725	tomspunt	competing?	why_hand	no	no	correct	task-memory/H_483.jpg	146
343.456	0.618	tomspunt	competing?	why_hand	yes	yes	correct	task-memory/H_132.jpg	147
344.39	0.674	tomspunt	competing?	why_hand	yes	yes	correct	task-memory/H_136.jpg	148
345.374	0.607	tomspunt	competing?	why_hand	yes	yes	correct	task-memory/H_003.jpg	149
346.291	0.874	tomspunt	competing?	why_hand	no	no	correct	task-memory/H_126.jpg	150
347.474	0.774	tomspunt	competing?	why_hand	no	no	correct	task-memory/H_502.jpg	151
357.002	2.101	tomspunt	reaching?	block_question_presentation	n/a	n/a	n/a	n/a	152
357.002	0.3	tomspunt	reaching?	block_question_presentation	n/a	n/a	n/a	n/a	153
357.002	0.3	tomspunt	reaching?	block_question_presentation	n/a	n/a	n/a	n/a	154
357.002	0.3	tomspunt	reaching?	block_question_presentation	n/a	n/a	n/a	n/a	155
357.002	0.3	tomspunt	reaching?	block_question_presentation	n/a	n/a	n/a	n/a	156
357.002	0.3	tomspunt	reaching?	block_question_presentation	n/a	n/a	n/a	n/a	157
357.002	0.3	tomspunt	reaching?	block_question_presentation	n/a	n/a	n/a	n/a	158
357.002	0.3	tomspunt	reaching?	block_question_presentation	n/a	n/a	n/a	n/a	159
362.013	0.785	tomspunt	reaching?	how_hand	yes	yes	correct	task-memory/H_003.jpg	152
363.114	0.818	tomspunt	reaching?	how_hand	yes	yes	correct	task-memory/H_364.jpg	153
364.247	1.018	tomspunt	reaching?	how_hand	no	no	correct	task-memory/H_532.jpg	154
365.581	0.735	tomspunt	reaching?	how_hand	yes	yes	correct	task-memory/H_006.jpg	155
366.632	1.035	tomspunt	reaching?	how_hand	no	no	correct	task-memory/H_438.jpg	156
367.982	0.685	tomspunt	reaching?	how_hand	yes	yes	correct	task-memory/H_007.jpg	157
368.983	0.835	tomspunt	reaching?	how_hand	yes	yes	correct	task-memory/H_474.jpg	158
370.133	0.819	tomspunt	reaching?	how_hand	no	no	correct	task-memory/H_132.jpg	159
374.843	2.101	tomspunt	open mouth?	block_question_presentation	n/a	n/a	n/a	n/a	160
374.843	0.3	tomspunt	open mouth?	block_question_presentation	n/a	n/a	n/a	n/a	161
374.843	0.3	tomspunt	open mouth?	block_question_presentation	n/a	n/a	n/a	n/a	162
374.843	0.3	tomspunt	open mouth?	block_question_presentation	n/a	n/a	n/a	n/a	163
374.843	0.3	tomspunt	open mouth?	block_question_presentation	n/a	n/a	n/a	n/a	164
374.843	0.3	tomspunt	open mouth?	block_question_presentation	n/a	n/a	n/a	n/a	165
374.843	0.3	tomspunt	open mouth?	block_question_presentation	n/a	n/a	n/a	n/a	166
374.843	0.3	tomspunt	open mouth?	block_question_presentation	n/a	n/a	n/a	n/a	167
379.853	0.619	tomspunt	open mouth?	how_face	yes	yes	correct	task-memory/F_403.jpg	160
380.787	0.635	tomspunt	open mouth?	how_face	no	no	correct	task-memory/F_648.jpg	161
381.737	0.644	tomspunt	open mouth?	how_face	yes	yes	correct	task-memory/F_776.jpg	162
382.688	0.651	tomspunt	open mouth?	how_face	no	no	correct	task-memory/F_584.jpg	163
383.655	0.66	tomspunt	open mouth?	how_face	yes	yes	correct	task-memory/F_844.jpg	164
384.622	0.743	tomspunt	open mouth?	how_face	yes	yes	correct	task-memory/F_692.jpg	165
385.672	0.643	tomspunt	open mouth?	how_face	yes	yes	correct	task-memory/F_086.jpg	166
386.623	0.625	tomspunt	open mouth?	how_face	no	no	correct	task-memory/F_544.jpg	167
393.516	2.101	tomspunt	argument?	block_question_presentation	n/a	n/a	n/a	n/a	168
393.516	0.3	tomspunt	argument?	block_question_presentation	n/a	n/a	n/a	n/a	169
393.516	0.3	tomspunt	argument?	block_question_presentation	n/a	n/a	n/a	n/a	170
393.516	0.3	tomspunt	argument?	block_question_presentation	n/a	n/a	n/a	n/a	171
393.516	0.3	tomspunt	argument?	block_question_presentation	n/a	n/a	n/a	n/a	172
393.516	0.3	tomspunt	argument?	block_question_presentation	n/a	n/a	n/a	n/a	173
393.516	0.3	tomspunt	argument?	block_question_presentation	n/a	n/a	n/a	n/a	174
393.516	0.3	tomspunt	argument?	block_question_presentation	n/a	n/a	n/a	n/a	175
398.527	0.551	tomspunt	argument?	why_face	yes	yes	correct	task-memory/F_403.jpg	168
399.394	0.819	tomspunt	argument?	why_face	no	no	correct	task-memory/F_844.jpg	169
400.528	0.57	tomspunt	argument?	why_face	yes	yes	correct	task-memory/F_712.jpg	170
401.412	0.686	tomspunt	argument?	why_face	yes	yes	correct	task-memory/F_758.jpg	171
402.412	0.736	tomspunt	argument?	why_face	no	no	correct	task-memory/F_433.jpg	172
403.462	0.702	tomspunt	argument?	why_face	yes	yes	correct	task-memory/F_716.jpg	173
404.479	0.835	tomspunt	argument?	why_face	no	no	correct	task-memory/F_139.jpg	174
405.63	0.585	tomspunt	argument?	why_face	yes	yes	correct	task-memory/F_743.jpg	175
411.74	2.101	tomspunt	helping?	block_question_presentation	n/a	n/a	n/a	n/a	176
411.74	0.3	tomspunt	helping?	block_question_presentation	n/a	n/a	n/a	n/a	177
411.74	0.3	tomspunt	helping?	block_question_presentation	n/a	n/a	n/a	n/a	178
411.74	0.3	tomspunt	helping?	block_question_presentation	n/a	n/a	n/a	n/a	179
411.74	0.3	tomspunt	helping?	block_question_presentation	n/a	n/a	n/a	n/a	180
411.74	0.3	tomspunt	helping?	block_question_presentation	n/a	n/a	n/a	n/a	181
411.74	0.3	tomspunt	helping?	block_question_presentation	n/a	n/a	n/a	n/a	182
411.74	0.3	tomspunt	helping?	block_question_presentation	n/a	n/a	n/a	n/a	183
416.751	0.835	tomspunt	helping?	why_hand	yes	yes	correct	task-memory/H_024.jpg	176
417.901	0.647	tomspunt	helping?	why_hand	yes	yes	correct	task-memory/H_349.jpg	177
418.851	0.797	tomspunt	helping?	why_hand	yes	yes	correct	task-memory/H_077.jpg	178
419.952	0.802	tomspunt	helping?	why_hand	yes	yes	correct	task-memory/H_474.jpg	179
421.069	0.702	tomspunt	helping?	why_hand	no	no	correct	task-memory/H_091.jpg	180
422.086	0.935	tomspunt	helping?	why_hand	no	no	correct	task-memory/H_159.jpg	181
423.336	0.728	tomspunt	helping?	why_hand	yes	yes	correct	task-memory/H_111.jpg	182
424.37	0.852	tomspunt	helping?	why_hand	no	no	correct	task-memory/H_012.jpg	183
429.813	2.101	tomspunt	both hands?	block_question_presentation	n/a	n/a	n/a	n/a	184
429.813	0.3	tomspunt	both hands?	block_question_presentation	n/a	n/a	n/a	n/a	185
429.813	0.3	tomspunt	both hands?	block_question_presentation	n/a	n/a	n/a	n/a	186
429.813	0.3	tomspunt	both hands?	block_question_presentation	n/a	n/a	n/a	n/a	187
429.813	0.3	tomspunt	both hands?	block_question_presentation	n/a	n/a	n/a	n/a	188
429.813	0.3	tomspunt	both hands?	block_question_presentation	n/a	n/a	n/a	n/a	189
429.813	0.3	tomspunt	both hands?	block_question_presentation	n/a	n/a	n/a	n/a	190
429.813	0.3	tomspunt	both hands?	block_question_presentation	n/a	n/a	n/a	n/a	191
434.824	0.624	tomspunt	both hands?	how_hand	yes	yes	correct	task-memory/H_111.jpg	184
435.758	0.59	tomspunt	both hands?	how_hand	yes	yes	correct	task-memory/H_027.jpg	185
436.658	0.774	tomspunt	both hands?	how_hand	no	no	correct	task-memory/H_091.jpg	186
437.742	0.64	tomspunt	both hands?	how_hand	yes	yes	correct	task-memory/H_167.jpg	187
438.692	0.706	tomspunt	both hands?	how_hand	yes	yes	correct	task-memory/H_581.jpg	188
439.709	0.705	tomspunt	both hands?	how_hand	no	no	correct	task-memory/H_159.jpg	189
440.726	0.618	tomspunt	both hands?	how_hand	yes	yes	correct	task-memory/H_349.jpg	190
441.66	0.654	tomspunt	both hands?	how_hand	no	no	correct	task-memory/H_627.jpg	191
447.32	2.101	tomspunt	healthy?	block_question_presentation	n/a	n/a	n/a	n/a	192
447.32	0.3	tomspunt	healthy?	block_question_presentation	n/a	n/a	n/a	n/a	193
447.32	0.3	tomspunt	healthy?	block_question_presentation	n/a	n/a	n/a	n/a	194
447.32	0.3	tomspunt	healthy?	block_question_presentation	n/a	n/a	n/a	n/a	195
447.32	0.3	tomspunt	healthy?	block_question_presentation	n/a	n/a	n/a	n/a	196
447.32	0.3	tomspunt	healthy?	block_question_presentation	n/a	n/a	n/a	n/a	197
447.32	0.3	tomspunt	healthy?	block_question_presentation	n/a	n/a	n/a	n/a	198
447.32	0.3	tomspunt	healthy?	block_question_presentation	n/a	n/a	n/a	n/a	199
452.331	0.968	tomspunt	healthy?	why_hand	yes	yes	correct	task-memory/H_438.jpg	192
453.615	0.951	tomspunt	healthy?	why_hand	yes	yes	correct	task-memory/H_364.jpg	193
454.882	0.766	tomspunt	healthy?	why_hand	yes	yes	correct	task-memory/H_362.jpg	194
455.949	0.851	tomspunt	healthy?	why_hand	no	no	correct	task-memory/H_019.jpg	195
457.116	0.885	tomspunt	healthy?	why_hand	yes	yes	correct	task-memory/H_167.jpg	196
458.316	0.918	tomspunt	healthy?	why_hand	no	no	correct	task-memory/H_007.jpg	197
459.55	0.818	tomspunt	healthy?	why_hand	yes	yes	correct	task-memory/H_627.jpg	198
460.684	0.785	tomspunt	healthy?	why_hand	no	no	correct	task-memory/H_130.jpg	199
466.377	2.101	tomspunt	pressing button?	block_question_presentation	n/a	n/a	n/a	n/a	200
466.377	0.3	tomspunt	pressing button?	block_question_presentation	n/a	n/a	n/a	n/a	201
466.377	0.3	tomspunt	pressing button?	block_question_presentation	n/a	n/a	n/a	n/a	202
466.377	0.3	tomspunt	pressing button?	block_question_presentation	n/a	n/a	n/a	n/a	203
466.377	0.3	tomspunt	pressing button?	block_question_presentation	n/a	n/a	n/a	n/a	204
466.377	0.3	tomspunt	pressing button?	block_question_presentation	n/a	n/a	n/a	n/a	205
466.377	0.3	tomspunt	pressing button?	block_question_presentation	n/a	n/a	n/a	n/a	206
466.377	0.3	tomspunt	pressing button?	block_question_presentation	n/a	n/a	n/a	n/a	207
471.388	0.718	tomspunt	pressing button?	how_hand	yes	yes	correct	task-memory/H_126.jpg	200
472.422	0.669	tomspunt	pressing button?	how_hand	no	no	correct	task-memory/H_130.jpg	201
473.405	0.51	tomspunt	pressing button?	how_hand	yes	yes	correct	task-memory/H_483.jpg	202
474.222	0.81	tomspunt	pressing button?	how_hand	no	no	correct	task-memory/H_024.jpg	203
475.339	0.509	tomspunt	pressing button?	how_hand	yes	yes	correct	task-memory/H_332.jpg	204
476.156	0.609	tomspunt	pressing button?	how_hand	yes	yes	correct	task-memory/H_019.jpg	205
477.073	0.725	tomspunt	pressing button?	how_hand	no	no	correct	task-memory/H_261.jpg	206
478.107	0.618	tomspunt	pressing button?	how_hand	no	yes	incorrect	task-memory/H_502.jpg	207
483.917	2.084	tomspunt	looking at camera?	block_question_presentation	n/a	n/a	n/a	n/a	208
483.917	0.3	tomspunt	looking at camera?	block_question_presentation	n/a	n/a	n/a	n/a	209
483.917	0.3	tomspunt	looking at camera?	block_question_presentation	n/a	n/a	n/a	n/a	210
483.917	0.3	tomspunt	looking at camera?	block_question_presentation	n/a	n/a	n/a	n/a	211
483.917	0.3	tomspunt	looking at camera?	block_question_presentation	n/a	n/a	n/a	n/a	212
483.917	0.3	tomspunt	looking at camera?	block_question_presentation	n/a	n/a	n/a	n/a	213
483.917	0.3	tomspunt	looking at camera?	block_question_presentation	n/a	n/a	n/a	n/a	214
483.917	0.3	tomspunt	looking at camera?	block_question_presentation	n/a	n/a	n/a	n/a	215
488.928	0.554	tomspunt	looking at camera?	how_face	yes	yes	correct	task-memory/F_618.jpg	208
489.795	0.654	tomspunt	looking at camera?	how_face	no	no	correct	task-memory/F_754.jpg	209
490.762	0.62	tomspunt	looking at camera?	how_face	yes	yes	correct	task-memory/F_129.jpg	210
491.696	0.703	tomspunt	looking at camera?	how_face	yes	yes	correct	task-memory/F_598.jpg	211
492.713	0.686	tomspunt	looking at camera?	how_face	yes	yes	correct	task-memory/F_128.jpg	212
493.713	0.736	tomspunt	looking at camera?	how_face	no	no	correct	task-memory/F_582.jpg	213
494.763	0.635	tomspunt	looking at camera?	how_face	yes	yes	correct	task-memory/F_774.jpg	214
495.714	0.635	tomspunt	looking at camera?	how_face	no	no	correct	task-memory/F_743.jpg	215
502.874	2.101	tomspunt	self-doubt?	block_question_presentation	n/a	n/a	n/a	n/a	216
502.874	0.3	tomspunt	self-doubt?	block_question_presentation	n/a	n/a	n/a	n/a	217
502.874	0.3	tomspunt	self-doubt?	block_question_presentation	n/a	n/a	n/a	n/a	218
502.874	0.3	tomspunt	self-doubt?	block_question_presentation	n/a	n/a	n/a	n/a	219
502.874	0.3	tomspunt	self-doubt?	block_question_presentation	n/a	n/a	n/a	n/a	220
502.874	0.3	tomspunt	self-doubt?	block_question_presentation	n/a	n/a	n/a	n/a	221
502.874	0.3	tomspunt	self-doubt?	block_question_presentation	n/a	n/a	n/a	n/a	222
502.874	0.3	tomspunt	self-doubt?	block_question_presentation	n/a	n/a	n/a	n/a	223
507.885	0.747	tomspunt	self-doubt?	why_face	yes	yes	correct	task-memory/F_798.jpg	216
508.936	0.697	tomspunt	self-doubt?	why_face	no	no	correct	task-memory/F_086.jpg	217
509.936	0.602	tomspunt	self-doubt?	why_face	yes	yes	correct	task-memory/F_544.jpg	218
510.853	0.585	tomspunt	self-doubt?	why_face	yes	yes	correct	task-memory/F_754.jpg	219
511.753	0.535	tomspunt	self-doubt?	why_face	yes	yes	correct	task-memory/F_111.jpg	220
512.604	0.585	tomspunt	self-doubt?	why_face	yes	yes	correct	task-memory/F_584.jpg	221
513.504	0.802	tomspunt	self-doubt?	why_face	no	no	correct	task-memory/F_128.jpg	222
514.621	0.744	tomspunt	self-doubt?	why_face	yes	no	incorrect	task-memory/F_774.jpg	223
520.398	2.101	tomspunt	self-protection?	block_question_presentation	n/a	n/a	n/a	n/a	224
520.398	0.3	tomspunt	self-protection?	block_question_presentation	n/a	n/a	n/a	n/a	225
520.398	0.3	tomspunt	self-protection?	block_question_presentation	n/a	n/a	n/a	n/a	226
520.398	0.3	tomspunt	self-protection?	block_question_presentation	n/a	n/a	n/a	n/a	227
520.398	0.3	tomspunt	self-protection?	block_question_presentation	n/a	n/a	n/a	n/a	228
520.398	0.3	tomspunt	self-protection?	block_question_presentation	n/a	n/a	n/a	n/a	229
520.398	0.3	tomspunt	self-protection?	block_question_presentation	n/a	n/a	n/a	n/a	230
520.398	0.3	tomspunt	self-protection?	block_question_presentation	n/a	n/a	n/a	n/a	231
525.408	0.618	tomspunt	self-protection?	why_hand	yes	yes	correct	task-memory/H_581.jpg	224
526.342	0.573	tomspunt	self-protection?	why_hand	yes	yes	correct	task-memory/H_443.jpg	225
527.226	0.952	tomspunt	self-protection?	why_hand	no	no	correct	task-memory/H_332.jpg	226
528.493	0.601	tomspunt	self-protection?	why_hand	yes	yes	correct	task-memory/H_027.jpg	227
529.41	1.539	tomspunt	self-protection?	why_hand	no	no	correct	task-memory/H_532.jpg	228
531.261	0.801	tomspunt	self-protection?	why_hand	yes	yes	correct	task-memory/H_189.jpg	229
532.378	0.821	tomspunt	self-protection?	why_hand	no	no	correct	task-memory/H_006.jpg	230
533.511	0.721	tomspunt	self-protection?	why_hand	yes	yes	correct	task-memory/H_038.jpg	231
538.604	2.101	tomspunt	lifting?	block_question_presentation	n/a	n/a	n/a	n/a	232
538.604	0.3	tomspunt	lifting?	block_question_presentation	n/a	n/a	n/a	n/a	233
538.604	0.3	tomspunt	lifting?	block_question_presentation	n/a	n/a	n/a	n/a	234
538.604	0.3	tomspunt	lifting?	block_question_presentation	n/a	n/a	n/a	n/a	235
538.604	0.3	tomspunt	lifting?	block_question_presentation	n/a	n/a	n/a	n/a	236
538.604	0.3	tomspunt	lifting?	block_question_presentation	n/a	n/a	n/a	n/a	237
538.604	0.3	tomspunt	lifting?	block_question_presentation	n/a	n/a	n/a	n/a	238
538.604	0.3	tomspunt	lifting?	block_question_presentation	n/a	n/a	n/a	n/a	239
543.615	0.669	tomspunt	lifting?	how_hand	yes	yes	correct	task-memory/H_443.jpg	232
544.599	0.835	tomspunt	lifting?	how_hand	yes	no	incorrect	task-memory/H_038.jpg	233
545.749	0.785	tomspunt	lifting?	how_hand	yes	yes	correct	task-memory/H_136.jpg	234
546.85	0.669	tomspunt	lifting?	how_hand	no	no	correct	task-memory/H_012.jpg	235
547.834	0.735	tomspunt	lifting?	how_hand	yes	yes	correct	task-memory/H_362.jpg	236
548.884	0.765	tomspunt	lifting?	how_hand	yes	yes	correct	task-memory/H_189.jpg	237
549.951	0.652	tomspunt	lifting?	how_hand	yes	yes	correct	task-memory/H_170.jpg	238
550.918	0.664	tomspunt	lifting?	how_hand	no	no	correct	task-memory/H_077.jpg	239
556.478	2.101	tomspunt	looking to side?	block_question_presentation	n/a	n/a	n/a	n/a	240
556.478	0.3	tomspunt	looking to side?	block_question_presentation	n/a	n/a	n/a	n/a	241
556.478	0.3	tomspunt	looking to side?	block_question_presentation	n/a	n/a	n/a	n/a	242
556.478	0.3	tomspunt	looking to side?	block_question_presentation	n/a	n/a	n/a	n/a	243
556.478	0.3	tomspunt	looking to side?	block_question_presentation	n/a	n/a	n/a	n/a	244
556.478	0.3	tomspunt	looking to side?	block_question_presentation	n/a	n/a	n/a	n/a	245
556.478	0.3	tomspunt	looking to side?	block_question_presentation	n/a	n/a	n/a	n/a	246
556.478	0.3	tomspunt	looking to side?	block_question_presentation	n/a	n/a	n/a	n/a	247
561.489	0.535	tomspunt	looking to side?	how_face	yes	yes	correct	task-memory/F_716.jpg	240
562.339	0.519	tomspunt	looking to side?	how_face	yes	no	incorrect	task-memory/F_798.jpg	241
563.173	0.742	tomspunt	looking to side?	how_face	yes	yes	correct	task-memory/F_760.jpg	242
564.223	0.576	tomspunt	looking to side?	how_face	yes	yes	correct	task-memory/F_110.jpg	243
565.107	0.702	tomspunt	looking to side?	how_face	yes	no	incorrect	task-memory/F_779.jpg	244
566.124	0.675	tomspunt	looking to side?	how_face	yes	yes	correct	task-memory/F_590.jpg	245
567.108	0.858	tomspunt	looking to side?	how_face	yes	no	incorrect	task-memory/F_111.jpg	246
568.275	0.758	tomspunt	looking to side?	how_face	yes	yes	correct	task-memory/F_433.jpg	247
578.97	2.101	tomspunt	proud?	block_question_presentation	n/a	n/a	n/a	n/a	248
578.97	0.3	tomspunt	proud?	block_question_presentation	n/a	n/a	n/a	n/a	249
578.97	0.3	tomspunt	proud?	block_question_presentation	n/a	n/a	n/a	n/a	250
578.97	0.3	tomspunt	proud?	block_question_presentation	n/a	n/a	n/a	n/a	251
578.97	0.3	tomspunt	proud?	block_question_presentation	n/a	n/a	n/a	n/a	252
578.97	0.3	tomspunt	proud?	block_question_presentation	n/a	n/a	n/a	n/a	253
578.97	0.3	tomspunt	proud?	block_question_presentation	n/a	n/a	n/a	n/a	254
578.97	0.3	tomspunt	proud?	block_question_presentation	n/a	n/a	n/a	n/a	255
583.981	0.685	tomspunt	proud?	why_face	yes	yes	correct	task-memory/F_083.jpg	248
584.981	0.618	tomspunt	proud?	why_face	yes	yes	correct	task-memory/F_582.jpg	249
585.915	0.618	tomspunt	proud?	why_face	yes	yes	correct	task-memory/F_618.jpg	250
586.848	0.751	tomspunt	proud?	why_face	no	no	correct	task-memory/F_776.jpg	251
587.915	0.535	tomspunt	proud?	why_face	yes	yes	correct	task-memory/F_598.jpg	252
588.766	0.7	tomspunt	proud?	why_face	no	no	correct	task-memory/F_760.jpg	253
589.766	0.618	tomspunt	proud?	why_face	yes	no	incorrect	task-memory/F_412.jpg	254
590.7	0.833	tomspunt	proud?	why_face	yes	yes	correct	task-memory/F_695.jpg	255
