onset	duration	subtask_type	question	event_type	participant_response	normative_response	response_accuracy	stim_file	trial_index
0.062	2.051	tomspunt	reaching?	block_question_presentation	n/a	n/a	n/a	n/a	1
5.023	1.82	tomspunt	reaching?	how_hand	yes	yes	correct	task-fractional/runtype-tomspunt/H_007.jpg	1
7.073	0.025	tomspunt	reaching?	how_hand	yes	no	incorrect	task-fractional/runtype-tomspunt/H_532.jpg	2
7.407	1.508	tomspunt	reaching?	how_hand	no	yes	incorrect	task-fractional/runtype-tomspunt/H_474.jpg	3
9.224	1.018	tomspunt	reaching?	how_hand	no	no	correct	task-fractional/runtype-tomspunt/H_438.jpg	4
10.558	0.957	tomspunt	reaching?	how_hand	yes	yes	correct	task-fractional/runtype-tomspunt/H_364.jpg	5
11.825	0.923	tomspunt	reaching?	how_hand	yes	yes	correct	task-fractional/runtype-tomspunt/H_006.jpg	6
13.059	1.005	tomspunt	reaching?	how_hand	yes	yes	correct	task-fractional/runtype-tomspunt/H_003.jpg	7
14.376	1.038	tomspunt	reaching?	how_hand	no	no	correct	task-fractional/runtype-tomspunt/H_132.jpg	8
17.535	2.101	tomspunt	healthy?	block_question_presentation	n/a	n/a	n/a	n/a	9
22.546	1.502	tomspunt	healthy?	why_hand	yes	yes	correct	task-fractional/runtype-tomspunt/H_627.jpg	9
24.363	1.202	tomspunt	healthy?	why_hand	yes	yes	correct	task-fractional/runtype-tomspunt/H_438.jpg	10
25.88	1.219	tomspunt	healthy?	why_hand	yes	yes	correct	task-fractional/runtype-tomspunt/H_364.jpg	11
27.414	1.118	tomspunt	healthy?	why_hand	no	no	correct	task-fractional/runtype-tomspunt/H_130.jpg	12
28.848	0.902	tomspunt	healthy?	why_hand	yes	yes	correct	task-fractional/runtype-tomspunt/H_362.jpg	13
30.065	0.919	tomspunt	healthy?	why_hand	no	no	correct	task-fractional/runtype-tomspunt/H_007.jpg	14
31.299	0.749	tomspunt	healthy?	why_hand	yes	yes	correct	task-fractional/runtype-tomspunt/H_167.jpg	15
32.349	1.219	tomspunt	healthy?	why_hand	no	no	correct	task-fractional/runtype-tomspunt/H_019.jpg	16
36.659	2.084	tomspunt	admiring?	block_question_presentation	n/a	n/a	n/a	n/a	17
41.653	1.112	tomspunt	admiring?	why_face	yes	yes	correct	task-fractional/runtype-tomspunt/F_779.jpg	17
43.07	1.044	tomspunt	admiring?	why_face	yes	yes	correct	task-fractional/runtype-tomspunt/F_593.jpg	18
44.421	0.952	tomspunt	admiring?	why_face	no	no	correct	task-fractional/runtype-tomspunt/F_110.jpg	19
45.688	0.643	tomspunt	admiring?	why_face	yes	yes	correct	task-fractional/runtype-tomspunt/F_590.jpg	20
46.638	n/a	tomspunt	admiring?	why_face	n/a	no	incorrect	task-fractional/runtype-tomspunt/F_692.jpg	21
48.672	0.658	tomspunt	admiring?	why_face	yes	yes	correct	task-fractional/runtype-tomspunt/F_759.jpg	22
49.639	0.741	tomspunt	admiring?	why_face	yes	yes	correct	task-fractional/runtype-tomspunt/F_648.jpg	23
50.69	1.441	tomspunt	admiring?	why_face	no	no	correct	task-fractional/runtype-tomspunt/F_129.jpg	24
55.616	2.101	tomspunt	smiling?	block_question_presentation	n/a	n/a	n/a	n/a	25
60.627	0.587	tomspunt	smiling?	how_face	yes	yes	correct	task-fractional/runtype-tomspunt/F_139.jpg	25
61.527	0.937	tomspunt	smiling?	how_face	no	no	correct	task-fractional/runtype-tomspunt/F_712.jpg	26
62.778	0.686	tomspunt	smiling?	how_face	yes	yes	correct	task-fractional/runtype-tomspunt/F_695.jpg	27
63.778	0.818	tomspunt	smiling?	how_face	no	no	correct	task-fractional/runtype-tomspunt/F_758.jpg	28
64.912	0.619	tomspunt	smiling?	how_face	yes	yes	correct	task-fractional/runtype-tomspunt/F_083.jpg	29
65.845	0.635	tomspunt	smiling?	how_face	yes	yes	correct	task-fractional/runtype-tomspunt/F_759.jpg	30
66.796	0.768	tomspunt	smiling?	how_face	no	no	correct	task-fractional/runtype-tomspunt/F_412.jpg	31
67.879	0.852	tomspunt	smiling?	how_face	yes	yes	correct	task-fractional/runtype-tomspunt/F_593.jpg	32
73.139	2.101	tomspunt	lifting?	block_question_presentation	n/a	n/a	n/a	n/a	33
78.15	1.102	tomspunt	lifting?	how_hand	yes	yes	correct	task-fractional/runtype-tomspunt/H_136.jpg	33
79.567	1.031	tomspunt	lifting?	how_hand	no	no	correct	task-fractional/runtype-tomspunt/H_038.jpg	34
80.901	1.046	tomspunt	lifting?	how_hand	yes	yes	correct	task-fractional/runtype-tomspunt/H_189.jpg	35
82.251	0.969	tomspunt	lifting?	how_hand	no	no	correct	task-fractional/runtype-tomspunt/H_077.jpg	36
83.535	0.829	tomspunt	lifting?	how_hand	yes	yes	correct	task-fractional/runtype-tomspunt/H_443.jpg	37
84.669	0.795	tomspunt	lifting?	how_hand	no	no	correct	task-fractional/runtype-tomspunt/H_012.jpg	38
85.769	0.602	tomspunt	lifting?	how_hand	yes	yes	correct	task-fractional/runtype-tomspunt/H_362.jpg	39
86.686	0.902	tomspunt	lifting?	how_hand	yes	yes	correct	task-fractional/runtype-tomspunt/H_170.jpg	40
95.631	2.101	tomspunt	helping?	block_question_presentation	n/a	n/a	n/a	n/a	41
100.642	1.306	tomspunt	helping?	why_hand	yes	yes	correct	task-fractional/runtype-tomspunt/H_077.jpg	41
102.259	0.772	tomspunt	helping?	why_hand	yes	yes	correct	task-fractional/runtype-tomspunt/H_349.jpg	42
103.343	0.785	tomspunt	helping?	why_hand	yes	yes	correct	task-fractional/runtype-tomspunt/H_474.jpg	43
104.443	1.221	tomspunt	helping?	why_hand	no	yes	incorrect	task-fractional/runtype-tomspunt/H_024.jpg	44
105.977	0.904	tomspunt	helping?	why_hand	yes	no	incorrect	task-fractional/runtype-tomspunt/H_012.jpg	45
107.194	1.42	tomspunt	helping?	why_hand	no	no	correct	task-fractional/runtype-tomspunt/H_159.jpg	46
108.928	1.003	tomspunt	helping?	why_hand	yes	yes	correct	task-fractional/runtype-tomspunt/H_111.jpg	47
110.245	1.102	tomspunt	helping?	why_hand	no	no	correct	task-fractional/runtype-tomspunt/H_091.jpg	48
113.504	2.101	tomspunt	proud?	block_question_presentation	n/a	n/a	n/a	n/a	49
118.515	1.402	tomspunt	proud?	why_face	yes	yes	correct	task-fractional/runtype-tomspunt/F_598.jpg	49
120.232	1.148	tomspunt	proud?	why_face	no	no	correct	task-fractional/runtype-tomspunt/F_760.jpg	50
121.683	0.902	tomspunt	proud?	why_face	yes	yes	correct	task-fractional/runtype-tomspunt/F_582.jpg	51
122.9	0.831	tomspunt	proud?	why_face	no	no	correct	task-fractional/runtype-tomspunt/F_412.jpg	52
124.034	1.268	tomspunt	proud?	why_face	yes	yes	correct	task-fractional/runtype-tomspunt/F_083.jpg	53
125.618	1.981	tomspunt	proud?	why_face	yes	no	incorrect	task-fractional/runtype-tomspunt/F_776.jpg	54
127.652	0.018	tomspunt	proud?	why_face	yes	yes	correct	task-fractional/runtype-tomspunt/F_618.jpg	55
127.985	0.018	tomspunt	proud?	why_face	yes	yes	correct	task-fractional/runtype-tomspunt/F_695.jpg	56
131.027	2.101	tomspunt	looking-to-side?	block_question_presentation	n/a	n/a	n/a	n/a	57
136.038	0.668	tomspunt	looking-to-side?	how_face	yes	yes	correct	task-fractional/runtype-tomspunt/F_590.jpg	57
137.022	0.909	tomspunt	looking-to-side?	how_face	yes	yes	correct	task-fractional/runtype-tomspunt/F_433.jpg	58
138.239	0.659	tomspunt	looking-to-side?	how_face	yes	yes	correct	task-fractional/runtype-tomspunt/F_716.jpg	59
139.206	1.142	tomspunt	looking-to-side?	how_face	no	no	correct	task-fractional/runtype-tomspunt/F_779.jpg	60
140.657	1.218	tomspunt	looking-to-side?	how_face	yes	yes	correct	task-fractional/runtype-tomspunt/F_760.jpg	61
142.19	0.924	tomspunt	looking-to-side?	how_face	no	no	correct	task-fractional/runtype-tomspunt/F_111.jpg	62
143.424	1.49	tomspunt	looking-to-side?	how_face	no	yes	incorrect	task-fractional/runtype-tomspunt/F_110.jpg	63
145.225	1.202	tomspunt	looking-to-side?	how_face	no	no	correct	task-fractional/runtype-tomspunt/F_798.jpg	64
150.134	2.101	tomspunt	argument?	block_question_presentation	n/a	n/a	n/a	n/a	65
155.145	1.486	tomspunt	argument?	why_face	yes	yes	correct	task-fractional/runtype-tomspunt/F_716.jpg	65
156.946	0.785	tomspunt	argument?	why_face	no	no	correct	task-fractional/runtype-tomspunt/F_139.jpg	66
158.046	0.885	tomspunt	argument?	why_face	yes	yes	correct	task-fractional/runtype-tomspunt/F_712.jpg	67
159.247	0.868	tomspunt	argument?	why_face	no	no	correct	task-fractional/runtype-tomspunt/F_433.jpg	68
160.431	0.669	tomspunt	argument?	why_face	yes	yes	correct	task-fractional/runtype-tomspunt/F_403.jpg	69
161.414	0.902	tomspunt	argument?	why_face	no	no	correct	task-fractional/runtype-tomspunt/F_844.jpg	70
162.631	0.718	tomspunt	argument?	why_face	yes	yes	correct	task-fractional/runtype-tomspunt/F_743.jpg	71
163.665	0.985	tomspunt	argument?	why_face	yes	yes	correct	task-fractional/runtype-tomspunt/F_758.jpg	72
167.974	2.101	tomspunt	open-mouth?	block_question_presentation	n/a	n/a	n/a	n/a	73
172.985	0.835	tomspunt	open-mouth?	how_face	yes	yes	correct	task-fractional/runtype-tomspunt/F_844.jpg	73
174.136	0.679	tomspunt	open-mouth?	how_face	yes	yes	correct	task-fractional/runtype-tomspunt/F_776.jpg	74
175.119	0.901	tomspunt	open-mouth?	how_face	no	no	correct	task-fractional/runtype-tomspunt/F_544.jpg	75
176.337	0.569	tomspunt	open-mouth?	how_face	yes	yes	correct	task-fractional/runtype-tomspunt/F_692.jpg	76
177.22	0.885	tomspunt	open-mouth?	how_face	no	no	correct	task-fractional/runtype-tomspunt/F_584.jpg	77
178.421	0.827	tomspunt	open-mouth?	how_face	yes	yes	correct	task-fractional/runtype-tomspunt/F_403.jpg	78
179.554	0.802	tomspunt	open-mouth?	how_face	yes	yes	correct	task-fractional/runtype-tomspunt/F_086.jpg	79
180.671	0.835	tomspunt	open-mouth?	how_face	no	no	correct	task-fractional/runtype-tomspunt/F_648.jpg	80
185.864	2.101	tomspunt	pressing-button?	block_question_presentation	n/a	n/a	n/a	n/a	81
190.875	1.123	tomspunt	pressing-button?	how_hand	yes	yes	correct	task-fractional/runtype-tomspunt/H_019.jpg	81
192.309	1.055	tomspunt	pressing-button?	how_hand	no	no	correct	task-fractional/runtype-tomspunt/H_024.jpg	82
193.676	0.969	tomspunt	pressing-button?	how_hand	no	no	correct	task-fractional/runtype-tomspunt/H_130.jpg	83
194.96	0.704	tomspunt	pressing-button?	how_hand	yes	yes	correct	task-fractional/runtype-tomspunt/H_502.jpg	84
195.977	0.92	tomspunt	pressing-button?	how_hand	no	no	correct	task-fractional/runtype-tomspunt/H_261.jpg	85
197.211	0.686	tomspunt	pressing-button?	how_hand	yes	yes	correct	task-fractional/runtype-tomspunt/H_332.jpg	86
198.211	0.686	tomspunt	pressing-button?	how_hand	yes	yes	correct	task-fractional/runtype-tomspunt/H_126.jpg	87
199.212	0.853	tomspunt	pressing-button?	how_hand	yes	yes	correct	task-fractional/runtype-tomspunt/H_483.jpg	88
203.654	2.101	tomspunt	competing?	block_question_presentation	n/a	n/a	n/a	n/a	89
208.665	0.819	tomspunt	competing?	why_hand	yes	yes	correct	task-fractional/runtype-tomspunt/H_261.jpg	89
209.799	0.919	tomspunt	competing?	why_hand	no	no	correct	task-fractional/runtype-tomspunt/H_483.jpg	90
211.033	0.685	tomspunt	competing?	why_hand	yes	yes	correct	task-fractional/runtype-tomspunt/H_132.jpg	91
212.033	0.897	tomspunt	competing?	why_hand	no	no	correct	task-fractional/runtype-tomspunt/H_126.jpg	92
213.234	0.902	tomspunt	competing?	why_hand	yes	yes	correct	task-fractional/runtype-tomspunt/H_136.jpg	93
214.451	0.869	tomspunt	competing?	why_hand	no	no	correct	task-fractional/runtype-tomspunt/H_502.jpg	94
215.635	0.935	tomspunt	competing?	why_hand	yes	yes	correct	task-fractional/runtype-tomspunt/H_003.jpg	95
216.885	0.635	tomspunt	competing?	why_hand	yes	yes	correct	task-fractional/runtype-tomspunt/H_170.jpg	96
221.728	2.101	tomspunt	self-doubt?	block_question_presentation	n/a	n/a	n/a	n/a	97
226.739	0.993	tomspunt	self-doubt?	why_face	yes	yes	correct	task-fractional/runtype-tomspunt/F_544.jpg	97
228.039	1.208	tomspunt	self-doubt?	why_face	no	no	correct	task-fractional/runtype-tomspunt/F_086.jpg	98
229.556	0.674	tomspunt	self-doubt?	why_face	yes	yes	correct	task-fractional/runtype-tomspunt/F_798.jpg	99
230.54	1.291	tomspunt	self-doubt?	why_face	yes	yes	correct	task-fractional/runtype-tomspunt/F_111.jpg	100
232.141	0.84	tomspunt	self-doubt?	why_face	no	no	correct	task-fractional/runtype-tomspunt/F_774.jpg	101
233.291	0.807	tomspunt	self-doubt?	why_face	yes	yes	correct	task-fractional/runtype-tomspunt/F_754.jpg	102
234.408	1.256	tomspunt	self-doubt?	why_face	no	no	correct	task-fractional/runtype-tomspunt/F_128.jpg	103
235.975	1.522	tomspunt	self-doubt?	why_face	no	yes	incorrect	task-fractional/runtype-tomspunt/F_584.jpg	104
240.785	2.101	tomspunt	looking-at-camera?	block_question_presentation	n/a	n/a	n/a	n/a	105
245.796	0.818	tomspunt	looking-at-camera?	how_face	yes	yes	correct	task-fractional/runtype-tomspunt/F_128.jpg	105
246.93	0.735	tomspunt	looking-at-camera?	how_face	yes	yes	correct	task-fractional/runtype-tomspunt/F_618.jpg	106
247.98	0.685	tomspunt	looking-at-camera?	how_face	yes	yes	correct	task-fractional/runtype-tomspunt/F_598.jpg	107
248.98	0.835	tomspunt	looking-at-camera?	how_face	no	no	correct	task-fractional/runtype-tomspunt/F_743.jpg	108
250.131	0.718	tomspunt	looking-at-camera?	how_face	yes	yes	correct	task-fractional/runtype-tomspunt/F_774.jpg	109
251.164	0.951	tomspunt	looking-at-camera?	how_face	no	no	correct	task-fractional/runtype-tomspunt/F_582.jpg	110
252.432	0.735	tomspunt	looking-at-camera?	how_face	no	no	correct	task-fractional/runtype-tomspunt/F_754.jpg	111
253.482	0.882	tomspunt	looking-at-camera?	how_face	yes	yes	correct	task-fractional/runtype-tomspunt/F_129.jpg	112
259.575	2.101	tomspunt	both-hands?	block_question_presentation	n/a	n/a	n/a	n/a	113
264.586	1.112	tomspunt	both-hands?	how_hand	yes	yes	correct	task-fractional/runtype-tomspunt/H_167.jpg	113
266.003	1.245	tomspunt	both-hands?	how_hand	no	no	correct	task-fractional/runtype-tomspunt/H_091.jpg	114
267.554	1.011	tomspunt	both-hands?	how_hand	no	no	correct	task-fractional/runtype-tomspunt/H_627.jpg	115
268.871	0.86	tomspunt	both-hands?	how_hand	yes	yes	correct	task-fractional/runtype-tomspunt/H_027.jpg	116
270.038	0.901	tomspunt	both-hands?	how_hand	yes	yes	correct	task-fractional/runtype-tomspunt/H_111.jpg	117
271.255	0.943	tomspunt	both-hands?	how_hand	no	no	correct	task-fractional/runtype-tomspunt/H_159.jpg	118
272.506	0.935	tomspunt	both-hands?	how_hand	yes	yes	correct	task-fractional/runtype-tomspunt/H_581.jpg	119
273.756	0.758	tomspunt	both-hands?	how_hand	yes	yes	correct	task-fractional/runtype-tomspunt/H_349.jpg	120
278.366	2.101	tomspunt	self-protection?	block_question_presentation	n/a	n/a	n/a	n/a	121
283.376	n/a	tomspunt	self-protection?	why_hand	n/a	yes	incorrect	task-fractional/runtype-tomspunt/H_443.jpg	121
285.411	1.453	tomspunt	self-protection?	why_hand	no	no	correct	task-fractional/runtype-tomspunt/H_006.jpg	122
287.178	1.37	tomspunt	self-protection?	why_hand	yes	yes	correct	task-fractional/runtype-tomspunt/H_581.jpg	123
288.862	1.76	tomspunt	self-protection?	why_hand	no	no	correct	task-fractional/runtype-tomspunt/H_532.jpg	124
290.896	0.835	tomspunt	self-protection?	why_hand	yes	yes	correct	task-fractional/runtype-tomspunt/H_027.jpg	125
292.046	0.752	tomspunt	self-protection?	why_hand	yes	yes	correct	task-fractional/runtype-tomspunt/H_038.jpg	126
293.113	0.835	tomspunt	self-protection?	why_hand	no	no	correct	task-fractional/runtype-tomspunt/H_332.jpg	127
294.264	1.202	tomspunt	self-protection?	why_hand	no	yes	incorrect	task-fractional/runtype-tomspunt/H_189.jpg	128
299.84	2.101	tomspunt	smiling?	block_question_presentation	n/a	n/a	n/a	n/a	129
304.851	0.735	tomspunt	smiling?	how_face	yes	yes	correct	task-fractional/runtype-tomspunt/F_759.jpg	129
305.902	0.818	tomspunt	smiling?	how_face	no	no	correct	task-fractional/runtype-tomspunt/F_412.jpg	130
307.035	0.629	tomspunt	smiling?	how_face	yes	yes	correct	task-fractional/runtype-tomspunt/F_593.jpg	131
307.969	0.869	tomspunt	smiling?	how_face	no	no	correct	task-fractional/runtype-tomspunt/F_712.jpg	132
309.153	0.728	tomspunt	smiling?	how_face	yes	yes	correct	task-fractional/runtype-tomspunt/F_695.jpg	133
310.186	0.786	tomspunt	smiling?	how_face	yes	yes	correct	task-fractional/runtype-tomspunt/F_139.jpg	134
311.287	0.652	tomspunt	smiling?	how_face	yes	yes	correct	task-fractional/runtype-tomspunt/F_083.jpg	135
312.254	0.744	tomspunt	smiling?	how_face	no	no	correct	task-fractional/runtype-tomspunt/F_758.jpg	136
317.63	2.101	tomspunt	admiring?	block_question_presentation	n/a	n/a	n/a	n/a	137
322.641	0.935	tomspunt	admiring?	why_face	yes	yes	correct	task-fractional/runtype-tomspunt/F_593.jpg	137
323.892	0.668	tomspunt	admiring?	why_face	no	no	correct	task-fractional/runtype-tomspunt/F_129.jpg	138
324.875	0.605	tomspunt	admiring?	why_face	yes	yes	correct	task-fractional/runtype-tomspunt/F_759.jpg	139
325.792	0.722	tomspunt	admiring?	why_face	no	no	correct	task-fractional/runtype-tomspunt/F_692.jpg	140
326.826	0.668	tomspunt	admiring?	why_face	yes	yes	correct	task-fractional/runtype-tomspunt/F_779.jpg	141
327.81	0.671	tomspunt	admiring?	why_face	yes	yes	correct	task-fractional/runtype-tomspunt/F_590.jpg	142
328.793	0.72	tomspunt	admiring?	why_face	yes	yes	correct	task-fractional/runtype-tomspunt/F_648.jpg	143
329.827	0.72	tomspunt	admiring?	why_face	no	no	correct	task-fractional/runtype-tomspunt/F_110.jpg	144
335.52	2.101	tomspunt	competing?	block_question_presentation	n/a	n/a	n/a	n/a	145
340.531	0.717	tomspunt	competing?	why_hand	yes	yes	correct	task-fractional/runtype-tomspunt/H_261.jpg	145
341.548	0.735	tomspunt	competing?	why_hand	yes	yes	correct	task-fractional/runtype-tomspunt/H_170.jpg	146
342.599	0.902	tomspunt	competing?	why_hand	no	no	correct	task-fractional/runtype-tomspunt/H_483.jpg	147
343.816	0.635	tomspunt	competing?	why_hand	yes	yes	correct	task-fractional/runtype-tomspunt/H_132.jpg	148
344.766	0.801	tomspunt	competing?	why_hand	yes	yes	correct	task-fractional/runtype-tomspunt/H_136.jpg	149
345.883	0.714	tomspunt	competing?	why_hand	yes	yes	correct	task-fractional/runtype-tomspunt/H_003.jpg	150
346.9	0.685	tomspunt	competing?	why_hand	yes	no	incorrect	task-fractional/runtype-tomspunt/H_126.jpg	151
347.901	0.931	tomspunt	competing?	why_hand	no	no	correct	task-fractional/runtype-tomspunt/H_502.jpg	152
357.012	2.084	tomspunt	reaching?	block_question_presentation	n/a	n/a	n/a	n/a	153
362.006	0.742	tomspunt	reaching?	how_hand	yes	yes	correct	task-fractional/runtype-tomspunt/H_003.jpg	153
363.056	0.858	tomspunt	reaching?	how_hand	yes	yes	correct	task-fractional/runtype-tomspunt/H_364.jpg	154
364.223	0.991	tomspunt	reaching?	how_hand	no	no	correct	task-fractional/runtype-tomspunt/H_532.jpg	155
365.524	0.891	tomspunt	reaching?	how_hand	yes	yes	correct	task-fractional/runtype-tomspunt/H_006.jpg	156
366.724	0.84	tomspunt	reaching?	how_hand	no	no	correct	task-fractional/runtype-tomspunt/H_438.jpg	157
367.875	0.807	tomspunt	reaching?	how_hand	yes	yes	correct	task-fractional/runtype-tomspunt/H_007.jpg	158
368.992	1.373	tomspunt	reaching?	how_hand	yes	yes	correct	task-fractional/runtype-tomspunt/H_474.jpg	159
370.676	0.652	tomspunt	reaching?	how_hand	yes	no	incorrect	task-fractional/runtype-tomspunt/H_132.jpg	160
374.852	2.084	tomspunt	open-mouth?	block_question_presentation	n/a	n/a	n/a	n/a	161
379.846	0.702	tomspunt	open-mouth?	how_face	yes	yes	correct	task-fractional/runtype-tomspunt/F_403.jpg	161
380.863	0.769	tomspunt	open-mouth?	how_face	no	no	correct	task-fractional/runtype-tomspunt/F_648.jpg	162
381.947	0.669	tomspunt	open-mouth?	how_face	yes	yes	correct	task-fractional/runtype-tomspunt/F_776.jpg	163
382.93	0.018	tomspunt	open-mouth?	how_face	yes	no	incorrect	task-fractional/runtype-tomspunt/F_584.jpg	164
383.264	0.952	tomspunt	open-mouth?	how_face	yes	yes	correct	task-fractional/runtype-tomspunt/F_844.jpg	165
384.531	0.783	tomspunt	open-mouth?	how_face	yes	yes	correct	task-fractional/runtype-tomspunt/F_692.jpg	166
385.615	0.685	tomspunt	open-mouth?	how_face	yes	yes	correct	task-fractional/runtype-tomspunt/F_086.jpg	167
386.615	0.869	tomspunt	open-mouth?	how_face	no	no	correct	task-fractional/runtype-tomspunt/F_544.jpg	168
393.525	2.101	tomspunt	argument?	block_question_presentation	n/a	n/a	n/a	n/a	169
398.536	0.695	tomspunt	argument?	why_face	yes	yes	correct	task-fractional/runtype-tomspunt/F_403.jpg	169
399.536	1.095	tomspunt	argument?	why_face	no	no	correct	task-fractional/runtype-tomspunt/F_844.jpg	170
400.937	1.235	tomspunt	argument?	why_face	yes	yes	correct	task-fractional/runtype-tomspunt/F_712.jpg	171
402.488	0.876	tomspunt	argument?	why_face	yes	yes	correct	task-fractional/runtype-tomspunt/F_758.jpg	172
403.671	0.027	tomspunt	argument?	why_face	yes	no	incorrect	task-fractional/runtype-tomspunt/F_433.jpg	173
404.005	1.393	tomspunt	argument?	why_face	yes	yes	correct	task-fractional/runtype-tomspunt/F_716.jpg	174
405.705	0.026	tomspunt	argument?	why_face	yes	no	incorrect	task-fractional/runtype-tomspunt/F_139.jpg	175
406.039	1.459	tomspunt	argument?	why_face	yes	yes	correct	task-fractional/runtype-tomspunt/F_743.jpg	176
411.732	2.101	tomspunt	helping?	block_question_presentation	n/a	n/a	n/a	n/a	177
416.743	1.188	tomspunt	helping?	why_hand	yes	yes	correct	task-fractional/runtype-tomspunt/H_024.jpg	177
418.243	0.021	tomspunt	helping?	why_hand	yes	yes	correct	task-fractional/runtype-tomspunt/H_349.jpg	178
418.577	1.638	tomspunt	helping?	why_hand	yes	yes	correct	task-fractional/runtype-tomspunt/H_077.jpg	179
420.528	0.953	tomspunt	helping?	why_hand	yes	yes	correct	task-fractional/runtype-tomspunt/H_474.jpg	180
421.795	0.853	tomspunt	helping?	why_hand	no	no	correct	task-fractional/runtype-tomspunt/H_091.jpg	181
422.962	1.385	tomspunt	helping?	why_hand	no	no	correct	task-fractional/runtype-tomspunt/H_159.jpg	182
424.662	0.869	tomspunt	helping?	why_hand	yes	yes	correct	task-fractional/runtype-tomspunt/H_111.jpg	183
425.846	1.035	tomspunt	helping?	why_hand	no	no	correct	task-fractional/runtype-tomspunt/H_012.jpg	184
429.805	2.101	tomspunt	both-hands?	block_question_presentation	n/a	n/a	n/a	n/a	185
434.816	0.752	tomspunt	both-hands?	how_hand	yes	yes	correct	task-fractional/runtype-tomspunt/H_111.jpg	185
435.883	0.769	tomspunt	both-hands?	how_hand	yes	yes	correct	task-fractional/runtype-tomspunt/H_027.jpg	186
436.967	0.668	tomspunt	both-hands?	how_hand	no	no	correct	task-fractional/runtype-tomspunt/H_091.jpg	187
437.951	0.68	tomspunt	both-hands?	how_hand	yes	yes	correct	task-fractional/runtype-tomspunt/H_167.jpg	188
438.934	0.801	tomspunt	both-hands?	how_hand	yes	yes	correct	task-fractional/runtype-tomspunt/H_581.jpg	189
440.052	0.896	tomspunt	both-hands?	how_hand	no	no	correct	task-fractional/runtype-tomspunt/H_159.jpg	190
441.252	0.601	tomspunt	both-hands?	how_hand	yes	yes	correct	task-fractional/runtype-tomspunt/H_349.jpg	191
442.169	0.719	tomspunt	both-hands?	how_hand	no	no	correct	task-fractional/runtype-tomspunt/H_627.jpg	192
447.329	2.101	tomspunt	healthy?	block_question_presentation	n/a	n/a	n/a	n/a	193
452.339	0.842	tomspunt	healthy?	why_hand	yes	yes	correct	task-fractional/runtype-tomspunt/H_438.jpg	193
453.49	1.441	tomspunt	healthy?	why_hand	yes	yes	correct	task-fractional/runtype-tomspunt/H_364.jpg	194
455.241	0.674	tomspunt	healthy?	why_hand	yes	yes	correct	task-fractional/runtype-tomspunt/H_362.jpg	195
456.224	1.023	tomspunt	healthy?	why_hand	no	no	correct	task-fractional/runtype-tomspunt/H_019.jpg	196
457.558	0.785	tomspunt	healthy?	why_hand	yes	yes	correct	task-fractional/runtype-tomspunt/H_167.jpg	197
458.658	0.801	tomspunt	healthy?	why_hand	no	no	correct	task-fractional/runtype-tomspunt/H_007.jpg	198
459.776	1.155	tomspunt	healthy?	why_hand	yes	yes	correct	task-fractional/runtype-tomspunt/H_627.jpg	199
461.243	0.822	tomspunt	healthy?	why_hand	no	no	correct	task-fractional/runtype-tomspunt/H_130.jpg	200
466.386	2.101	tomspunt	pressing-button?	block_question_presentation	n/a	n/a	n/a	n/a	201
471.397	0.768	tomspunt	pressing-button?	how_hand	yes	yes	correct	task-fractional/runtype-tomspunt/H_126.jpg	201
472.48	0.902	tomspunt	pressing-button?	how_hand	no	no	correct	task-fractional/runtype-tomspunt/H_130.jpg	202
473.697	0.718	tomspunt	pressing-button?	how_hand	yes	yes	correct	task-fractional/runtype-tomspunt/H_483.jpg	203
474.731	0.785	tomspunt	pressing-button?	how_hand	no	no	correct	task-fractional/runtype-tomspunt/H_024.jpg	204
475.832	0.883	tomspunt	pressing-button?	how_hand	yes	yes	correct	task-fractional/runtype-tomspunt/H_332.jpg	205
477.015	0.715	tomspunt	pressing-button?	how_hand	yes	yes	correct	task-fractional/runtype-tomspunt/H_019.jpg	206
478.032	0.718	tomspunt	pressing-button?	how_hand	no	no	correct	task-fractional/runtype-tomspunt/H_261.jpg	207
479.066	0.782	tomspunt	pressing-button?	how_hand	yes	yes	correct	task-fractional/runtype-tomspunt/H_502.jpg	208
483.909	2.101	tomspunt	looking-at-camera?	block_question_presentation	n/a	n/a	n/a	n/a	209
488.92	0.651	tomspunt	looking-at-camera?	how_face	yes	yes	correct	task-fractional/runtype-tomspunt/F_618.jpg	209
489.887	0.985	tomspunt	looking-at-camera?	how_face	no	no	correct	task-fractional/runtype-tomspunt/F_754.jpg	210
491.187	0.685	tomspunt	looking-at-camera?	how_face	yes	yes	correct	task-fractional/runtype-tomspunt/F_129.jpg	211
492.188	0.727	tomspunt	looking-at-camera?	how_face	yes	yes	correct	task-fractional/runtype-tomspunt/F_598.jpg	212
493.221	0.626	tomspunt	looking-at-camera?	how_face	yes	yes	correct	task-fractional/runtype-tomspunt/F_128.jpg	213
494.155	0.969	tomspunt	looking-at-camera?	how_face	no	no	correct	task-fractional/runtype-tomspunt/F_582.jpg	214
495.439	0.575	tomspunt	looking-at-camera?	how_face	yes	yes	correct	task-fractional/runtype-tomspunt/F_774.jpg	215
496.323	0.792	tomspunt	looking-at-camera?	how_face	no	no	correct	task-fractional/runtype-tomspunt/F_743.jpg	216
502.866	2.101	tomspunt	self-doubt?	block_question_presentation	n/a	n/a	n/a	n/a	217
507.877	0.971	tomspunt	self-doubt?	why_face	yes	yes	correct	task-fractional/runtype-tomspunt/F_798.jpg	217
509.161	1.004	tomspunt	self-doubt?	why_face	no	no	correct	task-fractional/runtype-tomspunt/F_086.jpg	218
510.478	1.236	tomspunt	self-doubt?	why_face	yes	yes	correct	task-fractional/runtype-tomspunt/F_544.jpg	219
512.028	1.069	tomspunt	self-doubt?	why_face	yes	yes	correct	task-fractional/runtype-tomspunt/F_754.jpg	220
513.412	0.868	tomspunt	self-doubt?	why_face	yes	yes	correct	task-fractional/runtype-tomspunt/F_111.jpg	221
514.596	0.835	tomspunt	self-doubt?	why_face	no	yes	incorrect	task-fractional/runtype-tomspunt/F_584.jpg	222
515.746	0.785	tomspunt	self-doubt?	why_face	yes	no	incorrect	task-fractional/runtype-tomspunt/F_128.jpg	223
516.847	1.828	tomspunt	self-doubt?	why_face	no	no	correct	task-fractional/runtype-tomspunt/F_774.jpg	224
520.389	2.101	tomspunt	self-protection?	block_question_presentation	n/a	n/a	n/a	n/a	225
525.4	0.902	tomspunt	self-protection?	why_hand	yes	yes	correct	task-fractional/runtype-tomspunt/H_581.jpg	225
526.617	1.252	tomspunt	self-protection?	why_hand	yes	yes	correct	task-fractional/runtype-tomspunt/H_443.jpg	226
528.184	1.397	tomspunt	self-protection?	why_hand	no	no	correct	task-fractional/runtype-tomspunt/H_332.jpg	227
529.885	0.969	tomspunt	self-protection?	why_hand	yes	yes	correct	task-fractional/runtype-tomspunt/H_027.jpg	228
531.169	0.962	tomspunt	self-protection?	why_hand	no	no	correct	task-fractional/runtype-tomspunt/H_532.jpg	229
532.436	1.085	tomspunt	self-protection?	why_hand	no	yes	incorrect	task-fractional/runtype-tomspunt/H_189.jpg	230
533.837	1.294	tomspunt	self-protection?	why_hand	no	no	correct	task-fractional/runtype-tomspunt/H_006.jpg	231
535.437	0.869	tomspunt	self-protection?	why_hand	yes	yes	correct	task-fractional/runtype-tomspunt/H_038.jpg	232
538.613	2.101	tomspunt	lifting?	block_question_presentation	n/a	n/a	n/a	n/a	233
543.623	0.951	tomspunt	lifting?	how_hand	yes	yes	correct	task-fractional/runtype-tomspunt/H_443.jpg	233
544.891	1.107	tomspunt	lifting?	how_hand	no	no	correct	task-fractional/runtype-tomspunt/H_038.jpg	234
546.308	0.718	tomspunt	lifting?	how_hand	yes	yes	correct	task-fractional/runtype-tomspunt/H_136.jpg	235
547.342	1.139	tomspunt	lifting?	how_hand	no	no	correct	task-fractional/runtype-tomspunt/H_012.jpg	236
548.792	0.906	tomspunt	lifting?	how_hand	yes	yes	correct	task-fractional/runtype-tomspunt/H_362.jpg	237
550.009	0.872	tomspunt	lifting?	how_hand	no	yes	incorrect	task-fractional/runtype-tomspunt/H_189.jpg	238
551.193	0.755	tomspunt	lifting?	how_hand	yes	yes	correct	task-fractional/runtype-tomspunt/H_170.jpg	239
552.26	1.338	tomspunt	lifting?	how_hand	no	no	correct	task-fractional/runtype-tomspunt/H_077.jpg	240
556.486	2.101	tomspunt	looking-to-side?	block_question_presentation	n/a	n/a	n/a	n/a	241
561.497	0.969	tomspunt	looking-to-side?	how_face	yes	yes	correct	task-fractional/runtype-tomspunt/F_716.jpg	241
562.781	1.035	tomspunt	looking-to-side?	how_face	no	no	correct	task-fractional/runtype-tomspunt/F_798.jpg	242
564.131	0.701	tomspunt	looking-to-side?	how_face	yes	yes	correct	task-fractional/runtype-tomspunt/F_760.jpg	243
565.148	1.418	tomspunt	looking-to-side?	how_face	yes	yes	correct	task-fractional/runtype-tomspunt/F_110.jpg	244
566.882	0.985	tomspunt	looking-to-side?	how_face	no	no	correct	task-fractional/runtype-tomspunt/F_779.jpg	245
568.183	0.819	tomspunt	looking-to-side?	how_face	yes	yes	correct	task-fractional/runtype-tomspunt/F_590.jpg	246
569.316	0.881	tomspunt	looking-to-side?	how_face	no	no	correct	task-fractional/runtype-tomspunt/F_111.jpg	247
570.5	1.002	tomspunt	looking-to-side?	how_face	yes	yes	correct	task-fractional/runtype-tomspunt/F_433.jpg	248
578.961	2.101	tomspunt	proud?	block_question_presentation	n/a	n/a	n/a	n/a	249
583.972	1.152	tomspunt	proud?	why_face	yes	yes	correct	task-fractional/runtype-tomspunt/F_083.jpg	249
585.439	0.742	tomspunt	proud?	why_face	yes	yes	correct	task-fractional/runtype-tomspunt/F_582.jpg	250
586.489	0.741	tomspunt	proud?	why_face	yes	yes	correct	task-fractional/runtype-tomspunt/F_618.jpg	251
587.54	n/a	tomspunt	proud?	why_face	n/a	no	incorrect	task-fractional/runtype-tomspunt/F_776.jpg	252
589.574	0.54	tomspunt	proud?	why_face	yes	yes	correct	task-fractional/runtype-tomspunt/F_598.jpg	253
590.424	1.106	tomspunt	proud?	why_face	no	no	correct	task-fractional/runtype-tomspunt/F_760.jpg	254
591.841	0.785	tomspunt	proud?	why_face	no	no	correct	task-fractional/runtype-tomspunt/F_412.jpg	255
592.942	0.756	tomspunt	proud?	why_face	yes	yes	correct	task-fractional/runtype-tomspunt/F_695.jpg	256
