onset	duration	subtask_type	question	event_type	participant_response	normative_response	response_accuracy	stim_file	trial_index
0.062	2.051	tomspunt	reaching?	block_question_presentation	n/a	n/a	n/a	n/a	0
0.062	0.3	tomspunt	reaching?	block_question_presentation	n/a	n/a	n/a	n/a	1
0.062	0.3	tomspunt	reaching?	block_question_presentation	n/a	n/a	n/a	n/a	2
0.062	0.3	tomspunt	reaching?	block_question_presentation	n/a	n/a	n/a	n/a	3
0.062	0.3	tomspunt	reaching?	block_question_presentation	n/a	n/a	n/a	n/a	4
0.062	0.3	tomspunt	reaching?	block_question_presentation	n/a	n/a	n/a	n/a	5
0.062	0.3	tomspunt	reaching?	block_question_presentation	n/a	n/a	n/a	n/a	6
0.062	0.3	tomspunt	reaching?	block_question_presentation	n/a	n/a	n/a	n/a	7
5.023	1.82	tomspunt	reaching?	how_hand	yes	yes	correct	task-tomspunt/H_007.jpg	0
7.073	0.025	tomspunt	reaching?	how_hand	yes	no	incorrect	task-tomspunt/H_532.jpg	1
7.407	1.508	tomspunt	reaching?	how_hand	no	yes	incorrect	task-tomspunt/H_474.jpg	2
9.224	1.018	tomspunt	reaching?	how_hand	no	no	correct	task-tomspunt/H_438.jpg	3
10.558	0.957	tomspunt	reaching?	how_hand	yes	yes	correct	task-tomspunt/H_364.jpg	4
11.825	0.923	tomspunt	reaching?	how_hand	yes	yes	correct	task-tomspunt/H_006.jpg	5
13.059	1.005	tomspunt	reaching?	how_hand	yes	yes	correct	task-tomspunt/H_003.jpg	6
14.376	1.038	tomspunt	reaching?	how_hand	no	no	correct	task-tomspunt/H_132.jpg	7
17.535	2.101	tomspunt	healthy?	block_question_presentation	n/a	n/a	n/a	n/a	8
17.535	0.3	tomspunt	healthy?	block_question_presentation	n/a	n/a	n/a	n/a	9
17.535	0.3	tomspunt	healthy?	block_question_presentation	n/a	n/a	n/a	n/a	10
17.535	0.3	tomspunt	healthy?	block_question_presentation	n/a	n/a	n/a	n/a	11
17.535	0.3	tomspunt	healthy?	block_question_presentation	n/a	n/a	n/a	n/a	12
17.535	0.3	tomspunt	healthy?	block_question_presentation	n/a	n/a	n/a	n/a	13
17.535	0.3	tomspunt	healthy?	block_question_presentation	n/a	n/a	n/a	n/a	14
17.535	0.3	tomspunt	healthy?	block_question_presentation	n/a	n/a	n/a	n/a	15
22.546	1.502	tomspunt	healthy?	why_hand	yes	yes	correct	task-tomspunt/H_627.jpg	8
24.363	1.202	tomspunt	healthy?	why_hand	yes	yes	correct	task-tomspunt/H_438.jpg	9
25.88	1.219	tomspunt	healthy?	why_hand	yes	yes	correct	task-tomspunt/H_364.jpg	10
27.414	1.118	tomspunt	healthy?	why_hand	no	no	correct	task-tomspunt/H_130.jpg	11
28.848	0.902	tomspunt	healthy?	why_hand	yes	yes	correct	task-tomspunt/H_362.jpg	12
30.065	0.919	tomspunt	healthy?	why_hand	no	no	correct	task-tomspunt/H_007.jpg	13
31.299	0.749	tomspunt	healthy?	why_hand	yes	yes	correct	task-tomspunt/H_167.jpg	14
32.349	1.219	tomspunt	healthy?	why_hand	no	no	correct	task-tomspunt/H_019.jpg	15
36.659	2.084	tomspunt	admiring?	block_question_presentation	n/a	n/a	n/a	n/a	16
36.659	0.3	tomspunt	admiring?	block_question_presentation	n/a	n/a	n/a	n/a	17
36.659	0.3	tomspunt	admiring?	block_question_presentation	n/a	n/a	n/a	n/a	18
36.659	0.3	tomspunt	admiring?	block_question_presentation	n/a	n/a	n/a	n/a	19
36.659	0.3	tomspunt	admiring?	block_question_presentation	n/a	n/a	n/a	n/a	20
36.659	0.3	tomspunt	admiring?	block_question_presentation	n/a	n/a	n/a	n/a	21
36.659	0.3	tomspunt	admiring?	block_question_presentation	n/a	n/a	n/a	n/a	22
36.659	0.3	tomspunt	admiring?	block_question_presentation	n/a	n/a	n/a	n/a	23
41.653	1.112	tomspunt	admiring?	why_face	yes	yes	correct	task-tomspunt/F_779.jpg	16
43.07	1.044	tomspunt	admiring?	why_face	yes	yes	correct	task-tomspunt/F_593.jpg	17
44.421	0.952	tomspunt	admiring?	why_face	no	no	correct	task-tomspunt/F_110.jpg	18
45.688	0.643	tomspunt	admiring?	why_face	yes	yes	correct	task-tomspunt/F_590.jpg	19
46.638	n/a	tomspunt	admiring?	why_face	n/a	no	incorrect	task-tomspunt/F_692.jpg	20
48.672	0.658	tomspunt	admiring?	why_face	yes	yes	correct	task-tomspunt/F_759.jpg	21
49.639	0.741	tomspunt	admiring?	why_face	yes	yes	correct	task-tomspunt/F_648.jpg	22
50.69	1.441	tomspunt	admiring?	why_face	no	no	correct	task-tomspunt/F_129.jpg	23
55.616	2.101	tomspunt	smiling?	block_question_presentation	n/a	n/a	n/a	n/a	24
55.616	0.3	tomspunt	smiling?	block_question_presentation	n/a	n/a	n/a	n/a	25
55.616	0.3	tomspunt	smiling?	block_question_presentation	n/a	n/a	n/a	n/a	26
55.616	0.3	tomspunt	smiling?	block_question_presentation	n/a	n/a	n/a	n/a	27
55.616	0.3	tomspunt	smiling?	block_question_presentation	n/a	n/a	n/a	n/a	28
55.616	0.3	tomspunt	smiling?	block_question_presentation	n/a	n/a	n/a	n/a	29
55.616	0.3	tomspunt	smiling?	block_question_presentation	n/a	n/a	n/a	n/a	30
55.616	0.3	tomspunt	smiling?	block_question_presentation	n/a	n/a	n/a	n/a	31
60.627	0.587	tomspunt	smiling?	how_face	yes	yes	correct	task-tomspunt/F_139.jpg	24
61.527	0.937	tomspunt	smiling?	how_face	no	no	correct	task-tomspunt/F_712.jpg	25
62.778	0.686	tomspunt	smiling?	how_face	yes	yes	correct	task-tomspunt/F_695.jpg	26
63.778	0.818	tomspunt	smiling?	how_face	no	no	correct	task-tomspunt/F_758.jpg	27
64.912	0.619	tomspunt	smiling?	how_face	yes	yes	correct	task-tomspunt/F_083.jpg	28
65.845	0.635	tomspunt	smiling?	how_face	yes	yes	correct	task-tomspunt/F_759.jpg	29
66.796	0.768	tomspunt	smiling?	how_face	no	no	correct	task-tomspunt/F_412.jpg	30
67.879	0.852	tomspunt	smiling?	how_face	yes	yes	correct	task-tomspunt/F_593.jpg	31
73.139	2.101	tomspunt	lifting?	block_question_presentation	n/a	n/a	n/a	n/a	32
73.139	0.3	tomspunt	lifting?	block_question_presentation	n/a	n/a	n/a	n/a	33
73.139	0.3	tomspunt	lifting?	block_question_presentation	n/a	n/a	n/a	n/a	34
73.139	0.3	tomspunt	lifting?	block_question_presentation	n/a	n/a	n/a	n/a	35
73.139	0.3	tomspunt	lifting?	block_question_presentation	n/a	n/a	n/a	n/a	36
73.139	0.3	tomspunt	lifting?	block_question_presentation	n/a	n/a	n/a	n/a	37
73.139	0.3	tomspunt	lifting?	block_question_presentation	n/a	n/a	n/a	n/a	38
73.139	0.3	tomspunt	lifting?	block_question_presentation	n/a	n/a	n/a	n/a	39
78.15	1.102	tomspunt	lifting?	how_hand	yes	yes	correct	task-tomspunt/H_136.jpg	32
79.567	1.031	tomspunt	lifting?	how_hand	no	no	correct	task-tomspunt/H_038.jpg	33
80.901	1.046	tomspunt	lifting?	how_hand	yes	yes	correct	task-tomspunt/H_189.jpg	34
82.251	0.969	tomspunt	lifting?	how_hand	no	no	correct	task-tomspunt/H_077.jpg	35
83.535	0.829	tomspunt	lifting?	how_hand	yes	yes	correct	task-tomspunt/H_443.jpg	36
84.669	0.795	tomspunt	lifting?	how_hand	no	no	correct	task-tomspunt/H_012.jpg	37
85.769	0.602	tomspunt	lifting?	how_hand	yes	yes	correct	task-tomspunt/H_362.jpg	38
86.686	0.902	tomspunt	lifting?	how_hand	yes	yes	correct	task-tomspunt/H_170.jpg	39
95.631	2.101	tomspunt	helping?	block_question_presentation	n/a	n/a	n/a	n/a	40
95.631	0.3	tomspunt	helping?	block_question_presentation	n/a	n/a	n/a	n/a	41
95.631	0.3	tomspunt	helping?	block_question_presentation	n/a	n/a	n/a	n/a	42
95.631	0.3	tomspunt	helping?	block_question_presentation	n/a	n/a	n/a	n/a	43
95.631	0.3	tomspunt	helping?	block_question_presentation	n/a	n/a	n/a	n/a	44
95.631	0.3	tomspunt	helping?	block_question_presentation	n/a	n/a	n/a	n/a	45
95.631	0.3	tomspunt	helping?	block_question_presentation	n/a	n/a	n/a	n/a	46
95.631	0.3	tomspunt	helping?	block_question_presentation	n/a	n/a	n/a	n/a	47
100.642	1.306	tomspunt	helping?	why_hand	yes	yes	correct	task-tomspunt/H_077.jpg	40
102.259	0.772	tomspunt	helping?	why_hand	yes	yes	correct	task-tomspunt/H_349.jpg	41
103.343	0.785	tomspunt	helping?	why_hand	yes	yes	correct	task-tomspunt/H_474.jpg	42
104.443	1.221	tomspunt	helping?	why_hand	no	yes	incorrect	task-tomspunt/H_024.jpg	43
105.977	0.904	tomspunt	helping?	why_hand	yes	no	incorrect	task-tomspunt/H_012.jpg	44
107.194	1.42	tomspunt	helping?	why_hand	no	no	correct	task-tomspunt/H_159.jpg	45
108.928	1.003	tomspunt	helping?	why_hand	yes	yes	correct	task-tomspunt/H_111.jpg	46
110.245	1.102	tomspunt	helping?	why_hand	no	no	correct	task-tomspunt/H_091.jpg	47
113.504	2.101	tomspunt	proud?	block_question_presentation	n/a	n/a	n/a	n/a	48
113.504	0.3	tomspunt	proud?	block_question_presentation	n/a	n/a	n/a	n/a	49
113.504	0.3	tomspunt	proud?	block_question_presentation	n/a	n/a	n/a	n/a	50
113.504	0.3	tomspunt	proud?	block_question_presentation	n/a	n/a	n/a	n/a	51
113.504	0.3	tomspunt	proud?	block_question_presentation	n/a	n/a	n/a	n/a	52
113.504	0.3	tomspunt	proud?	block_question_presentation	n/a	n/a	n/a	n/a	53
113.504	0.3	tomspunt	proud?	block_question_presentation	n/a	n/a	n/a	n/a	54
113.504	0.3	tomspunt	proud?	block_question_presentation	n/a	n/a	n/a	n/a	55
118.515	1.402	tomspunt	proud?	why_face	yes	yes	correct	task-tomspunt/F_598.jpg	48
120.232	1.148	tomspunt	proud?	why_face	no	no	correct	task-tomspunt/F_760.jpg	49
121.683	0.902	tomspunt	proud?	why_face	yes	yes	correct	task-tomspunt/F_582.jpg	50
122.9	0.831	tomspunt	proud?	why_face	no	no	correct	task-tomspunt/F_412.jpg	51
124.034	1.268	tomspunt	proud?	why_face	yes	yes	correct	task-tomspunt/F_083.jpg	52
125.618	1.981	tomspunt	proud?	why_face	yes	no	incorrect	task-tomspunt/F_776.jpg	53
127.652	0.018	tomspunt	proud?	why_face	yes	yes	correct	task-tomspunt/F_618.jpg	54
127.985	0.018	tomspunt	proud?	why_face	yes	yes	correct	task-tomspunt/F_695.jpg	55
131.027	2.101	tomspunt	looking to side?	block_question_presentation	n/a	n/a	n/a	n/a	56
131.027	0.3	tomspunt	looking to side?	block_question_presentation	n/a	n/a	n/a	n/a	57
131.027	0.3	tomspunt	looking to side?	block_question_presentation	n/a	n/a	n/a	n/a	58
131.027	0.3	tomspunt	looking to side?	block_question_presentation	n/a	n/a	n/a	n/a	59
131.027	0.3	tomspunt	looking to side?	block_question_presentation	n/a	n/a	n/a	n/a	60
131.027	0.3	tomspunt	looking to side?	block_question_presentation	n/a	n/a	n/a	n/a	61
131.027	0.3	tomspunt	looking to side?	block_question_presentation	n/a	n/a	n/a	n/a	62
131.027	0.3	tomspunt	looking to side?	block_question_presentation	n/a	n/a	n/a	n/a	63
136.038	0.668	tomspunt	looking to side?	how_face	yes	yes	correct	task-tomspunt/F_590.jpg	56
137.022	0.909	tomspunt	looking to side?	how_face	yes	yes	correct	task-tomspunt/F_433.jpg	57
138.239	0.659	tomspunt	looking to side?	how_face	yes	yes	correct	task-tomspunt/F_716.jpg	58
139.206	1.142	tomspunt	looking to side?	how_face	no	no	correct	task-tomspunt/F_779.jpg	59
140.657	1.218	tomspunt	looking to side?	how_face	yes	yes	correct	task-tomspunt/F_760.jpg	60
142.19	0.924	tomspunt	looking to side?	how_face	no	no	correct	task-tomspunt/F_111.jpg	61
143.424	1.49	tomspunt	looking to side?	how_face	no	yes	incorrect	task-tomspunt/F_110.jpg	62
145.225	1.202	tomspunt	looking to side?	how_face	no	no	correct	task-tomspunt/F_798.jpg	63
150.134	2.101	tomspunt	argument?	block_question_presentation	n/a	n/a	n/a	n/a	64
150.134	0.3	tomspunt	argument?	block_question_presentation	n/a	n/a	n/a	n/a	65
150.134	0.3	tomspunt	argument?	block_question_presentation	n/a	n/a	n/a	n/a	66
150.134	0.3	tomspunt	argument?	block_question_presentation	n/a	n/a	n/a	n/a	67
150.134	0.3	tomspunt	argument?	block_question_presentation	n/a	n/a	n/a	n/a	68
150.134	0.3	tomspunt	argument?	block_question_presentation	n/a	n/a	n/a	n/a	69
150.134	0.3	tomspunt	argument?	block_question_presentation	n/a	n/a	n/a	n/a	70
150.134	0.3	tomspunt	argument?	block_question_presentation	n/a	n/a	n/a	n/a	71
155.145	1.486	tomspunt	argument?	why_face	yes	yes	correct	task-tomspunt/F_716.jpg	64
156.946	0.785	tomspunt	argument?	why_face	no	no	correct	task-tomspunt/F_139.jpg	65
158.046	0.885	tomspunt	argument?	why_face	yes	yes	correct	task-tomspunt/F_712.jpg	66
159.247	0.868	tomspunt	argument?	why_face	no	no	correct	task-tomspunt/F_433.jpg	67
160.431	0.669	tomspunt	argument?	why_face	yes	yes	correct	task-tomspunt/F_403.jpg	68
161.414	0.902	tomspunt	argument?	why_face	no	no	correct	task-tomspunt/F_844.jpg	69
162.631	0.718	tomspunt	argument?	why_face	yes	yes	correct	task-tomspunt/F_743.jpg	70
163.665	0.985	tomspunt	argument?	why_face	yes	yes	correct	task-tomspunt/F_758.jpg	71
167.974	2.101	tomspunt	open mouth?	block_question_presentation	n/a	n/a	n/a	n/a	72
167.974	0.3	tomspunt	open mouth?	block_question_presentation	n/a	n/a	n/a	n/a	73
167.974	0.3	tomspunt	open mouth?	block_question_presentation	n/a	n/a	n/a	n/a	74
167.974	0.3	tomspunt	open mouth?	block_question_presentation	n/a	n/a	n/a	n/a	75
167.974	0.3	tomspunt	open mouth?	block_question_presentation	n/a	n/a	n/a	n/a	76
167.974	0.3	tomspunt	open mouth?	block_question_presentation	n/a	n/a	n/a	n/a	77
167.974	0.3	tomspunt	open mouth?	block_question_presentation	n/a	n/a	n/a	n/a	78
167.974	0.3	tomspunt	open mouth?	block_question_presentation	n/a	n/a	n/a	n/a	79
172.985	0.835	tomspunt	open mouth?	how_face	yes	yes	correct	task-tomspunt/F_844.jpg	72
174.136	0.679	tomspunt	open mouth?	how_face	yes	yes	correct	task-tomspunt/F_776.jpg	73
175.119	0.901	tomspunt	open mouth?	how_face	no	no	correct	task-tomspunt/F_544.jpg	74
176.337	0.569	tomspunt	open mouth?	how_face	yes	yes	correct	task-tomspunt/F_692.jpg	75
177.22	0.885	tomspunt	open mouth?	how_face	no	no	correct	task-tomspunt/F_584.jpg	76
178.421	0.827	tomspunt	open mouth?	how_face	yes	yes	correct	task-tomspunt/F_403.jpg	77
179.554	0.802	tomspunt	open mouth?	how_face	yes	yes	correct	task-tomspunt/F_086.jpg	78
180.671	0.835	tomspunt	open mouth?	how_face	no	no	correct	task-tomspunt/F_648.jpg	79
185.864	2.101	tomspunt	pressing button?	block_question_presentation	n/a	n/a	n/a	n/a	80
185.864	0.3	tomspunt	pressing button?	block_question_presentation	n/a	n/a	n/a	n/a	81
185.864	0.3	tomspunt	pressing button?	block_question_presentation	n/a	n/a	n/a	n/a	82
185.864	0.3	tomspunt	pressing button?	block_question_presentation	n/a	n/a	n/a	n/a	83
185.864	0.3	tomspunt	pressing button?	block_question_presentation	n/a	n/a	n/a	n/a	84
185.864	0.3	tomspunt	pressing button?	block_question_presentation	n/a	n/a	n/a	n/a	85
185.864	0.3	tomspunt	pressing button?	block_question_presentation	n/a	n/a	n/a	n/a	86
185.864	0.3	tomspunt	pressing button?	block_question_presentation	n/a	n/a	n/a	n/a	87
190.875	1.123	tomspunt	pressing button?	how_hand	yes	yes	correct	task-tomspunt/H_019.jpg	80
192.309	1.055	tomspunt	pressing button?	how_hand	no	no	correct	task-tomspunt/H_024.jpg	81
193.676	0.969	tomspunt	pressing button?	how_hand	no	no	correct	task-tomspunt/H_130.jpg	82
194.96	0.704	tomspunt	pressing button?	how_hand	yes	yes	correct	task-tomspunt/H_502.jpg	83
195.977	0.92	tomspunt	pressing button?	how_hand	no	no	correct	task-tomspunt/H_261.jpg	84
197.211	0.686	tomspunt	pressing button?	how_hand	yes	yes	correct	task-tomspunt/H_332.jpg	85
198.211	0.686	tomspunt	pressing button?	how_hand	yes	yes	correct	task-tomspunt/H_126.jpg	86
199.212	0.853	tomspunt	pressing button?	how_hand	yes	yes	correct	task-tomspunt/H_483.jpg	87
203.654	2.101	tomspunt	competing?	block_question_presentation	n/a	n/a	n/a	n/a	88
203.654	0.3	tomspunt	competing?	block_question_presentation	n/a	n/a	n/a	n/a	89
203.654	0.3	tomspunt	competing?	block_question_presentation	n/a	n/a	n/a	n/a	90
203.654	0.3	tomspunt	competing?	block_question_presentation	n/a	n/a	n/a	n/a	91
203.654	0.3	tomspunt	competing?	block_question_presentation	n/a	n/a	n/a	n/a	92
203.654	0.3	tomspunt	competing?	block_question_presentation	n/a	n/a	n/a	n/a	93
203.654	0.3	tomspunt	competing?	block_question_presentation	n/a	n/a	n/a	n/a	94
203.654	0.3	tomspunt	competing?	block_question_presentation	n/a	n/a	n/a	n/a	95
208.665	0.819	tomspunt	competing?	why_hand	yes	yes	correct	task-tomspunt/H_261.jpg	88
209.799	0.919	tomspunt	competing?	why_hand	no	no	correct	task-tomspunt/H_483.jpg	89
211.033	0.685	tomspunt	competing?	why_hand	yes	yes	correct	task-tomspunt/H_132.jpg	90
212.033	0.897	tomspunt	competing?	why_hand	no	no	correct	task-tomspunt/H_126.jpg	91
213.234	0.902	tomspunt	competing?	why_hand	yes	yes	correct	task-tomspunt/H_136.jpg	92
214.451	0.869	tomspunt	competing?	why_hand	no	no	correct	task-tomspunt/H_502.jpg	93
215.635	0.935	tomspunt	competing?	why_hand	yes	yes	correct	task-tomspunt/H_003.jpg	94
216.885	0.635	tomspunt	competing?	why_hand	yes	yes	correct	task-tomspunt/H_170.jpg	95
221.728	2.101	tomspunt	self-doubt?	block_question_presentation	n/a	n/a	n/a	n/a	96
221.728	0.3	tomspunt	self-doubt?	block_question_presentation	n/a	n/a	n/a	n/a	97
221.728	0.3	tomspunt	self-doubt?	block_question_presentation	n/a	n/a	n/a	n/a	98
221.728	0.3	tomspunt	self-doubt?	block_question_presentation	n/a	n/a	n/a	n/a	99
221.728	0.3	tomspunt	self-doubt?	block_question_presentation	n/a	n/a	n/a	n/a	100
221.728	0.3	tomspunt	self-doubt?	block_question_presentation	n/a	n/a	n/a	n/a	101
221.728	0.3	tomspunt	self-doubt?	block_question_presentation	n/a	n/a	n/a	n/a	102
221.728	0.3	tomspunt	self-doubt?	block_question_presentation	n/a	n/a	n/a	n/a	103
226.739	0.993	tomspunt	self-doubt?	why_face	yes	yes	correct	task-tomspunt/F_544.jpg	96
228.039	1.208	tomspunt	self-doubt?	why_face	no	no	correct	task-tomspunt/F_086.jpg	97
229.556	0.674	tomspunt	self-doubt?	why_face	yes	yes	correct	task-tomspunt/F_798.jpg	98
230.54	1.291	tomspunt	self-doubt?	why_face	yes	yes	correct	task-tomspunt/F_111.jpg	99
232.141	0.84	tomspunt	self-doubt?	why_face	no	no	correct	task-tomspunt/F_774.jpg	100
233.291	0.807	tomspunt	self-doubt?	why_face	yes	yes	correct	task-tomspunt/F_754.jpg	101
234.408	1.256	tomspunt	self-doubt?	why_face	no	no	correct	task-tomspunt/F_128.jpg	102
235.975	1.522	tomspunt	self-doubt?	why_face	no	yes	incorrect	task-tomspunt/F_584.jpg	103
240.785	2.101	tomspunt	looking at camera?	block_question_presentation	n/a	n/a	n/a	n/a	104
240.785	0.3	tomspunt	looking at camera?	block_question_presentation	n/a	n/a	n/a	n/a	105
240.785	0.3	tomspunt	looking at camera?	block_question_presentation	n/a	n/a	n/a	n/a	106
240.785	0.3	tomspunt	looking at camera?	block_question_presentation	n/a	n/a	n/a	n/a	107
240.785	0.3	tomspunt	looking at camera?	block_question_presentation	n/a	n/a	n/a	n/a	108
240.785	0.3	tomspunt	looking at camera?	block_question_presentation	n/a	n/a	n/a	n/a	109
240.785	0.3	tomspunt	looking at camera?	block_question_presentation	n/a	n/a	n/a	n/a	110
240.785	0.3	tomspunt	looking at camera?	block_question_presentation	n/a	n/a	n/a	n/a	111
245.796	0.818	tomspunt	looking at camera?	how_face	yes	yes	correct	task-tomspunt/F_128.jpg	104
246.93	0.735	tomspunt	looking at camera?	how_face	yes	yes	correct	task-tomspunt/F_618.jpg	105
247.98	0.685	tomspunt	looking at camera?	how_face	yes	yes	correct	task-tomspunt/F_598.jpg	106
248.98	0.835	tomspunt	looking at camera?	how_face	no	no	correct	task-tomspunt/F_743.jpg	107
250.131	0.718	tomspunt	looking at camera?	how_face	yes	yes	correct	task-tomspunt/F_774.jpg	108
251.164	0.951	tomspunt	looking at camera?	how_face	no	no	correct	task-tomspunt/F_582.jpg	109
252.432	0.735	tomspunt	looking at camera?	how_face	no	no	correct	task-tomspunt/F_754.jpg	110
253.482	0.882	tomspunt	looking at camera?	how_face	yes	yes	correct	task-tomspunt/F_129.jpg	111
259.575	2.101	tomspunt	both hands?	block_question_presentation	n/a	n/a	n/a	n/a	112
259.575	0.3	tomspunt	both hands?	block_question_presentation	n/a	n/a	n/a	n/a	113
259.575	0.3	tomspunt	both hands?	block_question_presentation	n/a	n/a	n/a	n/a	114
259.575	0.3	tomspunt	both hands?	block_question_presentation	n/a	n/a	n/a	n/a	115
259.575	0.3	tomspunt	both hands?	block_question_presentation	n/a	n/a	n/a	n/a	116
259.575	0.3	tomspunt	both hands?	block_question_presentation	n/a	n/a	n/a	n/a	117
259.575	0.3	tomspunt	both hands?	block_question_presentation	n/a	n/a	n/a	n/a	118
259.575	0.3	tomspunt	both hands?	block_question_presentation	n/a	n/a	n/a	n/a	119
264.586	1.112	tomspunt	both hands?	how_hand	yes	yes	correct	task-tomspunt/H_167.jpg	112
266.003	1.245	tomspunt	both hands?	how_hand	no	no	correct	task-tomspunt/H_091.jpg	113
267.554	1.011	tomspunt	both hands?	how_hand	no	no	correct	task-tomspunt/H_627.jpg	114
268.871	0.86	tomspunt	both hands?	how_hand	yes	yes	correct	task-tomspunt/H_027.jpg	115
270.038	0.901	tomspunt	both hands?	how_hand	yes	yes	correct	task-tomspunt/H_111.jpg	116
271.255	0.943	tomspunt	both hands?	how_hand	no	no	correct	task-tomspunt/H_159.jpg	117
272.506	0.935	tomspunt	both hands?	how_hand	yes	yes	correct	task-tomspunt/H_581.jpg	118
273.756	0.758	tomspunt	both hands?	how_hand	yes	yes	correct	task-tomspunt/H_349.jpg	119
278.366	2.101	tomspunt	self-protection?	block_question_presentation	n/a	n/a	n/a	n/a	120
278.366	0.3	tomspunt	self-protection?	block_question_presentation	n/a	n/a	n/a	n/a	121
278.366	0.3	tomspunt	self-protection?	block_question_presentation	n/a	n/a	n/a	n/a	122
278.366	0.3	tomspunt	self-protection?	block_question_presentation	n/a	n/a	n/a	n/a	123
278.366	0.3	tomspunt	self-protection?	block_question_presentation	n/a	n/a	n/a	n/a	124
278.366	0.3	tomspunt	self-protection?	block_question_presentation	n/a	n/a	n/a	n/a	125
278.366	0.3	tomspunt	self-protection?	block_question_presentation	n/a	n/a	n/a	n/a	126
278.366	0.3	tomspunt	self-protection?	block_question_presentation	n/a	n/a	n/a	n/a	127
283.376	n/a	tomspunt	self-protection?	why_hand	n/a	yes	incorrect	task-tomspunt/H_443.jpg	120
285.411	1.453	tomspunt	self-protection?	why_hand	no	no	correct	task-tomspunt/H_006.jpg	121
287.178	1.37	tomspunt	self-protection?	why_hand	yes	yes	correct	task-tomspunt/H_581.jpg	122
288.862	1.76	tomspunt	self-protection?	why_hand	no	no	correct	task-tomspunt/H_532.jpg	123
290.896	0.835	tomspunt	self-protection?	why_hand	yes	yes	correct	task-tomspunt/H_027.jpg	124
292.046	0.752	tomspunt	self-protection?	why_hand	yes	yes	correct	task-tomspunt/H_038.jpg	125
293.113	0.835	tomspunt	self-protection?	why_hand	no	no	correct	task-tomspunt/H_332.jpg	126
294.264	1.202	tomspunt	self-protection?	why_hand	no	yes	incorrect	task-tomspunt/H_189.jpg	127
299.84	2.101	tomspunt	smiling?	block_question_presentation	n/a	n/a	n/a	n/a	128
299.84	0.3	tomspunt	smiling?	block_question_presentation	n/a	n/a	n/a	n/a	129
299.84	0.3	tomspunt	smiling?	block_question_presentation	n/a	n/a	n/a	n/a	130
299.84	0.3	tomspunt	smiling?	block_question_presentation	n/a	n/a	n/a	n/a	131
299.84	0.3	tomspunt	smiling?	block_question_presentation	n/a	n/a	n/a	n/a	132
299.84	0.3	tomspunt	smiling?	block_question_presentation	n/a	n/a	n/a	n/a	133
299.84	0.3	tomspunt	smiling?	block_question_presentation	n/a	n/a	n/a	n/a	134
299.84	0.3	tomspunt	smiling?	block_question_presentation	n/a	n/a	n/a	n/a	135
304.851	0.735	tomspunt	smiling?	how_face	yes	yes	correct	task-tomspunt/F_759.jpg	128
305.902	0.818	tomspunt	smiling?	how_face	no	no	correct	task-tomspunt/F_412.jpg	129
307.035	0.629	tomspunt	smiling?	how_face	yes	yes	correct	task-tomspunt/F_593.jpg	130
307.969	0.869	tomspunt	smiling?	how_face	no	no	correct	task-tomspunt/F_712.jpg	131
309.153	0.728	tomspunt	smiling?	how_face	yes	yes	correct	task-tomspunt/F_695.jpg	132
310.186	0.786	tomspunt	smiling?	how_face	yes	yes	correct	task-tomspunt/F_139.jpg	133
311.287	0.652	tomspunt	smiling?	how_face	yes	yes	correct	task-tomspunt/F_083.jpg	134
312.254	0.744	tomspunt	smiling?	how_face	no	no	correct	task-tomspunt/F_758.jpg	135
317.63	2.101	tomspunt	admiring?	block_question_presentation	n/a	n/a	n/a	n/a	136
317.63	0.3	tomspunt	admiring?	block_question_presentation	n/a	n/a	n/a	n/a	137
317.63	0.3	tomspunt	admiring?	block_question_presentation	n/a	n/a	n/a	n/a	138
317.63	0.3	tomspunt	admiring?	block_question_presentation	n/a	n/a	n/a	n/a	139
317.63	0.3	tomspunt	admiring?	block_question_presentation	n/a	n/a	n/a	n/a	140
317.63	0.3	tomspunt	admiring?	block_question_presentation	n/a	n/a	n/a	n/a	141
317.63	0.3	tomspunt	admiring?	block_question_presentation	n/a	n/a	n/a	n/a	142
317.63	0.3	tomspunt	admiring?	block_question_presentation	n/a	n/a	n/a	n/a	143
322.641	0.935	tomspunt	admiring?	why_face	yes	yes	correct	task-tomspunt/F_593.jpg	136
323.892	0.668	tomspunt	admiring?	why_face	no	no	correct	task-tomspunt/F_129.jpg	137
324.875	0.605	tomspunt	admiring?	why_face	yes	yes	correct	task-tomspunt/F_759.jpg	138
325.792	0.722	tomspunt	admiring?	why_face	no	no	correct	task-tomspunt/F_692.jpg	139
326.826	0.668	tomspunt	admiring?	why_face	yes	yes	correct	task-tomspunt/F_779.jpg	140
327.81	0.671	tomspunt	admiring?	why_face	yes	yes	correct	task-tomspunt/F_590.jpg	141
328.793	0.72	tomspunt	admiring?	why_face	yes	yes	correct	task-tomspunt/F_648.jpg	142
329.827	0.72	tomspunt	admiring?	why_face	no	no	correct	task-tomspunt/F_110.jpg	143
335.52	2.101	tomspunt	competing?	block_question_presentation	n/a	n/a	n/a	n/a	144
335.52	0.3	tomspunt	competing?	block_question_presentation	n/a	n/a	n/a	n/a	145
335.52	0.3	tomspunt	competing?	block_question_presentation	n/a	n/a	n/a	n/a	146
335.52	0.3	tomspunt	competing?	block_question_presentation	n/a	n/a	n/a	n/a	147
335.52	0.3	tomspunt	competing?	block_question_presentation	n/a	n/a	n/a	n/a	148
335.52	0.3	tomspunt	competing?	block_question_presentation	n/a	n/a	n/a	n/a	149
335.52	0.3	tomspunt	competing?	block_question_presentation	n/a	n/a	n/a	n/a	150
335.52	0.3	tomspunt	competing?	block_question_presentation	n/a	n/a	n/a	n/a	151
340.531	0.717	tomspunt	competing?	why_hand	yes	yes	correct	task-tomspunt/H_261.jpg	144
341.548	0.735	tomspunt	competing?	why_hand	yes	yes	correct	task-tomspunt/H_170.jpg	145
342.599	0.902	tomspunt	competing?	why_hand	no	no	correct	task-tomspunt/H_483.jpg	146
343.816	0.635	tomspunt	competing?	why_hand	yes	yes	correct	task-tomspunt/H_132.jpg	147
344.766	0.801	tomspunt	competing?	why_hand	yes	yes	correct	task-tomspunt/H_136.jpg	148
345.883	0.714	tomspunt	competing?	why_hand	yes	yes	correct	task-tomspunt/H_003.jpg	149
346.9	0.685	tomspunt	competing?	why_hand	yes	no	incorrect	task-tomspunt/H_126.jpg	150
347.901	0.931	tomspunt	competing?	why_hand	no	no	correct	task-tomspunt/H_502.jpg	151
357.012	2.084	tomspunt	reaching?	block_question_presentation	n/a	n/a	n/a	n/a	152
357.012	0.3	tomspunt	reaching?	block_question_presentation	n/a	n/a	n/a	n/a	153
357.012	0.3	tomspunt	reaching?	block_question_presentation	n/a	n/a	n/a	n/a	154
357.012	0.3	tomspunt	reaching?	block_question_presentation	n/a	n/a	n/a	n/a	155
357.012	0.3	tomspunt	reaching?	block_question_presentation	n/a	n/a	n/a	n/a	156
357.012	0.3	tomspunt	reaching?	block_question_presentation	n/a	n/a	n/a	n/a	157
357.012	0.3	tomspunt	reaching?	block_question_presentation	n/a	n/a	n/a	n/a	158
357.012	0.3	tomspunt	reaching?	block_question_presentation	n/a	n/a	n/a	n/a	159
362.006	0.742	tomspunt	reaching?	how_hand	yes	yes	correct	task-tomspunt/H_003.jpg	152
363.056	0.858	tomspunt	reaching?	how_hand	yes	yes	correct	task-tomspunt/H_364.jpg	153
364.223	0.991	tomspunt	reaching?	how_hand	no	no	correct	task-tomspunt/H_532.jpg	154
365.524	0.891	tomspunt	reaching?	how_hand	yes	yes	correct	task-tomspunt/H_006.jpg	155
366.724	0.84	tomspunt	reaching?	how_hand	no	no	correct	task-tomspunt/H_438.jpg	156
367.875	0.807	tomspunt	reaching?	how_hand	yes	yes	correct	task-tomspunt/H_007.jpg	157
368.992	1.373	tomspunt	reaching?	how_hand	yes	yes	correct	task-tomspunt/H_474.jpg	158
370.676	0.652	tomspunt	reaching?	how_hand	yes	no	incorrect	task-tomspunt/H_132.jpg	159
374.852	2.084	tomspunt	open mouth?	block_question_presentation	n/a	n/a	n/a	n/a	160
374.852	0.3	tomspunt	open mouth?	block_question_presentation	n/a	n/a	n/a	n/a	161
374.852	0.3	tomspunt	open mouth?	block_question_presentation	n/a	n/a	n/a	n/a	162
374.852	0.3	tomspunt	open mouth?	block_question_presentation	n/a	n/a	n/a	n/a	163
374.852	0.3	tomspunt	open mouth?	block_question_presentation	n/a	n/a	n/a	n/a	164
374.852	0.3	tomspunt	open mouth?	block_question_presentation	n/a	n/a	n/a	n/a	165
374.852	0.3	tomspunt	open mouth?	block_question_presentation	n/a	n/a	n/a	n/a	166
374.852	0.3	tomspunt	open mouth?	block_question_presentation	n/a	n/a	n/a	n/a	167
379.846	0.702	tomspunt	open mouth?	how_face	yes	yes	correct	task-tomspunt/F_403.jpg	160
380.863	0.769	tomspunt	open mouth?	how_face	no	no	correct	task-tomspunt/F_648.jpg	161
381.947	0.669	tomspunt	open mouth?	how_face	yes	yes	correct	task-tomspunt/F_776.jpg	162
382.93	0.018	tomspunt	open mouth?	how_face	yes	no	incorrect	task-tomspunt/F_584.jpg	163
383.264	0.952	tomspunt	open mouth?	how_face	yes	yes	correct	task-tomspunt/F_844.jpg	164
384.531	0.783	tomspunt	open mouth?	how_face	yes	yes	correct	task-tomspunt/F_692.jpg	165
385.615	0.685	tomspunt	open mouth?	how_face	yes	yes	correct	task-tomspunt/F_086.jpg	166
386.615	0.869	tomspunt	open mouth?	how_face	no	no	correct	task-tomspunt/F_544.jpg	167
393.525	2.101	tomspunt	argument?	block_question_presentation	n/a	n/a	n/a	n/a	168
393.525	0.3	tomspunt	argument?	block_question_presentation	n/a	n/a	n/a	n/a	169
393.525	0.3	tomspunt	argument?	block_question_presentation	n/a	n/a	n/a	n/a	170
393.525	0.3	tomspunt	argument?	block_question_presentation	n/a	n/a	n/a	n/a	171
393.525	0.3	tomspunt	argument?	block_question_presentation	n/a	n/a	n/a	n/a	172
393.525	0.3	tomspunt	argument?	block_question_presentation	n/a	n/a	n/a	n/a	173
393.525	0.3	tomspunt	argument?	block_question_presentation	n/a	n/a	n/a	n/a	174
393.525	0.3	tomspunt	argument?	block_question_presentation	n/a	n/a	n/a	n/a	175
398.536	0.695	tomspunt	argument?	why_face	yes	yes	correct	task-tomspunt/F_403.jpg	168
399.536	1.095	tomspunt	argument?	why_face	no	no	correct	task-tomspunt/F_844.jpg	169
400.937	1.235	tomspunt	argument?	why_face	yes	yes	correct	task-tomspunt/F_712.jpg	170
402.488	0.876	tomspunt	argument?	why_face	yes	yes	correct	task-tomspunt/F_758.jpg	171
403.671	0.027	tomspunt	argument?	why_face	yes	no	incorrect	task-tomspunt/F_433.jpg	172
404.005	1.393	tomspunt	argument?	why_face	yes	yes	correct	task-tomspunt/F_716.jpg	173
405.705	0.026	tomspunt	argument?	why_face	yes	no	incorrect	task-tomspunt/F_139.jpg	174
406.039	1.459	tomspunt	argument?	why_face	yes	yes	correct	task-tomspunt/F_743.jpg	175
411.732	2.101	tomspunt	helping?	block_question_presentation	n/a	n/a	n/a	n/a	176
411.732	0.3	tomspunt	helping?	block_question_presentation	n/a	n/a	n/a	n/a	177
411.732	0.3	tomspunt	helping?	block_question_presentation	n/a	n/a	n/a	n/a	178
411.732	0.3	tomspunt	helping?	block_question_presentation	n/a	n/a	n/a	n/a	179
411.732	0.3	tomspunt	helping?	block_question_presentation	n/a	n/a	n/a	n/a	180
411.732	0.3	tomspunt	helping?	block_question_presentation	n/a	n/a	n/a	n/a	181
411.732	0.3	tomspunt	helping?	block_question_presentation	n/a	n/a	n/a	n/a	182
411.732	0.3	tomspunt	helping?	block_question_presentation	n/a	n/a	n/a	n/a	183
416.743	1.188	tomspunt	helping?	why_hand	yes	yes	correct	task-tomspunt/H_024.jpg	176
418.243	0.021	tomspunt	helping?	why_hand	yes	yes	correct	task-tomspunt/H_349.jpg	177
418.577	1.638	tomspunt	helping?	why_hand	yes	yes	correct	task-tomspunt/H_077.jpg	178
420.528	0.953	tomspunt	helping?	why_hand	yes	yes	correct	task-tomspunt/H_474.jpg	179
421.795	0.853	tomspunt	helping?	why_hand	no	no	correct	task-tomspunt/H_091.jpg	180
422.962	1.385	tomspunt	helping?	why_hand	no	no	correct	task-tomspunt/H_159.jpg	181
424.662	0.869	tomspunt	helping?	why_hand	yes	yes	correct	task-tomspunt/H_111.jpg	182
425.846	1.035	tomspunt	helping?	why_hand	no	no	correct	task-tomspunt/H_012.jpg	183
429.805	2.101	tomspunt	both hands?	block_question_presentation	n/a	n/a	n/a	n/a	184
429.805	0.3	tomspunt	both hands?	block_question_presentation	n/a	n/a	n/a	n/a	185
429.805	0.3	tomspunt	both hands?	block_question_presentation	n/a	n/a	n/a	n/a	186
429.805	0.3	tomspunt	both hands?	block_question_presentation	n/a	n/a	n/a	n/a	187
429.805	0.3	tomspunt	both hands?	block_question_presentation	n/a	n/a	n/a	n/a	188
429.805	0.3	tomspunt	both hands?	block_question_presentation	n/a	n/a	n/a	n/a	189
429.805	0.3	tomspunt	both hands?	block_question_presentation	n/a	n/a	n/a	n/a	190
429.805	0.3	tomspunt	both hands?	block_question_presentation	n/a	n/a	n/a	n/a	191
434.816	0.752	tomspunt	both hands?	how_hand	yes	yes	correct	task-tomspunt/H_111.jpg	184
435.883	0.769	tomspunt	both hands?	how_hand	yes	yes	correct	task-tomspunt/H_027.jpg	185
436.967	0.668	tomspunt	both hands?	how_hand	no	no	correct	task-tomspunt/H_091.jpg	186
437.951	0.68	tomspunt	both hands?	how_hand	yes	yes	correct	task-tomspunt/H_167.jpg	187
438.934	0.801	tomspunt	both hands?	how_hand	yes	yes	correct	task-tomspunt/H_581.jpg	188
440.052	0.896	tomspunt	both hands?	how_hand	no	no	correct	task-tomspunt/H_159.jpg	189
441.252	0.601	tomspunt	both hands?	how_hand	yes	yes	correct	task-tomspunt/H_349.jpg	190
442.169	0.719	tomspunt	both hands?	how_hand	no	no	correct	task-tomspunt/H_627.jpg	191
447.329	2.101	tomspunt	healthy?	block_question_presentation	n/a	n/a	n/a	n/a	192
447.329	0.3	tomspunt	healthy?	block_question_presentation	n/a	n/a	n/a	n/a	193
447.329	0.3	tomspunt	healthy?	block_question_presentation	n/a	n/a	n/a	n/a	194
447.329	0.3	tomspunt	healthy?	block_question_presentation	n/a	n/a	n/a	n/a	195
447.329	0.3	tomspunt	healthy?	block_question_presentation	n/a	n/a	n/a	n/a	196
447.329	0.3	tomspunt	healthy?	block_question_presentation	n/a	n/a	n/a	n/a	197
447.329	0.3	tomspunt	healthy?	block_question_presentation	n/a	n/a	n/a	n/a	198
447.329	0.3	tomspunt	healthy?	block_question_presentation	n/a	n/a	n/a	n/a	199
452.339	0.842	tomspunt	healthy?	why_hand	yes	yes	correct	task-tomspunt/H_438.jpg	192
453.49	1.441	tomspunt	healthy?	why_hand	yes	yes	correct	task-tomspunt/H_364.jpg	193
455.241	0.674	tomspunt	healthy?	why_hand	yes	yes	correct	task-tomspunt/H_362.jpg	194
456.224	1.023	tomspunt	healthy?	why_hand	no	no	correct	task-tomspunt/H_019.jpg	195
457.558	0.785	tomspunt	healthy?	why_hand	yes	yes	correct	task-tomspunt/H_167.jpg	196
458.658	0.801	tomspunt	healthy?	why_hand	no	no	correct	task-tomspunt/H_007.jpg	197
459.776	1.155	tomspunt	healthy?	why_hand	yes	yes	correct	task-tomspunt/H_627.jpg	198
461.243	0.822	tomspunt	healthy?	why_hand	no	no	correct	task-tomspunt/H_130.jpg	199
466.386	2.101	tomspunt	pressing button?	block_question_presentation	n/a	n/a	n/a	n/a	200
466.386	0.3	tomspunt	pressing button?	block_question_presentation	n/a	n/a	n/a	n/a	201
466.386	0.3	tomspunt	pressing button?	block_question_presentation	n/a	n/a	n/a	n/a	202
466.386	0.3	tomspunt	pressing button?	block_question_presentation	n/a	n/a	n/a	n/a	203
466.386	0.3	tomspunt	pressing button?	block_question_presentation	n/a	n/a	n/a	n/a	204
466.386	0.3	tomspunt	pressing button?	block_question_presentation	n/a	n/a	n/a	n/a	205
466.386	0.3	tomspunt	pressing button?	block_question_presentation	n/a	n/a	n/a	n/a	206
466.386	0.3	tomspunt	pressing button?	block_question_presentation	n/a	n/a	n/a	n/a	207
471.397	0.768	tomspunt	pressing button?	how_hand	yes	yes	correct	task-tomspunt/H_126.jpg	200
472.48	0.902	tomspunt	pressing button?	how_hand	no	no	correct	task-tomspunt/H_130.jpg	201
473.697	0.718	tomspunt	pressing button?	how_hand	yes	yes	correct	task-tomspunt/H_483.jpg	202
474.731	0.785	tomspunt	pressing button?	how_hand	no	no	correct	task-tomspunt/H_024.jpg	203
475.832	0.883	tomspunt	pressing button?	how_hand	yes	yes	correct	task-tomspunt/H_332.jpg	204
477.015	0.715	tomspunt	pressing button?	how_hand	yes	yes	correct	task-tomspunt/H_019.jpg	205
478.032	0.718	tomspunt	pressing button?	how_hand	no	no	correct	task-tomspunt/H_261.jpg	206
479.066	0.782	tomspunt	pressing button?	how_hand	yes	yes	correct	task-tomspunt/H_502.jpg	207
483.909	2.101	tomspunt	looking at camera?	block_question_presentation	n/a	n/a	n/a	n/a	208
483.909	0.3	tomspunt	looking at camera?	block_question_presentation	n/a	n/a	n/a	n/a	209
483.909	0.3	tomspunt	looking at camera?	block_question_presentation	n/a	n/a	n/a	n/a	210
483.909	0.3	tomspunt	looking at camera?	block_question_presentation	n/a	n/a	n/a	n/a	211
483.909	0.3	tomspunt	looking at camera?	block_question_presentation	n/a	n/a	n/a	n/a	212
483.909	0.3	tomspunt	looking at camera?	block_question_presentation	n/a	n/a	n/a	n/a	213
483.909	0.3	tomspunt	looking at camera?	block_question_presentation	n/a	n/a	n/a	n/a	214
483.909	0.3	tomspunt	looking at camera?	block_question_presentation	n/a	n/a	n/a	n/a	215
488.92	0.651	tomspunt	looking at camera?	how_face	yes	yes	correct	task-tomspunt/F_618.jpg	208
489.887	0.985	tomspunt	looking at camera?	how_face	no	no	correct	task-tomspunt/F_754.jpg	209
491.187	0.685	tomspunt	looking at camera?	how_face	yes	yes	correct	task-tomspunt/F_129.jpg	210
492.188	0.727	tomspunt	looking at camera?	how_face	yes	yes	correct	task-tomspunt/F_598.jpg	211
493.221	0.626	tomspunt	looking at camera?	how_face	yes	yes	correct	task-tomspunt/F_128.jpg	212
494.155	0.969	tomspunt	looking at camera?	how_face	no	no	correct	task-tomspunt/F_582.jpg	213
495.439	0.575	tomspunt	looking at camera?	how_face	yes	yes	correct	task-tomspunt/F_774.jpg	214
496.323	0.792	tomspunt	looking at camera?	how_face	no	no	correct	task-tomspunt/F_743.jpg	215
502.866	2.101	tomspunt	self-doubt?	block_question_presentation	n/a	n/a	n/a	n/a	216
502.866	0.3	tomspunt	self-doubt?	block_question_presentation	n/a	n/a	n/a	n/a	217
502.866	0.3	tomspunt	self-doubt?	block_question_presentation	n/a	n/a	n/a	n/a	218
502.866	0.3	tomspunt	self-doubt?	block_question_presentation	n/a	n/a	n/a	n/a	219
502.866	0.3	tomspunt	self-doubt?	block_question_presentation	n/a	n/a	n/a	n/a	220
502.866	0.3	tomspunt	self-doubt?	block_question_presentation	n/a	n/a	n/a	n/a	221
502.866	0.3	tomspunt	self-doubt?	block_question_presentation	n/a	n/a	n/a	n/a	222
502.866	0.3	tomspunt	self-doubt?	block_question_presentation	n/a	n/a	n/a	n/a	223
507.877	0.971	tomspunt	self-doubt?	why_face	yes	yes	correct	task-tomspunt/F_798.jpg	216
509.161	1.004	tomspunt	self-doubt?	why_face	no	no	correct	task-tomspunt/F_086.jpg	217
510.478	1.236	tomspunt	self-doubt?	why_face	yes	yes	correct	task-tomspunt/F_544.jpg	218
512.028	1.069	tomspunt	self-doubt?	why_face	yes	yes	correct	task-tomspunt/F_754.jpg	219
513.412	0.868	tomspunt	self-doubt?	why_face	yes	yes	correct	task-tomspunt/F_111.jpg	220
514.596	0.835	tomspunt	self-doubt?	why_face	no	yes	incorrect	task-tomspunt/F_584.jpg	221
515.746	0.785	tomspunt	self-doubt?	why_face	yes	no	incorrect	task-tomspunt/F_128.jpg	222
516.847	1.828	tomspunt	self-doubt?	why_face	no	no	correct	task-tomspunt/F_774.jpg	223
520.389	2.101	tomspunt	self-protection?	block_question_presentation	n/a	n/a	n/a	n/a	224
520.389	0.3	tomspunt	self-protection?	block_question_presentation	n/a	n/a	n/a	n/a	225
520.389	0.3	tomspunt	self-protection?	block_question_presentation	n/a	n/a	n/a	n/a	226
520.389	0.3	tomspunt	self-protection?	block_question_presentation	n/a	n/a	n/a	n/a	227
520.389	0.3	tomspunt	self-protection?	block_question_presentation	n/a	n/a	n/a	n/a	228
520.389	0.3	tomspunt	self-protection?	block_question_presentation	n/a	n/a	n/a	n/a	229
520.389	0.3	tomspunt	self-protection?	block_question_presentation	n/a	n/a	n/a	n/a	230
520.389	0.3	tomspunt	self-protection?	block_question_presentation	n/a	n/a	n/a	n/a	231
525.4	0.902	tomspunt	self-protection?	why_hand	yes	yes	correct	task-tomspunt/H_581.jpg	224
526.617	1.252	tomspunt	self-protection?	why_hand	yes	yes	correct	task-tomspunt/H_443.jpg	225
528.184	1.397	tomspunt	self-protection?	why_hand	no	no	correct	task-tomspunt/H_332.jpg	226
529.885	0.969	tomspunt	self-protection?	why_hand	yes	yes	correct	task-tomspunt/H_027.jpg	227
531.169	0.962	tomspunt	self-protection?	why_hand	no	no	correct	task-tomspunt/H_532.jpg	228
532.436	1.085	tomspunt	self-protection?	why_hand	no	yes	incorrect	task-tomspunt/H_189.jpg	229
533.837	1.294	tomspunt	self-protection?	why_hand	no	no	correct	task-tomspunt/H_006.jpg	230
535.437	0.869	tomspunt	self-protection?	why_hand	yes	yes	correct	task-tomspunt/H_038.jpg	231
538.613	2.101	tomspunt	lifting?	block_question_presentation	n/a	n/a	n/a	n/a	232
538.613	0.3	tomspunt	lifting?	block_question_presentation	n/a	n/a	n/a	n/a	233
538.613	0.3	tomspunt	lifting?	block_question_presentation	n/a	n/a	n/a	n/a	234
538.613	0.3	tomspunt	lifting?	block_question_presentation	n/a	n/a	n/a	n/a	235
538.613	0.3	tomspunt	lifting?	block_question_presentation	n/a	n/a	n/a	n/a	236
538.613	0.3	tomspunt	lifting?	block_question_presentation	n/a	n/a	n/a	n/a	237
538.613	0.3	tomspunt	lifting?	block_question_presentation	n/a	n/a	n/a	n/a	238
538.613	0.3	tomspunt	lifting?	block_question_presentation	n/a	n/a	n/a	n/a	239
543.623	0.951	tomspunt	lifting?	how_hand	yes	yes	correct	task-tomspunt/H_443.jpg	232
544.891	1.107	tomspunt	lifting?	how_hand	no	no	correct	task-tomspunt/H_038.jpg	233
546.308	0.718	tomspunt	lifting?	how_hand	yes	yes	correct	task-tomspunt/H_136.jpg	234
547.342	1.139	tomspunt	lifting?	how_hand	no	no	correct	task-tomspunt/H_012.jpg	235
548.792	0.906	tomspunt	lifting?	how_hand	yes	yes	correct	task-tomspunt/H_362.jpg	236
550.009	0.872	tomspunt	lifting?	how_hand	no	yes	incorrect	task-tomspunt/H_189.jpg	237
551.193	0.755	tomspunt	lifting?	how_hand	yes	yes	correct	task-tomspunt/H_170.jpg	238
552.26	1.338	tomspunt	lifting?	how_hand	no	no	correct	task-tomspunt/H_077.jpg	239
556.486	2.101	tomspunt	looking to side?	block_question_presentation	n/a	n/a	n/a	n/a	240
556.486	0.3	tomspunt	looking to side?	block_question_presentation	n/a	n/a	n/a	n/a	241
556.486	0.3	tomspunt	looking to side?	block_question_presentation	n/a	n/a	n/a	n/a	242
556.486	0.3	tomspunt	looking to side?	block_question_presentation	n/a	n/a	n/a	n/a	243
556.486	0.3	tomspunt	looking to side?	block_question_presentation	n/a	n/a	n/a	n/a	244
556.486	0.3	tomspunt	looking to side?	block_question_presentation	n/a	n/a	n/a	n/a	245
556.486	0.3	tomspunt	looking to side?	block_question_presentation	n/a	n/a	n/a	n/a	246
556.486	0.3	tomspunt	looking to side?	block_question_presentation	n/a	n/a	n/a	n/a	247
561.497	0.969	tomspunt	looking to side?	how_face	yes	yes	correct	task-tomspunt/F_716.jpg	240
562.781	1.035	tomspunt	looking to side?	how_face	no	no	correct	task-tomspunt/F_798.jpg	241
564.131	0.701	tomspunt	looking to side?	how_face	yes	yes	correct	task-tomspunt/F_760.jpg	242
565.148	1.418	tomspunt	looking to side?	how_face	yes	yes	correct	task-tomspunt/F_110.jpg	243
566.882	0.985	tomspunt	looking to side?	how_face	no	no	correct	task-tomspunt/F_779.jpg	244
568.183	0.819	tomspunt	looking to side?	how_face	yes	yes	correct	task-tomspunt/F_590.jpg	245
569.316	0.881	tomspunt	looking to side?	how_face	no	no	correct	task-tomspunt/F_111.jpg	246
570.5	1.002	tomspunt	looking to side?	how_face	yes	yes	correct	task-tomspunt/F_433.jpg	247
578.961	2.101	tomspunt	proud?	block_question_presentation	n/a	n/a	n/a	n/a	248
578.961	0.3	tomspunt	proud?	block_question_presentation	n/a	n/a	n/a	n/a	249
578.961	0.3	tomspunt	proud?	block_question_presentation	n/a	n/a	n/a	n/a	250
578.961	0.3	tomspunt	proud?	block_question_presentation	n/a	n/a	n/a	n/a	251
578.961	0.3	tomspunt	proud?	block_question_presentation	n/a	n/a	n/a	n/a	252
578.961	0.3	tomspunt	proud?	block_question_presentation	n/a	n/a	n/a	n/a	253
578.961	0.3	tomspunt	proud?	block_question_presentation	n/a	n/a	n/a	n/a	254
578.961	0.3	tomspunt	proud?	block_question_presentation	n/a	n/a	n/a	n/a	255
583.972	1.152	tomspunt	proud?	why_face	yes	yes	correct	task-tomspunt/F_083.jpg	248
585.439	0.742	tomspunt	proud?	why_face	yes	yes	correct	task-tomspunt/F_582.jpg	249
586.489	0.741	tomspunt	proud?	why_face	yes	yes	correct	task-tomspunt/F_618.jpg	250
587.54	n/a	tomspunt	proud?	why_face	n/a	no	incorrect	task-tomspunt/F_776.jpg	251
589.574	0.54	tomspunt	proud?	why_face	yes	yes	correct	task-tomspunt/F_598.jpg	252
590.424	1.106	tomspunt	proud?	why_face	no	no	correct	task-tomspunt/F_760.jpg	253
591.841	0.785	tomspunt	proud?	why_face	no	no	correct	task-tomspunt/F_412.jpg	254
592.942	0.756	tomspunt	proud?	why_face	yes	yes	correct	task-tomspunt/F_695.jpg	255
