onset	duration	subtask_type	question	event_type	participant_response	normative_response	response_accuracy	stim_file
5.022480010986328	1.2801899909973145	tomspunt	reaching?	how_hand	yes	yes	correct	task-tomspunt/H_006.jpg
6.606410026550293	0.686269998550415	tomspunt	reaching?	how_hand	yes	no	incorrect	task-tomspunt/H_438.jpg
7.606780052185059	0.9618699550628662	tomspunt	reaching?	how_hand	yes	yes	correct	task-tomspunt/H_003.jpg
8.873929977416992	0.8113698959350586	tomspunt	reaching?	how_hand	yes	yes	correct	task-tomspunt/H_474.jpg
9.99101996421814	0.9717199802398682	tomspunt	reaching?	how_hand	no	no	correct	task-tomspunt/H_532.jpg
11.274839878082275	0.7696101665496826	tomspunt	reaching?	how_hand	yes	yes	correct	task-tomspunt/H_364.jpg
12.358579874038696	0.6358401775360107	tomspunt	reaching?	how_hand	yes	yes	correct	task-tomspunt/H_007.jpg
13.308939933776855	0.8361499309539795	tomspunt	reaching?	how_hand	no	no	correct	task-tomspunt/H_132.jpg
23.97962999343872	1.0055298805236816	tomspunt	healthy?	why_hand	yes	yes	correct	task-tomspunt/H_438.jpg
25.29678988456726	1.4366400241851809	tomspunt	healthy?	why_hand	no	no	correct	task-tomspunt/H_007.jpg
27.047460079193115	1.353839874267578	tomspunt	healthy?	why_hand	no	yes	incorrect	task-tomspunt/H_364.jpg
28.714750051498413	1.1196999549865725	tomspunt	healthy?	why_hand	no	no	correct	task-tomspunt/H_019.jpg
30.148629903793335	1.1858701705932615	tomspunt	healthy?	why_hand	yes	yes	correct	task-tomspunt/H_167.jpg
31.649189949035645	0.969640016555786	tomspunt	healthy?	why_hand	no	no	correct	task-tomspunt/H_130.jpg
32.93300986289978	0.8857700824737549	tomspunt	healthy?	why_hand	yes	yes	correct	task-tomspunt/H_627.jpg
34.13346004486084	0.8858699798583984	tomspunt	healthy?	why_hand	yes	yes	correct	task-tomspunt/H_362.jpg
46.471450090408325	0.9297199249267578	tomspunt	proud?	why_face	yes	yes	correct	task-tomspunt/F_083.jpg
47.70525002479553	0.8629300594329834	tomspunt	proud?	why_face	no	no	correct	task-tomspunt/F_412.jpg
48.87235999107361	0.8371000289916992	tomspunt	proud?	why_face	yes	yes	correct	task-tomspunt/F_695.jpg
50.02279996871948	0.8693900108337402	tomspunt	proud?	why_face	yes	yes	correct	task-tomspunt/F_598.jpg
51.20657992362976	0.9289801120758056	tomspunt	proud?	why_face	yes	yes	correct	task-tomspunt/F_618.jpg
52.44038009643555	0.7609097957611084	tomspunt	proud?	why_face	yes	yes	correct	task-tomspunt/F_582.jpg
53.50744009017944	0.9610698223114014	tomspunt	proud?	why_face	no	no	correct	task-tomspunt/F_760.jpg
54.77459001541138	0.8523399829864502	tomspunt	proud?	why_face	no	no	correct	task-tomspunt/F_776.jpg
64.34487009048462	0.5732898712158203	tomspunt	smiling?	how_face	yes	yes	correct	task-tomspunt/F_695.jpg
65.22853994369507	0.7562699317932129	tomspunt	smiling?	how_face	no	no	correct	task-tomspunt/F_412.jpg
66.29560995101929	0.6024000644683838	tomspunt	smiling?	how_face	yes	yes	correct	task-tomspunt/F_083.jpg
67.21262001991272	0.6222999095916748	tomspunt	smiling?	how_face	yes	yes	correct	task-tomspunt/F_593.jpg
68.14630007743835	0.8525898456573486	tomspunt	smiling?	how_face	no	no	correct	task-tomspunt/F_712.jpg
69.31341004371643	0.6378598213195801	tomspunt	smiling?	how_face	yes	yes	correct	task-tomspunt/F_139.jpg
70.26376986503601	0.8873200416564941	tomspunt	smiling?	how_face	yes	yes	correct	task-tomspunt/F_759.jpg
71.46422004699707	0.7706298828125	tomspunt	smiling?	how_face	no	no	correct	task-tomspunt/F_758.jpg
83.4520800113678	0.7855799198150635	tomspunt	both hands?	how_hand	yes	yes	correct	task-tomspunt/H_167.jpg
84.55250000953674	0.7360599040985107	tomspunt	both hands?	how_hand	no	no	correct	task-tomspunt/H_159.jpg
85.60290002822876	0.6985900402069092	tomspunt	both hands?	how_hand	yes	yes	correct	task-tomspunt/H_027.jpg
86.60327005386353	0.719139814376831	tomspunt	both hands?	how_hand	no	yes	incorrect	task-tomspunt/H_581.jpg
87.63700008392334	0.952239990234375	tomspunt	both hands?	how_hand	no	no	correct	task-tomspunt/H_091.jpg
88.90413999557495	0.8139998912811279	tomspunt	both hands?	how_hand	yes	yes	correct	task-tomspunt/H_111.jpg
90.0212299823761	0.8025000095367432	tomspunt	both hands?	how_hand	no	no	correct	task-tomspunt/H_627.jpg
91.13831996917725	0.6023199558258057	tomspunt	both hands?	how_hand	yes	yes	correct	task-tomspunt/H_349.jpg
100.97536993026732	0.8095200061798096	tomspunt	helping?	why_hand	yes	yes	correct	task-tomspunt/H_111.jpg
102.09245991706848	0.7427201271057129	tomspunt	helping?	why_hand	yes	yes	correct	task-tomspunt/H_077.jpg
103.14284992218018	0.6924700736999512	tomspunt	helping?	why_hand	no	no	correct	task-tomspunt/H_159.jpg
104.14322996139526	1.0086300373077393	tomspunt	helping?	why_hand	yes	yes	correct	task-tomspunt/H_474.jpg
105.46039009094238	0.8578598499298096	tomspunt	helping?	why_hand	no	no	correct	task-tomspunt/H_012.jpg
106.62750005722046	0.9246499538421632	tomspunt	helping?	why_hand	no	yes	incorrect	task-tomspunt/H_024.jpg
107.86129999160768	0.9568700790405272	tomspunt	helping?	why_hand	no	no	correct	task-tomspunt/H_091.jpg
109.1284499168396	0.6403000354766846	tomspunt	helping?	why_hand	yes	yes	correct	task-tomspunt/H_349.jpg
120.01588988304138	1.0192999839782717	tomspunt	self-doubt?	why_face	yes	yes	correct	task-tomspunt/F_754.jpg
121.34973001480104	1.052729845046997	tomspunt	self-doubt?	why_face	no	no	correct	task-tomspunt/F_128.jpg
122.7169098854065	0.8356800079345703	tomspunt	self-doubt?	why_face	yes	yes	correct	task-tomspunt/F_544.jpg
123.86734986305235	0.8692800998687744	tomspunt	self-doubt?	why_face	no	no	correct	task-tomspunt/F_086.jpg
125.05113005638124	0.619379997253418	tomspunt	self-doubt?	why_face	yes	yes	correct	task-tomspunt/F_798.jpg
125.98480987548828	0.8862001895904541	tomspunt	self-doubt?	why_face	yes	yes	correct	task-tomspunt/F_584.jpg
127.18527007102966	0.769089937210083	tomspunt	self-doubt?	why_face	yes	yes	correct	task-tomspunt/F_111.jpg
128.26901006698608	0.649359941482544	tomspunt	self-doubt?	why_face	no	no	correct	task-tomspunt/F_774.jpg
137.80593991279602	0.8294501304626465	tomspunt	looking to side?	how_face	yes	yes	correct	task-tomspunt/F_433.jpg
138.93969988822937	0.7024400234222412	tomspunt	looking to side?	how_face	yes	no	incorrect	task-tomspunt/F_779.jpg
139.95675992965698	0.7782800197601318	tomspunt	looking to side?	how_face	yes	yes	correct	task-tomspunt/F_760.jpg
141.0404999256134	0.7190799713134766	tomspunt	looking to side?	how_face	no	no	correct	task-tomspunt/F_111.jpg
142.0742199420929	1.0691800117492676	tomspunt	looking to side?	how_face	no	no	correct	task-tomspunt/F_798.jpg
143.45808005332947	0.6356298923492432	tomspunt	looking to side?	how_face	yes	yes	correct	task-tomspunt/F_716.jpg
144.40843987464905	0.7195401191711426	tomspunt	looking to side?	how_face	no	yes	incorrect	task-tomspunt/F_590.jpg
145.44215989112854	0.8599801063537598	tomspunt	looking to side?	how_face	no	yes	incorrect	task-tomspunt/F_110.jpg
155.34590005874634	0.9229300022125244	tomspunt	argument?	why_face	yes	yes	correct	task-tomspunt/F_716.jpg
156.57969999313354	0.7723798751831055	tomspunt	argument?	why_face	no	no	correct	task-tomspunt/F_139.jpg
157.66343998908997	0.7052600383758545	tomspunt	argument?	why_face	yes	yes	correct	task-tomspunt/F_743.jpg
158.68049001693726	0.6548299789428711	tomspunt	argument?	why_face	yes	yes	correct	task-tomspunt/F_403.jpg
159.64753007888794	0.9191198348999025	tomspunt	argument?	why_face	yes	yes	correct	task-tomspunt/F_758.jpg
160.88131999969482	0.8860800266265869	tomspunt	argument?	why_face	no	no	correct	task-tomspunt/F_844.jpg
162.08177995681763	0.6697099208831787	tomspunt	argument?	why_face	yes	yes	correct	task-tomspunt/F_712.jpg
163.0654799938202	0.8537399768829346	tomspunt	argument?	why_face	no	no	correct	task-tomspunt/F_433.jpg
174.13632988929749	0.6358602046966553	tomspunt	open mouth?	how_face	yes	yes	correct	task-tomspunt/F_844.jpg
175.08668994903564	0.7359199523925781	tomspunt	open mouth?	how_face	yes	yes	correct	task-tomspunt/F_692.jpg
176.13708996772766	0.598099946975708	tomspunt	open mouth?	how_face	no	no	correct	task-tomspunt/F_584.jpg
177.0374300479889	0.7691299915313721	tomspunt	open mouth?	how_face	yes	yes	correct	task-tomspunt/F_086.jpg
178.1211700439453	0.6024999618530273	tomspunt	open mouth?	how_face	yes	yes	correct	task-tomspunt/F_403.jpg
179.03817987442017	0.8025100231170654	tomspunt	open mouth?	how_face	no	no	correct	task-tomspunt/F_544.jpg
180.1552698612213	0.7299702167510986	tomspunt	open mouth?	how_face	no	no	correct	task-tomspunt/F_648.jpg
181.18899989128113	0.6129801273345947	tomspunt	open mouth?	how_face	yes	yes	correct	task-tomspunt/F_776.jpg
192.20983004570007	0.8422098159790039	tomspunt	lifting?	how_hand	yes	yes	correct	task-tomspunt/H_170.jpg
193.3602600097656	0.9089300632476808	tomspunt	lifting?	how_hand	no	no	correct	task-tomspunt/H_077.jpg
194.57738995552063	0.8247101306915283	tomspunt	lifting?	how_hand	yes	yes	correct	task-tomspunt/H_189.jpg
195.711149930954	0.7414000034332275	tomspunt	lifting?	how_hand	yes	yes	correct	task-tomspunt/H_362.jpg
196.761549949646	0.9692001342773438	tomspunt	lifting?	how_hand	no	no	correct	task-tomspunt/H_012.jpg
198.0453600883484	0.7525699138641357	tomspunt	lifting?	how_hand	yes	yes	correct	task-tomspunt/H_443.jpg
199.1124300956726	0.8236098289489746	tomspunt	lifting?	how_hand	yes	yes	correct	task-tomspunt/H_136.jpg
200.24620008468628	0.8724498748779297	tomspunt	lifting?	how_hand	no	no	correct	task-tomspunt/H_038.jpg
209.7331099510193	0.6692600250244141	tomspunt	competing?	why_hand	yes	yes	correct	task-tomspunt/H_003.jpg
210.71682000160217	0.852180004119873	tomspunt	competing?	why_hand	no	no	correct	task-tomspunt/H_483.jpg
211.88392996788025	0.6525299549102783	tomspunt	competing?	why_hand	yes	yes	correct	task-tomspunt/H_132.jpg
212.8509600162506	0.6191999912261963	tomspunt	competing?	why_hand	yes	yes	correct	task-tomspunt/H_170.jpg
213.78464007377625	0.9194598197937012	tomspunt	competing?	why_hand	no	no	correct	task-tomspunt/H_502.jpg
215.01844000816345	0.8858499526977539	tomspunt	competing?	why_hand	yes	yes	correct	task-tomspunt/H_136.jpg
216.21889996528623	0.8508899211883545	tomspunt	competing?	why_hand	no	no	correct	task-tomspunt/H_126.jpg
217.3693299293518	0.732720136642456	tomspunt	competing?	why_hand	yes	yes	correct	task-tomspunt/H_261.jpg
227.9566600322723	0.7358698844909668	tomspunt	admiring?	why_face	yes	yes	correct	task-tomspunt/F_759.jpg
229.00706005096436	0.7858498096466064	tomspunt	admiring?	why_face	yes	yes	correct	task-tomspunt/F_593.jpg
230.1074800491333	0.8116598129272461	tomspunt	admiring?	why_face	no	no	correct	task-tomspunt/F_692.jpg
231.22457003593445	0.6947100162506104	tomspunt	admiring?	why_face	yes	yes	correct	task-tomspunt/F_590.jpg
232.2249400615692	0.8025000095367432	tomspunt	admiring?	why_face	no	no	correct	task-tomspunt/F_129.jpg
233.34203004837036	0.6769099235534668	tomspunt	admiring?	why_face	yes	yes	correct	task-tomspunt/F_648.jpg
234.32573986053467	0.7763900756835938	tomspunt	admiring?	why_face	no	no	correct	task-tomspunt/F_110.jpg
235.40948009490967	0.6258399486541748	tomspunt	admiring?	why_face	yes	yes	correct	task-tomspunt/F_779.jpg
245.84676003456116	0.5721900463104248	tomspunt	looking at camera?	how_face	yes	yes	correct	task-tomspunt/F_128.jpg
246.73041987419128	0.6384401321411133	tomspunt	looking at camera?	how_face	no	no	correct	task-tomspunt/F_754.jpg
247.68077993392944	0.5857901573181152	tomspunt	looking at camera?	how_face	yes	yes	correct	task-tomspunt/F_598.jpg
248.58112001419067	0.6041998863220215	tomspunt	looking at camera?	how_face	yes	yes	correct	task-tomspunt/F_129.jpg
249.49814009666443	0.8540799617767334	tomspunt	looking at camera?	how_face	yes	yes	correct	task-tomspunt/F_618.jpg
250.66524004936215	0.6703798770904541	tomspunt	looking at camera?	how_face	no	no	correct	task-tomspunt/F_743.jpg
251.6489498615265	0.6365900039672852	tomspunt	looking at camera?	how_face	yes	yes	correct	task-tomspunt/F_774.jpg
252.59930992126465	0.9195799827575684	tomspunt	looking at camera?	how_face	no	no	correct	task-tomspunt/F_582.jpg
267.3215398788452	0.7646701335906982	tomspunt	pressing button?	how_hand	yes	yes	correct	task-tomspunt/H_019.jpg
268.38860988616943	0.5973401069641113	tomspunt	pressing button?	how_hand	yes	yes	correct	task-tomspunt/H_126.jpg
269.28894996643066	0.730449914932251	tomspunt	pressing button?	how_hand	no	no	correct	task-tomspunt/H_130.jpg
270.32266998291016	0.7464399337768555	tomspunt	pressing button?	how_hand	yes	yes	correct	task-tomspunt/H_332.jpg
271.3730700016022	1.0857598781585691	tomspunt	pressing button?	how_hand	no	no	correct	task-tomspunt/H_024.jpg
272.77359986305237	0.7621300220489502	tomspunt	pressing button?	how_hand	yes	yes	correct	task-tomspunt/H_483.jpg
273.8406698703766	0.6284401416778564	tomspunt	pressing button?	how_hand	no	no	correct	task-tomspunt/H_261.jpg
274.7743499279022	0.7528600692749023	tomspunt	pressing button?	how_hand	yes	yes	correct	task-tomspunt/H_502.jpg
285.1616098880768	0.6364400386810303	tomspunt	self-protection?	why_hand	yes	yes	correct	task-tomspunt/H_443.jpg
286.11196994781494	0.8071401119232178	tomspunt	self-protection?	why_hand	yes	yes	correct	task-tomspunt/H_189.jpg
287.2290599346161	0.6900899410247803	tomspunt	self-protection?	why_hand	yes	yes	correct	task-tomspunt/H_027.jpg
288.2294399738312	0.7562301158905029	tomspunt	self-protection?	why_hand	no	no	correct	task-tomspunt/H_532.jpg
289.2965099811554	0.702509880065918	tomspunt	self-protection?	why_hand	yes	yes	correct	task-tomspunt/H_038.jpg
290.3135600090027	0.7391600608825684	tomspunt	self-protection?	why_hand	no	no	correct	task-tomspunt/H_006.jpg
291.3639600276947	0.7884199619293213	tomspunt	self-protection?	why_hand	no	no	correct	task-tomspunt/H_332.jpg
292.4643700122833	0.7878098487854004	tomspunt	self-protection?	why_hand	yes	yes	correct	task-tomspunt/H_581.jpg
303.83534002304077	0.7357699871063232	tomspunt	reaching?	how_hand	yes	yes	correct	task-tomspunt/H_007.jpg
304.88573002815247	0.5840499401092529	tomspunt	reaching?	how_hand	yes	no	incorrect	task-tomspunt/H_532.jpg
305.7693998813629	0.633310079574585	tomspunt	reaching?	how_hand	yes	yes	correct	task-tomspunt/H_474.jpg
306.7030899524689	0.652899980545044	tomspunt	reaching?	how_hand	yes	no	incorrect	task-tomspunt/H_438.jpg
307.67012000083923	0.6190800666809082	tomspunt	reaching?	how_hand	yes	yes	correct	task-tomspunt/H_364.jpg
308.6038100719452	0.702549934387207	tomspunt	reaching?	how_hand	yes	yes	correct	task-tomspunt/H_006.jpg
309.6208598613739	0.5689902305603027	tomspunt	reaching?	how_hand	yes	yes	correct	task-tomspunt/H_003.jpg
310.5045199394226	0.8027899265289307	tomspunt	reaching?	how_hand	no	no	correct	task-tomspunt/H_132.jpg
322.8091700077057	0.8105599880218506	tomspunt	healthy?	why_hand	yes	yes	correct	task-tomspunt/H_627.jpg
323.92625999450684	0.6705498695373535	tomspunt	healthy?	why_hand	yes	yes	correct	task-tomspunt/H_438.jpg
324.9099700450897	0.6025300025939941	tomspunt	healthy?	why_hand	yes	yes	correct	task-tomspunt/H_364.jpg
325.8269798755646	0.8026502132415771	tomspunt	healthy?	why_hand	no	no	correct	task-tomspunt/H_130.jpg
326.9440698623657	0.635810136795044	tomspunt	healthy?	why_hand	yes	yes	correct	task-tomspunt/H_362.jpg
327.8944299221039	0.6690001487731934	tomspunt	healthy?	why_hand	no	no	correct	task-tomspunt/H_007.jpg
328.87812995910645	0.6025400161743164	tomspunt	healthy?	why_hand	yes	yes	correct	task-tomspunt/H_167.jpg
329.7951500415802	0.7356898784637451	tomspunt	healthy?	why_hand	no	no	correct	task-tomspunt/H_019.jpg
345.28433990478516	0.6688401699066162	tomspunt	admiring?	why_face	yes	yes	correct	task-tomspunt/F_779.jpg
346.2680399417877	0.7179300785064697	tomspunt	admiring?	why_face	yes	yes	correct	task-tomspunt/F_593.jpg
347.285089969635	0.7521600723266602	tomspunt	admiring?	why_face	no	no	correct	task-tomspunt/F_110.jpg
348.35215997695923	0.6524100303649902	tomspunt	admiring?	why_face	yes	yes	correct	task-tomspunt/F_590.jpg
349.3191900253296	0.7360098361968994	tomspunt	admiring?	why_face	no	no	correct	task-tomspunt/F_692.jpg
350.3695900440216	0.6689398288726807	tomspunt	admiring?	why_face	yes	yes	correct	task-tomspunt/F_759.jpg
351.3533000946045	0.6525697708129883	tomspunt	admiring?	why_face	yes	yes	correct	task-tomspunt/F_648.jpg
352.3203299045563	0.6856701374053955	tomspunt	admiring?	why_face	no	no	correct	task-tomspunt/F_129.jpg
363.15775990486145	0.8449699878692627	tomspunt	smiling?	how_face	yes	yes	correct	task-tomspunt/F_139.jpg
364.308189868927	0.6192200183868408	tomspunt	smiling?	how_face	no	no	correct	task-tomspunt/F_712.jpg
365.24187994003296	0.6611001491546631	tomspunt	smiling?	how_face	yes	yes	correct	task-tomspunt/F_695.jpg
366.2089099884033	0.6695098876953125	tomspunt	smiling?	how_face	no	no	correct	task-tomspunt/F_758.jpg
367.1926200389862	0.552379846572876	tomspunt	smiling?	how_face	yes	yes	correct	task-tomspunt/F_083.jpg
368.0596098899842	0.5359001159667969	tomspunt	smiling?	how_face	yes	yes	correct	task-tomspunt/F_759.jpg
368.9099299907684	0.5691399574279785	tomspunt	smiling?	how_face	no	no	correct	task-tomspunt/F_412.jpg
369.79360008239746	0.6696798801422119	tomspunt	smiling?	how_face	yes	yes	correct	task-tomspunt/F_593.jpg
382.26498007774353	0.7541799545288086	tomspunt	lifting?	how_hand	yes	yes	correct	task-tomspunt/H_136.jpg
383.33205008506775	0.8704299926757812	tomspunt	lifting?	how_hand	no	no	correct	task-tomspunt/H_038.jpg
384.515830039978	0.5682899951934814	tomspunt	lifting?	how_hand	yes	yes	correct	task-tomspunt/H_189.jpg
385.3994998931885	0.7362701892852783	tomspunt	lifting?	how_hand	no	no	correct	task-tomspunt/H_077.jpg
386.4498999118805	0.68572998046875	tomspunt	lifting?	how_hand	yes	yes	correct	task-tomspunt/H_443.jpg
387.45026993751526	0.668220043182373	tomspunt	lifting?	how_hand	no	no	correct	task-tomspunt/H_012.jpg
388.43397998809814	0.5854098796844482	tomspunt	lifting?	how_hand	yes	yes	correct	task-tomspunt/H_362.jpg
389.3343200683594	1.0851798057556152	tomspunt	lifting?	how_hand	no	yes	incorrect	task-tomspunt/H_170.jpg
399.78826999664307	0.7144498825073242	tomspunt	helping?	why_hand	yes	yes	correct	task-tomspunt/H_077.jpg
400.8053200244904	0.5686600208282471	tomspunt	helping?	why_hand	yes	yes	correct	task-tomspunt/H_349.jpg
401.6889898777008	0.8354701995849609	tomspunt	helping?	why_hand	yes	yes	correct	task-tomspunt/H_474.jpg
402.83942008018494	0.8019797801971436	tomspunt	helping?	why_hand	yes	yes	correct	task-tomspunt/H_024.jpg
403.9565100669861	0.9014499187469482	tomspunt	helping?	why_hand	no	no	correct	task-tomspunt/H_012.jpg
405.1736400127411	0.8122100830078125	tomspunt	helping?	why_hand	no	no	correct	task-tomspunt/H_159.jpg
406.29072999954224	0.6120800971984863	tomspunt	helping?	why_hand	yes	yes	correct	task-tomspunt/H_111.jpg
407.20774006843567	0.8680398464202881	tomspunt	helping?	why_hand	no	no	correct	task-tomspunt/H_091.jpg
418.8454699516296	0.5237300395965576	tomspunt	proud?	why_face	yes	yes	correct	task-tomspunt/F_598.jpg
419.67912006378174	0.706899881362915	tomspunt	proud?	why_face	no	no	correct	task-tomspunt/F_760.jpg
420.696170091629	0.6064999103546143	tomspunt	proud?	why_face	yes	yes	correct	task-tomspunt/F_582.jpg
421.6131899356842	0.6729099750518799	tomspunt	proud?	why_face	no	no	correct	task-tomspunt/F_412.jpg
422.5968899726868	0.6721599102020264	tomspunt	proud?	why_face	yes	yes	correct	task-tomspunt/F_083.jpg
423.58060002326965	0.9387099742889404	tomspunt	proud?	why_face	no	no	correct	task-tomspunt/F_776.jpg
424.83106994628906	0.7043700218200684	tomspunt	proud?	why_face	yes	yes	correct	task-tomspunt/F_618.jpg
425.8481199741363	0.6547601222991943	tomspunt	proud?	why_face	yes	yes	correct	task-tomspunt/F_695.jpg
436.6355299949646	0.751349925994873	tomspunt	looking to side?	how_face	yes	yes	correct	task-tomspunt/F_590.jpg
437.7026000022888	0.5512700080871582	tomspunt	looking to side?	how_face	yes	yes	correct	task-tomspunt/F_433.jpg
438.56959986686707	0.451240062713623	tomspunt	looking to side?	how_face	yes	yes	correct	task-tomspunt/F_716.jpg
439.3365499973297	0.5179200172424316	tomspunt	looking to side?	how_face	yes	no	incorrect	task-tomspunt/F_779.jpg
440.1701998710632	0.6850001811981201	tomspunt	looking to side?	how_face	yes	yes	correct	task-tomspunt/F_760.jpg
441.1705799102783	0.7347099781036377	tomspunt	looking to side?	how_face	no	no	correct	task-tomspunt/F_111.jpg
442.22097992897034	0.5516500473022461	tomspunt	looking to side?	how_face	yes	yes	correct	task-tomspunt/F_110.jpg
443.0879700183869	0.9019899368286132	tomspunt	looking to side?	how_face	no	no	correct	task-tomspunt/F_798.jpg
454.15882992744446	0.9940199851989746	tomspunt	argument?	why_face	no	yes	incorrect	task-tomspunt/F_716.jpg
455.4593200683594	0.7685799598693848	tomspunt	argument?	why_face	no	no	correct	task-tomspunt/F_139.jpg
456.5430600643158	0.818120002746582	tomspunt	argument?	why_face	yes	yes	correct	task-tomspunt/F_712.jpg
457.67682003974915	0.6349999904632568	tomspunt	argument?	why_face	no	no	correct	task-tomspunt/F_433.jpg
458.6271798610687	0.5850601196289062	tomspunt	argument?	why_face	yes	yes	correct	task-tomspunt/F_403.jpg
459.5275199413299	0.6518499851226807	tomspunt	argument?	why_face	no	no	correct	task-tomspunt/F_844.jpg
460.4945499897003	0.6851100921630859	tomspunt	argument?	why_face	yes	yes	correct	task-tomspunt/F_743.jpg
461.4949300289154	0.624039888381958	tomspunt	argument?	why_face	yes	yes	correct	task-tomspunt/F_758.jpg
472.9492599964142	0.5870599746704102	tomspunt	open mouth?	how_face	yes	yes	correct	task-tomspunt/F_844.jpg
473.8496000766754	0.4364798069000244	tomspunt	open mouth?	how_face	yes	yes	correct	task-tomspunt/F_776.jpg
474.5998899936676	0.6694300174713135	tomspunt	open mouth?	how_face	no	no	correct	task-tomspunt/F_544.jpg
475.58359003067017	0.4524500370025635	tomspunt	open mouth?	how_face	yes	yes	correct	task-tomspunt/F_692.jpg
476.35054993629456	0.6690900325775146	tomspunt	open mouth?	how_face	no	no	correct	task-tomspunt/F_584.jpg
477.3342499732971	0.4847300052642822	tomspunt	open mouth?	how_face	yes	yes	correct	task-tomspunt/F_403.jpg
478.13455986976624	0.534480094909668	tomspunt	open mouth?	how_face	yes	yes	correct	task-tomspunt/F_086.jpg
478.98487997055054	0.7012898921966553	tomspunt	open mouth?	how_face	yes	no	incorrect	task-tomspunt/F_648.jpg
491.0227599143982	0.6179599761962891	tomspunt	pressing button?	how_hand	yes	yes	correct	task-tomspunt/H_019.jpg
491.95644998550415	0.8182199001312256	tomspunt	pressing button?	how_hand	no	no	correct	task-tomspunt/H_024.jpg
493.0902099609375	0.6621599197387695	tomspunt	pressing button?	how_hand	no	no	correct	task-tomspunt/H_130.jpg
494.05724000930786	0.551339864730835	tomspunt	pressing button?	how_hand	yes	yes	correct	task-tomspunt/H_502.jpg
494.9242398738861	0.5784502029418945	tomspunt	pressing button?	how_hand	no	no	correct	task-tomspunt/H_261.jpg
495.80790996551514	0.7112901210784912	tomspunt	pressing button?	how_hand	yes	yes	correct	task-tomspunt/H_332.jpg
496.8249599933624	0.8777499198913574	tomspunt	pressing button?	how_hand	yes	yes	correct	task-tomspunt/H_126.jpg
498.0087399482727	0.7519700527191162	tomspunt	pressing button?	how_hand	yes	yes	correct	task-tomspunt/H_483.jpg
508.54606008529663	0.5731198787689209	tomspunt	competing?	why_hand	yes	yes	correct	task-tomspunt/H_261.jpg
509.4297199249267	0.7020800113677979	tomspunt	competing?	why_hand	no	no	correct	task-tomspunt/H_483.jpg
510.4467699527741	0.7056701183319092	tomspunt	competing?	why_hand	yes	yes	correct	task-tomspunt/H_132.jpg
511.46382999420166	0.7052900791168213	tomspunt	competing?	why_hand	no	no	correct	task-tomspunt/H_126.jpg
512.480880022049	0.7387099266052246	tomspunt	competing?	why_hand	yes	yes	correct	task-tomspunt/H_136.jpg
513.5312700271606	0.7550299167633057	tomspunt	competing?	why_hand	no	no	correct	task-tomspunt/H_502.jpg
514.5983400344849	0.7049100399017334	tomspunt	competing?	why_hand	yes	yes	correct	task-tomspunt/H_003.jpg
515.6154000759125	0.5541698932647705	tomspunt	competing?	why_hand	yes	yes	correct	task-tomspunt/H_170.jpg
526.7696099281311	0.7686300277709961	tomspunt	self-doubt?	why_face	yes	yes	correct	task-tomspunt/F_544.jpg
527.8533599376678	0.7184300422668457	tomspunt	self-doubt?	why_face	no	no	correct	task-tomspunt/F_086.jpg
528.8870799541473	0.6678800582885742	tomspunt	self-doubt?	why_face	yes	yes	correct	task-tomspunt/F_798.jpg
529.8707799911499	0.7012999057769775	tomspunt	self-doubt?	why_face	yes	yes	correct	task-tomspunt/F_111.jpg
530.8878400325775	0.6348898410797119	tomspunt	self-doubt?	why_face	no	no	correct	task-tomspunt/F_774.jpg
531.8382000923157	0.6186299324035645	tomspunt	self-doubt?	why_face	yes	yes	correct	task-tomspunt/F_754.jpg
532.7718799114227	0.8019700050354004	tomspunt	self-doubt?	why_face	no	no	correct	task-tomspunt/F_128.jpg
533.8889698982239	0.9853601455688475	tomspunt	self-doubt?	why_face	yes	yes	correct	task-tomspunt/F_584.jpg
544.6597099304199	0.6604800224304199	tomspunt	looking at camera?	how_face	yes	yes	correct	task-tomspunt/F_128.jpg
545.6267399787903	0.6847798824310303	tomspunt	looking at camera?	how_face	yes	yes	correct	task-tomspunt/F_618.jpg
546.6271200180054	0.5262298583984375	tomspunt	looking at camera?	how_face	yes	yes	correct	task-tomspunt/F_598.jpg
547.4607698917389	0.6920101642608643	tomspunt	looking at camera?	how_face	no	no	correct	task-tomspunt/F_743.jpg
548.461149930954	0.5915501117706299	tomspunt	looking at camera?	how_face	yes	yes	correct	task-tomspunt/F_774.jpg
549.3614900112152	0.5918400287628174	tomspunt	looking at camera?	how_face	yes	no	incorrect	task-tomspunt/F_582.jpg
550.2618300914764	0.9078798294067384	tomspunt	looking at camera?	how_face	no	no	correct	task-tomspunt/F_754.jpg
551.4789600372314	0.723909854888916	tomspunt	looking at camera?	how_face	yes	yes	correct	task-tomspunt/F_129.jpg
566.1345000267029	0.8020799160003662	tomspunt	both hands?	how_hand	yes	yes	correct	task-tomspunt/H_167.jpg
567.251590013504	0.7178499698638916	tomspunt	both hands?	how_hand	no	no	correct	task-tomspunt/H_091.jpg
568.2853100299835	0.8012499809265137	tomspunt	both hands?	how_hand	no	no	correct	task-tomspunt/H_627.jpg
569.4024000167847	0.6351199150085449	tomspunt	both hands?	how_hand	yes	yes	correct	task-tomspunt/H_027.jpg
570.3527600765228	0.6183598041534424	tomspunt	both hands?	how_hand	yes	yes	correct	task-tomspunt/H_111.jpg
571.2864499092102	0.7012500762939453	tomspunt	both hands?	how_hand	no	no	correct	task-tomspunt/H_159.jpg
572.3034999370575	0.8018100261688232	tomspunt	both hands?	how_hand	yes	yes	correct	task-tomspunt/H_581.jpg
573.4205899238586	0.7685601711273193	tomspunt	both hands?	how_hand	yes	yes	correct	task-tomspunt/H_349.jpg
583.9745800495148	0.7014198303222656	tomspunt	self-protection?	why_hand	yes	yes	correct	task-tomspunt/H_443.jpg
584.9916300773621	0.7951998710632324	tomspunt	self-protection?	why_hand	no	no	correct	task-tomspunt/H_006.jpg
586.092050075531	0.6614499092102051	tomspunt	self-protection?	why_hand	yes	yes	correct	task-tomspunt/H_581.jpg
587.0590798854828	0.71055006980896	tomspunt	self-protection?	why_hand	no	no	correct	task-tomspunt/H_532.jpg
588.0761299133301	0.61857008934021	tomspunt	self-protection?	why_hand	yes	yes	correct	task-tomspunt/H_027.jpg
589.009819984436	0.9097700119018556	tomspunt	self-protection?	why_hand	yes	yes	correct	task-tomspunt/H_038.jpg
590.2269399166107	0.7760300636291504	tomspunt	self-protection?	why_hand	no	no	correct	task-tomspunt/H_332.jpg
591.3106899261475	0.693000078201294	tomspunt	self-protection?	why_hand	yes	yes	correct	task-tomspunt/H_189.jpg
0.0783157253265379	2.03410077095032	tomspunt	reaching?	block_question_presentation				
0.0783157253265379	0.3	tomspunt	reaching?	block_question_presentation				
18.9687795543671	2.10079312324524	tomspunt	healthy?	block_question_presentation				
18.9687795543671	0.3	tomspunt	healthy?	block_question_presentation				
41.4606020355225	2.10079312324524	tomspunt	proud?	block_question_presentation				
41.4606020355225	0.3	tomspunt	proud?	block_question_presentation				
59.3340175056458	2.1007924079895	tomspunt	smiling?	block_question_presentation				
59.3340175056458	0.3	tomspunt	smiling?	block_question_presentation				
78.4412310028076	2.10079479217529	tomspunt	both hands?	block_question_presentation				
78.4412310028076	0.3	tomspunt	both hands?	block_question_presentation				
95.964515914917	2.10079216957092	tomspunt	helping?	block_question_presentation				
95.964515914917	0.3	tomspunt	helping?	block_question_presentation				
115.005039682388	2.10079216957092	tomspunt	self-doubt?	block_question_presentation				
115.005039682388	0.3	tomspunt	self-doubt?	block_question_presentation				
132.795090665817	2.10079431533813	tomspunt	looking to side?	block_question_presentation				
132.795090665817	0.3	tomspunt	looking to side?	block_question_presentation				
150.335049381256	2.10079336166382	tomspunt	argument?	block_question_presentation				
150.335049381256	0.3	tomspunt	argument?	block_question_presentation				
169.125480642319	2.10079288482666	tomspunt	open mouth?	block_question_presentation				
169.125480642319	0.3	tomspunt	open mouth?	block_question_presentation				
187.198973407745	2.10079431533813	tomspunt	lifting?	block_question_presentation				
187.198973407745	0.3	tomspunt	lifting?	block_question_presentation				
204.722260704041	2.10079312324524	tomspunt	competing?	block_question_presentation				
204.722260704041	0.3	tomspunt	competing?	block_question_presentation				
222.945812215805	2.10079336166382	tomspunt	admiring?	block_question_presentation				
222.945812215805	0.3	tomspunt	admiring?	block_question_presentation				
240.835905303955	2.1007924079895	tomspunt	looking at camera?	block_question_presentation				
240.835905303955	0.3	tomspunt	looking at camera?	block_question_presentation				
262.310685863495	2.10079383850098	tomspunt	pressing button?	block_question_presentation				
262.310685863495	0.3	tomspunt	pressing button?	block_question_presentation				
280.150760641098	2.1007936000824	tomspunt	self-protection?	block_question_presentation				
280.150760641098	0.3	tomspunt	self-protection?	block_question_presentation				
298.82448433876	2.1007936000824	tomspunt	reaching?	block_question_presentation				
298.82448433876	0.3	tomspunt	reaching?	block_question_presentation				
317.798321237564	2.10079455375671	tomspunt	healthy?	block_question_presentation				
317.798321237564	0.3	tomspunt	healthy?	block_question_presentation				
340.273482074738	2.10079479217529	tomspunt	admiring?	block_question_presentation				
340.273482074738	0.3	tomspunt	admiring?	block_question_presentation				
358.146905651093	2.10079383850098	tomspunt	smiling?	block_question_presentation				
358.146905651093	0.3	tomspunt	smiling?	block_question_presentation				
377.254127492905	2.10079383850098	tomspunt	lifting?	block_question_presentation				
377.254127492905	0.3	tomspunt	lifting?	block_question_presentation				
394.777417650223	2.10079526901245	tomspunt	helping?	block_question_presentation				
394.777417650223	0.3	tomspunt	helping?	block_question_presentation				
413.834622373581	2.10079479217529	tomspunt	proud?	block_question_presentation				
413.834622373581	0.3	tomspunt	proud?	block_question_presentation				
431.624680271149	2.10079383850098	tomspunt	looking to side?	block_question_presentation				
431.624680271149	0.3	tomspunt	looking to side?	block_question_presentation				
449.147972097397	2.10079407691956	tomspunt	argument?	block_question_presentation				
449.147972097397	0.3	tomspunt	argument?	block_question_presentation				
467.938409080505	2.10079550743103	tomspunt	open mouth?	block_question_presentation				
467.938409080505	0.3	tomspunt	open mouth?	block_question_presentation				
486.011909713745	2.10079455375671	tomspunt	pressing button?	block_question_presentation				
486.011909713745	0.3	tomspunt	pressing button?	block_question_presentation				
503.535202493668	2.1007936000824	tomspunt	competing?	block_question_presentation				
503.535202493668	0.3	tomspunt	competing?	block_question_presentation				
521.758760204315	2.10079383850098	tomspunt	self-doubt?	block_question_presentation				
521.758760204315	0.3	tomspunt	self-doubt?	block_question_presentation				
539.648858537674	2.1007936000824	tomspunt	looking at camera?	block_question_presentation				
539.648858537674	0.3	tomspunt	looking at camera?	block_question_presentation				
561.123645296097	2.10079407691956	tomspunt	both hands?	block_question_presentation				
561.123645296097	0.3	tomspunt	both hands?	block_question_presentation				
578.963725795746	2.1007936000824	tomspunt	self-protection?	block_question_presentation				
578.963725795746	0.3	tomspunt	self-protection?	block_question_presentation				
