onset	duration	run_type	trial_type	trial_index	cue	stimulusintensity	rating_value	rating_glmslabel	rating_value_fillna	rating_glmslabel_fillna	rating_mouseonset	rating_mousedur	stim_file_TODO	pain_onset_ttl1	pain_onset_ttl2	pain_onset_ttl3	pain_onset_ttl4	pain_stimulus_delivery_success	cognitive_correct_response	cognitive_participant_response	cognitive_response_accuracy
4.8	1.0	pain	cue	1	high_cue	n/a	n/a	n/a	n/a	n/a	n/a	n/a	task-social/cue/runtype-pain/sch/h054.png	n/a	n/a	n/a	n/a	n/a	n/a	n/a	n/a
7.22	2.35	pain	expectrating	1	high_cue	n/a	63.64	Strong	63.64	Strong	0.63	1.72	task-social/cue/runtype-pain/sch/h054.png	n/a	n/a	n/a	n/a	n/a	n/a	n/a	n/a
15.85	11.910000000000002	pain	stimulus	1	high_cue	low_stim	n/a	n/a	n/a	n/a	n/a	n/a	n/a	15.85	19.35	24.35	27.75	success	n/a	n/a	n/a
27.19	2.92	pain	outcomerating	1	high_cue	low_stim	72.88	Very Strong	72.88	Very Strong	0.63	1.72	task-social/outcomerating/task-pain_scale.png	n/a	n/a	n/a	n/a	success	n/a	n/a	n/a
33.09	1.0	pain	cue	2	low_cue	n/a	n/a	n/a	n/a	n/a	n/a	n/a	task-social/cue/runtype-pain/scl/l028.png	n/a	n/a	n/a	n/a	n/a	n/a	n/a	n/a
34.9	2.52	pain	expectrating	2	low_cue	n/a	7.89	Weak	7.89	Weak	0.07	2.46	task-social/cue/runtype-pain/scl/l028.png	n/a	n/a	n/a	n/a	n/a	n/a	n/a	n/a
44.27	11.909999999999997	pain	stimulus	2	low_cue	low_stim	n/a	n/a	n/a	n/a	n/a	n/a	n/a	44.27	47.77	52.77	56.17	success	n/a	n/a	n/a
56.1	2.53	pain	outcomerating	2	low_cue	low_stim	51.52	Strong	51.52	Strong	0.07	2.46	task-social/outcomerating/task-pain_scale.png	n/a	n/a	n/a	n/a	success	n/a	n/a	n/a
61.09	1.0	pain	cue	3	low_cue	n/a	n/a	n/a	n/a	n/a	n/a	n/a	task-social/cue/runtype-pain/scl/l002.png	n/a	n/a	n/a	n/a	n/a	n/a	n/a	n/a
63.21	2.75	pain	expectrating	3	low_cue	n/a	4.84	Weak	4.84	Weak	0.05	2.7	task-social/cue/runtype-pain/scl/l002.png	n/a	n/a	n/a	n/a	n/a	n/a	n/a	n/a
69.86	12.370000000000005	pain	stimulus	3	low_cue	med_stim	n/a	n/a	n/a	n/a	n/a	n/a	n/a	69.86	73.62	78.62	82.23	success	n/a	n/a	n/a
81.4	2.91	pain	outcomerating	3	low_cue	med_stim	84.7	Very Strong	84.7	Very Strong	0.05	2.7	task-social/outcomerating/task-pain_scale.png	n/a	n/a	n/a	n/a	success	n/a	n/a	n/a
86.5	1.0	pain	cue	4	low_cue	n/a	n/a	n/a	n/a	n/a	n/a	n/a	task-social/cue/runtype-pain/scl/l042.png	n/a	n/a	n/a	n/a	n/a	n/a	n/a	n/a
89.6	n/a	pain	expectrating	4	low_cue	n/a	n/a	n/a	8.03	Weak	1.17	3.7	task-social/cue/runtype-pain/scl/l042.png	n/a	n/a	n/a	n/a	n/a	n/a	n/a	n/a
98.82	12.830000000000013	pain	stimulus	4	low_cue	high_stim	n/a	n/a	n/a	n/a	n/a	n/a	n/a	98.82	102.83	107.83	111.64	success	n/a	n/a	n/a
110.11	1.57	pain	outcomerating	4	low_cue	high_stim	75.91	Very Strong	75.91	Very Strong	1.17	3.7	task-social/outcomerating/task-pain_scale.png	n/a	n/a	n/a	n/a	success	n/a	n/a	n/a
114.79	1.0	pain	cue	5	high_cue	n/a	n/a	n/a	n/a	n/a	n/a	n/a	task-social/cue/runtype-pain/sch/h024.png	n/a	n/a	n/a	n/a	n/a	n/a	n/a	n/a
117.19	2.16	pain	expectrating	5	high_cue	n/a	113.41	Strongest sensation of any kind	113.41	Strongest sensation of any kind	0.4	1.76	task-social/cue/runtype-pain/sch/h024.png	n/a	n/a	n/a	n/a	n/a	n/a	n/a	n/a
122.62	12.359999999999985	pain	stimulus	5	high_cue	med_stim	n/a	n/a	n/a	n/a	n/a	n/a	n/a	122.62	126.38	131.38	134.99	success	n/a	n/a	n/a
133.9	1.55	pain	outcomerating	5	high_cue	med_stim	77.52	Very Strong	77.52	Very Strong	0.4	1.76	task-social/outcomerating/task-pain_scale.png	n/a	n/a	n/a	n/a	success	n/a	n/a	n/a
138.5	1.0	pain	cue	6	high_cue	n/a	n/a	n/a	n/a	n/a	n/a	n/a	task-social/cue/runtype-pain/sch/h050.png	n/a	n/a	n/a	n/a	n/a	n/a	n/a	n/a
140.6	1.52	pain	expectrating	6	high_cue	n/a	60.58	Strong	60.58	Strong	0.05	1.47	task-social/cue/runtype-pain/sch/h050.png	n/a	n/a	n/a	n/a	n/a	n/a	n/a	n/a
145.94	12.819999999999993	pain	stimulus	6	high_cue	high_stim	n/a	n/a	n/a	n/a	n/a	n/a	n/a	145.94	149.95	154.95	158.76	success	n/a	n/a	n/a
157.59	2.67	pain	outcomerating	6	high_cue	high_stim	83.53	Very Strong	83.53	Very Strong	0.05	1.47	task-social/outcomerating/task-pain_scale.png	n/a	n/a	n/a	n/a	success	n/a	n/a	n/a
163.49	1.0	pain	cue	7	high_cue	n/a	n/a	n/a	n/a	n/a	n/a	n/a	task-social/cue/runtype-pain/sch/h025.png	n/a	n/a	n/a	n/a	n/a	n/a	n/a	n/a
165.59	1.68	pain	expectrating	7	high_cue	n/a	84.93	Very Strong	84.93	Very Strong	0.32	1.36	task-social/cue/runtype-pain/sch/h025.png	n/a	n/a	n/a	n/a	n/a	n/a	n/a	n/a
176.43	11.900000000000006	pain	stimulus	7	high_cue	low_stim	n/a	n/a	n/a	n/a	n/a	n/a	n/a	176.43	179.93	184.93	188.33	success	n/a	n/a	n/a
197.59	2.63	pain	outcomerating	7	high_cue	low_stim	73.35	Very Strong	73.35	Very Strong	0.32	1.36	task-social/outcomerating/task-pain_scale.png	n/a	n/a	n/a	n/a	success	n/a	n/a	n/a
209.39	1.0	pain	cue	8	high_cue	n/a	n/a	n/a	n/a	n/a	n/a	n/a	task-social/cue/runtype-pain/sch/h023.png	n/a	n/a	n/a	n/a	n/a	n/a	n/a	n/a
211.5	1.58	pain	expectrating	8	high_cue	n/a	63.02	Strong	63.02	Strong	0.43	1.14	task-social/cue/runtype-pain/sch/h023.png	n/a	n/a	n/a	n/a	n/a	n/a	n/a	n/a
216.44	12.830000000000013	pain	stimulus	8	high_cue	high_stim	n/a	n/a	n/a	n/a	n/a	n/a	n/a	216.44	220.45	225.45	229.26	success	n/a	n/a	n/a
229.7	1.92	pain	outcomerating	8	high_cue	high_stim	84.47	Very Strong	84.47	Very Strong	0.43	1.14	task-social/outcomerating/task-pain_scale.png	n/a	n/a	n/a	n/a	success	n/a	n/a	n/a
234.59	1.0	pain	cue	9	low_cue	n/a	n/a	n/a	n/a	n/a	n/a	n/a	task-social/cue/runtype-pain/scl/l014.png	n/a	n/a	n/a	n/a	n/a	n/a	n/a	n/a
237.71	1.88	pain	expectrating	9	low_cue	n/a	38.8	Strong	38.8	Strong	0.4	1.48	task-social/cue/runtype-pain/scl/l014.png	n/a	n/a	n/a	n/a	n/a	n/a	n/a	n/a
250.53	11.900000000000006	pain	stimulus	9	low_cue	low_stim	n/a	n/a	n/a	n/a	n/a	n/a	n/a	250.53	254.03	259.03	262.43	success	n/a	n/a	n/a
265.1	2.29	pain	outcomerating	9	low_cue	low_stim	47.63	Strong	47.63	Strong	0.4	1.48	task-social/outcomerating/task-pain_scale.png	n/a	n/a	n/a	n/a	success	n/a	n/a	n/a
271.0	1.0	pain	cue	10	low_cue	n/a	n/a	n/a	n/a	n/a	n/a	n/a	task-social/cue/runtype-pain/scl/l018.png	n/a	n/a	n/a	n/a	n/a	n/a	n/a	n/a
274.1	1.47	pain	expectrating	10	low_cue	n/a	20.18	Moderate	20.18	Moderate	0.37	1.1	task-social/cue/runtype-pain/scl/l018.png	n/a	n/a	n/a	n/a	n/a	n/a	n/a	n/a
283.47	12.359999999999957	pain	stimulus	10	low_cue	med_stim	n/a	n/a	n/a	n/a	n/a	n/a	n/a	283.47	287.23	292.23	295.84	success	n/a	n/a	n/a
296.59	2.06	pain	outcomerating	10	low_cue	med_stim	68.38	Very Strong	68.38	Very Strong	0.37	1.1	task-social/outcomerating/task-pain_scale.png	n/a	n/a	n/a	n/a	success	n/a	n/a	n/a
317.6	1.0	pain	cue	11	low_cue	n/a	n/a	n/a	n/a	n/a	n/a	n/a	task-social/cue/runtype-pain/scl/l001.png	n/a	n/a	n/a	n/a	n/a	n/a	n/a	n/a
320.0	2.37	pain	expectrating	11	low_cue	n/a	4.59	Weak	4.59	Weak	0.33	2.04	task-social/cue/runtype-pain/scl/l001.png	n/a	n/a	n/a	n/a	n/a	n/a	n/a	n/a
325.42	12.819999999999993	pain	stimulus	11	low_cue	high_stim	n/a	n/a	n/a	n/a	n/a	n/a	n/a	325.42	329.43	334.43	338.24	success	n/a	n/a	n/a
337.09	2.62	pain	outcomerating	11	low_cue	high_stim	68.8	Very Strong	68.8	Very Strong	0.33	2.04	task-social/outcomerating/task-pain_scale.png	n/a	n/a	n/a	n/a	success	n/a	n/a	n/a
358.1	1.0	pain	cue	12	high_cue	n/a	n/a	n/a	n/a	n/a	n/a	n/a	task-social/cue/runtype-pain/sch/h010.png	n/a	n/a	n/a	n/a	n/a	n/a	n/a	n/a
361.2	2.3	pain	expectrating	12	high_cue	n/a	70.25	Very Strong	70.25	Very Strong	0.17	2.14	task-social/cue/runtype-pain/sch/h010.png	n/a	n/a	n/a	n/a	n/a	n/a	n/a	n/a
375.52	12.370000000000005	pain	stimulus	12	high_cue	med_stim	n/a	n/a	n/a	n/a	n/a	n/a	n/a	375.52	379.28	384.28	387.89	success	n/a	n/a	n/a
394.1	1.96	pain	outcomerating	12	high_cue	med_stim	62.82	Strong	62.82	Strong	0.17	2.14	task-social/outcomerating/task-pain_scale.png	n/a	n/a	n/a	n/a	success	n/a	n/a	n/a
