onset	duration	run_type	trial_type	trial_index	cue	stimulusintensity	rating_value	rating_glmslabel	rating_value_fillna	rating_glmslabel_fillna	rating_mouseonset	rating_mousedur	stim_file	pain_onset_ttl1	pain_onset_ttl2	pain_onset_ttl3	pain_onset_ttl4	pain_stimulus_delivery_success	cognitive_correct_response	cognitive_participant_response	cognitive_response_accuracy
5.4	0.98	vicarious	cue	1	high_cue	n/a	n/a	n/a	n/a	n/a	n/a	n/a	task-social/cue/runtype-vicarious/sch/h036.png	n/a	n/a	n/a	n/a	n/a	n/a	n/a	n/a
8.2	n/a	vicarious	expectrating	1	high_cue	n/a	n/a	n/a	72.66	Very Strong	0.8	1.82	task-social/cue/runtype-vicarious/sch/h036.png	n/a	n/a	n/a	n/a	n/a	n/a	n/a	n/a
18.99	5.0	vicarious	stimulus	1	high_cue	low_stim	n/a	n/a	n/a	n/a	n/a	n/a	task-social/stim/runtype-vicarious/bg096t2afunaff_L.mp4	n/a	n/a	n/a	n/a	n/a	n/a	n/a	n/a
30.31	n/a	vicarious	outcomerating	1	high_cue	low_stim	n/a	n/a	81.93	Very Strong	0.8	1.82	task-social/outcomerating/task-vicarious_scale.png	n/a	n/a	n/a	n/a	n/a	n/a	n/a	n/a
35.1	0.99	vicarious	cue	2	high_cue	n/a	n/a	n/a	n/a	n/a	n/a	n/a	task-social/cue/runtype-vicarious/sch/h011.png	n/a	n/a	n/a	n/a	n/a	n/a	n/a	n/a
37.5	n/a	vicarious	expectrating	2	high_cue	n/a	n/a	n/a	66.23	Very Strong	0.08	1.07	task-social/cue/runtype-vicarious/sch/h011.png	n/a	n/a	n/a	n/a	n/a	n/a	n/a	n/a
48.28	5.0	vicarious	stimulus	2	high_cue	high_stim	n/a	n/a	n/a	n/a	n/a	n/a	task-social/stim/runtype-vicarious/mg101t2aeaff_H.mp4	n/a	n/a	n/a	n/a	n/a	n/a	n/a	n/a
58.81	n/a	vicarious	outcomerating	2	high_cue	high_stim	n/a	n/a	49.78	Strong	0.08	1.07	task-social/outcomerating/task-vicarious_scale.png	n/a	n/a	n/a	n/a	n/a	n/a	n/a	n/a
68.69	0.99	vicarious	cue	3	high_cue	n/a	n/a	n/a	n/a	n/a	n/a	n/a	task-social/cue/runtype-vicarious/sch/h019.png	n/a	n/a	n/a	n/a	n/a	n/a	n/a	n/a
71.09	n/a	vicarious	expectrating	3	high_cue	n/a	n/a	n/a	56.95	Strong	0.65	1.75	task-social/cue/runtype-vicarious/sch/h019.png	n/a	n/a	n/a	n/a	n/a	n/a	n/a	n/a
81.38	5.0	vicarious	stimulus	3	high_cue	med_stim	n/a	n/a	n/a	n/a	n/a	n/a	task-social/stim/runtype-vicarious/ib109t1afaff_M.mp4	n/a	n/a	n/a	n/a	n/a	n/a	n/a	n/a
91.9	n/a	vicarious	outcomerating	3	high_cue	med_stim	n/a	n/a	37.98	Strong	0.65	1.75	task-social/outcomerating/task-vicarious_scale.png	n/a	n/a	n/a	n/a	n/a	n/a	n/a	n/a
96.59	1.0	vicarious	cue	4	low_cue	n/a	n/a	n/a	n/a	n/a	n/a	n/a	task-social/cue/runtype-vicarious/scl/l013.png	n/a	n/a	n/a	n/a	n/a	n/a	n/a	n/a
98.1	n/a	vicarious	expectrating	4	low_cue	n/a	n/a	n/a	26.57	Moderate	3.03	3.73	task-social/cue/runtype-vicarious/scl/l013.png	n/a	n/a	n/a	n/a	n/a	n/a	n/a	n/a
105.68	5.0	vicarious	stimulus	4	low_cue	low_stim	n/a	n/a	n/a	n/a	n/a	n/a	task-social/stim/runtype-vicarious/ib109t1aiunaff_L.mp4	n/a	n/a	n/a	n/a	n/a	n/a	n/a	n/a
117.71	n/a	vicarious	outcomerating	4	low_cue	low_stim	n/a	n/a	57.78	Strong	3.03	3.73	task-social/outcomerating/task-vicarious_scale.png	n/a	n/a	n/a	n/a	n/a	n/a	n/a	n/a
124.0	0.99	vicarious	cue	5	high_cue	n/a	n/a	n/a	n/a	n/a	n/a	n/a	task-social/cue/runtype-vicarious/sch/h024.png	n/a	n/a	n/a	n/a	n/a	n/a	n/a	n/a
126.8	n/a	vicarious	expectrating	5	high_cue	n/a	n/a	n/a	70.76	Very Strong	0.18	1.28	task-social/cue/runtype-vicarious/sch/h024.png	n/a	n/a	n/a	n/a	n/a	n/a	n/a	n/a
134.38	5.0	vicarious	stimulus	5	high_cue	high_stim	n/a	n/a	n/a	n/a	n/a	n/a	task-social/stim/runtype-vicarious/tv095t1afaff_H.mp4	n/a	n/a	n/a	n/a	n/a	n/a	n/a	n/a
151.71	n/a	vicarious	outcomerating	5	high_cue	high_stim	n/a	n/a	42.88	Strong	0.18	1.28	task-social/outcomerating/task-vicarious_scale.png	n/a	n/a	n/a	n/a	n/a	n/a	n/a	n/a
167.3	0.99	vicarious	cue	6	high_cue	n/a	n/a	n/a	n/a	n/a	n/a	n/a	task-social/cue/runtype-vicarious/sch/h037.png	n/a	n/a	n/a	n/a	n/a	n/a	n/a	n/a
170.1	n/a	vicarious	expectrating	6	high_cue	n/a	n/a	n/a	47.28	Strong	0.12	2.88	task-social/cue/runtype-vicarious/sch/h037.png	n/a	n/a	n/a	n/a	n/a	n/a	n/a	n/a
180.48	5.0	vicarious	stimulus	6	high_cue	low_stim	n/a	n/a	n/a	n/a	n/a	n/a	task-social/stim/runtype-vicarious/bm049t1afaff_L.mp4	n/a	n/a	n/a	n/a	n/a	n/a	n/a	n/a
192.91	n/a	vicarious	outcomerating	6	high_cue	low_stim	n/a	n/a	18.8	Moderate	0.12	2.88	task-social/outcomerating/task-vicarious_scale.png	n/a	n/a	n/a	n/a	n/a	n/a	n/a	n/a
203.29	0.99	vicarious	cue	7	low_cue	n/a	n/a	n/a	n/a	n/a	n/a	n/a	task-social/cue/runtype-vicarious/scl/l056.png	n/a	n/a	n/a	n/a	n/a	n/a	n/a	n/a
205.19	n/a	vicarious	expectrating	7	low_cue	n/a	n/a	n/a	12.3	Moderate	0.28	1.22	task-social/cue/runtype-vicarious/scl/l056.png	n/a	n/a	n/a	n/a	n/a	n/a	n/a	n/a
220.58	5.0	vicarious	stimulus	7	low_cue	med_stim	n/a	n/a	n/a	n/a	n/a	n/a	task-social/stim/runtype-vicarious/mg101t2aeunaff_M.mp4	n/a	n/a	n/a	n/a	n/a	n/a	n/a	n/a
228.7	n/a	vicarious	outcomerating	7	low_cue	med_stim	n/a	n/a	59.12	Strong	0.28	1.22	task-social/outcomerating/task-vicarious_scale.png	n/a	n/a	n/a	n/a	n/a	n/a	n/a	n/a
238.69	0.99	vicarious	cue	8	low_cue	n/a	n/a	n/a	n/a	n/a	n/a	n/a	task-social/cue/runtype-vicarious/scl/l040.png	n/a	n/a	n/a	n/a	n/a	n/a	n/a	n/a
241.89	n/a	vicarious	expectrating	8	low_cue	n/a	n/a	n/a	5.55	Weak	0.2	1.47	task-social/cue/runtype-vicarious/scl/l040.png	n/a	n/a	n/a	n/a	n/a	n/a	n/a	n/a
256.88	5.0	vicarious	stimulus	8	low_cue	high_stim	n/a	n/a	n/a	n/a	n/a	n/a	task-social/stim/runtype-vicarious/bg096t1aeaff_H.mp4	n/a	n/a	n/a	n/a	n/a	n/a	n/a	n/a
267.8	n/a	vicarious	outcomerating	8	low_cue	high_stim	n/a	n/a	32.22	Strong	0.2	1.47	task-social/outcomerating/task-vicarious_scale.png	n/a	n/a	n/a	n/a	n/a	n/a	n/a	n/a
276.89	0.99	vicarious	cue	9	low_cue	n/a	n/a	n/a	n/a	n/a	n/a	n/a	task-social/cue/runtype-vicarious/scl/l041.png	n/a	n/a	n/a	n/a	n/a	n/a	n/a	n/a
280.1	n/a	vicarious	expectrating	9	low_cue	n/a	n/a	n/a	3.27	Weak	0.25	2.5	task-social/cue/runtype-vicarious/scl/l041.png	n/a	n/a	n/a	n/a	n/a	n/a	n/a	n/a
290.48	5.0	vicarious	stimulus	9	low_cue	med_stim	n/a	n/a	n/a	n/a	n/a	n/a	task-social/stim/runtype-vicarious/dr052t2aaaff_M.mp4	n/a	n/a	n/a	n/a	n/a	n/a	n/a	n/a
305.7	n/a	vicarious	outcomerating	9	low_cue	med_stim	n/a	n/a	0.92	No sensation	0.25	2.5	task-social/outcomerating/task-vicarious_scale.png	n/a	n/a	n/a	n/a	n/a	n/a	n/a	n/a
312.3	0.98	vicarious	cue	10	low_cue	n/a	n/a	n/a	n/a	n/a	n/a	n/a	task-social/cue/runtype-vicarious/scl/l003.png	n/a	n/a	n/a	n/a	n/a	n/a	n/a	n/a
315.1	n/a	vicarious	expectrating	10	low_cue	n/a	n/a	n/a	4.59	Weak	0.27	1.03	task-social/cue/runtype-vicarious/scl/l003.png	n/a	n/a	n/a	n/a	n/a	n/a	n/a	n/a
325.38	5.0	vicarious	stimulus	10	low_cue	low_stim	n/a	n/a	n/a	n/a	n/a	n/a	task-social/stim/runtype-vicarious/bn080t1afunaff_L.mp4	n/a	n/a	n/a	n/a	n/a	n/a	n/a	n/a
335.61	n/a	vicarious	outcomerating	10	low_cue	low_stim	n/a	n/a	9.27	Weak	0.27	1.03	task-social/outcomerating/task-vicarious_scale.png	n/a	n/a	n/a	n/a	n/a	n/a	n/a	n/a
347.4	0.99	vicarious	cue	11	high_cue	n/a	n/a	n/a	n/a	n/a	n/a	n/a	task-social/cue/runtype-vicarious/sch/h020.png	n/a	n/a	n/a	n/a	n/a	n/a	n/a	n/a
349.1	n/a	vicarious	expectrating	11	high_cue	n/a	n/a	n/a	62.51	Strong	0.37	3.22	task-social/cue/runtype-vicarious/sch/h020.png	n/a	n/a	n/a	n/a	n/a	n/a	n/a	n/a
356.68	5.0	vicarious	stimulus	11	high_cue	med_stim	n/a	n/a	n/a	n/a	n/a	n/a	task-social/stim/runtype-vicarious/tv095t2afaff_M.mp4	n/a	n/a	n/a	n/a	n/a	n/a	n/a	n/a
366.9	n/a	vicarious	outcomerating	11	high_cue	med_stim	n/a	n/a	54.93	Strong	0.37	3.22	task-social/outcomerating/task-vicarious_scale.png	n/a	n/a	n/a	n/a	n/a	n/a	n/a	n/a
373.19	0.99	vicarious	cue	12	low_cue	n/a	n/a	n/a	n/a	n/a	n/a	n/a	task-social/cue/runtype-vicarious/scl/l009.png	n/a	n/a	n/a	n/a	n/a	n/a	n/a	n/a
375.69	n/a	vicarious	expectrating	12	low_cue	n/a	n/a	n/a	15.95	Moderate	0.12	1.47	task-social/cue/runtype-vicarious/scl/l009.png	n/a	n/a	n/a	n/a	n/a	n/a	n/a	n/a
385.58	5.0	vicarious	stimulus	12	low_cue	high_stim	n/a	n/a	n/a	n/a	n/a	n/a	task-social/stim/runtype-vicarious/bm049t2aeunaff_H.mp4	n/a	n/a	n/a	n/a	n/a	n/a	n/a	n/a
394.8	n/a	vicarious	outcomerating	12	low_cue	high_stim	n/a	n/a	31.4	Strong	0.12	1.47	task-social/outcomerating/task-vicarious_scale.png	n/a	n/a	n/a	n/a	n/a	n/a	n/a	n/a
