onset	duration	run_type	trial_type	trial_index	cue	stimulusintensity	rating_value	rating_glmslabel	rating_value_fillna	rating_glmslabel_fillna	rating_mouseonset	rating_mousedur	stim_file	pain_onset_ttl1	pain_onset_ttl2	pain_onset_ttl3	pain_onset_ttl4	pain_stimulus_delivery_success	cognitive_correct_response	cognitive_participant_response	cognitive_response_accuracy
10.59	1.0	pain	cue	1	low_cue	n/a	n/a	n/a	n/a	n/a	n/a	n/a	task-social/cue/runtype-pain/scl/l013.png	n/a	n/a	n/a	n/a	n/a	n/a	n/a	n/a
12.31	n/a	pain	expectrating	1	low_cue	n/a	n/a	n/a	22.44	Moderate	0.7	3.22	task-social/cue/runtype-pain/scl/l013.png	n/a	n/a	n/a	n/a	n/a	n/a	n/a	n/a
21.15	11.899999999999999	pain	stimulus	1	low_cue	low_stim	n/a	n/a	n/a	n/a	n/a	n/a	n/a	21.15	24.65	29.65	33.05	success	n/a	n/a	n/a
31.1	n/a	pain	outcomerating	1	low_cue	low_stim	n/a	n/a	60.86	Strong	0.7	3.22	task-social/outcomerating/task-pain_scale.png	n/a	n/a	n/a	n/a	success	n/a	n/a	n/a
35.7	1.0	pain	cue	2	low_cue	n/a	n/a	n/a	n/a	n/a	n/a	n/a	task-social/cue/runtype-pain/scl/l004.png	n/a	n/a	n/a	n/a	n/a	n/a	n/a	n/a
38.0	n/a	pain	expectrating	2	low_cue	n/a	n/a	n/a	32.79	Strong	0.7	3.58	task-social/cue/runtype-pain/scl/l004.png	n/a	n/a	n/a	n/a	n/a	n/a	n/a	n/a
43.83	12.370000000000005	pain	stimulus	2	low_cue	med_stim	n/a	n/a	n/a	n/a	n/a	n/a	n/a	43.83	47.59	52.59	56.2	success	n/a	n/a	n/a
56.29	n/a	pain	outcomerating	2	low_cue	med_stim	n/a	n/a	62.0	Strong	0.7	3.58	task-social/outcomerating/task-pain_scale.png	n/a	n/a	n/a	n/a	success	n/a	n/a	n/a
61.29	1.0	pain	cue	3	low_cue	n/a	n/a	n/a	n/a	n/a	n/a	n/a	task-social/cue/runtype-pain/scl/l046.png	n/a	n/a	n/a	n/a	n/a	n/a	n/a	n/a
64.2	n/a	pain	expectrating	3	low_cue	n/a	n/a	n/a	51.2	Strong	1.62	3.5	task-social/cue/runtype-pain/scl/l046.png	n/a	n/a	n/a	n/a	n/a	n/a	n/a	n/a
72.23	11.899999999999991	pain	stimulus	3	low_cue	low_stim	n/a	n/a	n/a	n/a	n/a	n/a	n/a	72.23	75.73	80.73	84.13	success	n/a	n/a	n/a
86.3	n/a	pain	outcomerating	3	low_cue	low_stim	n/a	n/a	30.57	Strong	1.62	3.5	task-social/outcomerating/task-pain_scale.png	n/a	n/a	n/a	n/a	success	n/a	n/a	n/a
91.29	1.0	pain	cue	4	low_cue	n/a	n/a	n/a	n/a	n/a	n/a	n/a	task-social/cue/runtype-pain/scl/l036.png	n/a	n/a	n/a	n/a	n/a	n/a	n/a	n/a
93.71	n/a	pain	expectrating	4	low_cue	n/a	n/a	n/a	60.26	Strong	3.73	3.85	task-social/cue/runtype-pain/scl/l036.png	n/a	n/a	n/a	n/a	n/a	n/a	n/a	n/a
99.82	12.820000000000007	pain	stimulus	4	low_cue	high_stim	n/a	n/a	n/a	n/a	n/a	n/a	n/a	99.82	103.83	108.83	112.64	success	n/a	n/a	n/a
112.3	n/a	pain	outcomerating	4	low_cue	high_stim	n/a	n/a	87.45	Very-Strong	3.73	3.85	task-social/outcomerating/task-pain_scale.png	n/a	n/a	n/a	n/a	success	n/a	n/a	n/a
120.0	1.0	pain	cue	5	high_cue	n/a	n/a	n/a	n/a	n/a	n/a	n/a	task-social/cue/runtype-pain/sch/h021.png	n/a	n/a	n/a	n/a	n/a	n/a	n/a	n/a
122.9	n/a	pain	expectrating	5	high_cue	n/a	n/a	n/a	85.18	Very-Strong	0.3	1.25	task-social/cue/runtype-pain/sch/h021.png	n/a	n/a	n/a	n/a	n/a	n/a	n/a	n/a
131.82	12.360000000000014	pain	stimulus	5	high_cue	med_stim	n/a	n/a	n/a	n/a	n/a	n/a	n/a	131.82	135.58	140.58	144.19	success	n/a	n/a	n/a
142.81	n/a	pain	outcomerating	5	high_cue	med_stim	n/a	n/a	61.28	Strong	0.3	1.25	task-social/outcomerating/task-pain_scale.png	n/a	n/a	n/a	n/a	success	n/a	n/a	n/a
153.9	1.0	pain	cue	6	high_cue	n/a	n/a	n/a	n/a	n/a	n/a	n/a	task-social/cue/runtype-pain/sch/h031.png	n/a	n/a	n/a	n/a	n/a	n/a	n/a	n/a
155.8	n/a	pain	expectrating	6	high_cue	n/a	n/a	n/a	77.7	Very-Strong	0.05	1.05	task-social/cue/runtype-pain/sch/h031.png	n/a	n/a	n/a	n/a	n/a	n/a	n/a	n/a
167.82	12.819999999999993	pain	stimulus	6	high_cue	high_stim	n/a	n/a	n/a	n/a	n/a	n/a	n/a	167.82	171.83	176.83	180.64	success	n/a	n/a	n/a
184.19	n/a	pain	outcomerating	6	high_cue	high_stim	n/a	n/a	134.84	Strongest-sensation-of-any-kind	0.05	1.05	task-social/outcomerating/task-pain_scale.png	n/a	n/a	n/a	n/a	success	n/a	n/a	n/a
194.19	1.0	pain	cue	7	high_cue	n/a	n/a	n/a	n/a	n/a	n/a	n/a	task-social/cue/runtype-pain/sch/h028.png	n/a	n/a	n/a	n/a	n/a	n/a	n/a	n/a
197.0	n/a	pain	expectrating	7	high_cue	n/a	n/a	n/a	74.79	Very-Strong	0.3	1.8	task-social/cue/runtype-pain/sch/h028.png	n/a	n/a	n/a	n/a	n/a	n/a	n/a	n/a
204.23	12.360000000000014	pain	stimulus	7	high_cue	med_stim	n/a	n/a	n/a	n/a	n/a	n/a	n/a	204.23	207.99	212.99	216.6	success	n/a	n/a	n/a
214.2	n/a	pain	outcomerating	7	high_cue	med_stim	n/a	n/a	54.33	Strong	0.3	1.8	task-social/outcomerating/task-pain_scale.png	n/a	n/a	n/a	n/a	success	n/a	n/a	n/a
219.19	1.0	pain	cue	8	high_cue	n/a	n/a	n/a	n/a	n/a	n/a	n/a	task-social/cue/runtype-pain/sch/h001.png	n/a	n/a	n/a	n/a	n/a	n/a	n/a	n/a
222.1	n/a	pain	expectrating	8	high_cue	n/a	n/a	n/a	76.3	Very-Strong	0.28	3.95	task-social/cue/runtype-pain/sch/h001.png	n/a	n/a	n/a	n/a	n/a	n/a	n/a	n/a
232.53	11.900000000000006	pain	stimulus	8	high_cue	low_stim	n/a	n/a	n/a	n/a	n/a	n/a	n/a	232.53	236.03	241.03	244.43	success	n/a	n/a	n/a
242.7	n/a	pain	outcomerating	8	high_cue	low_stim	n/a	n/a	55.29	Strong	0.28	3.95	task-social/outcomerating/task-pain_scale.png	n/a	n/a	n/a	n/a	success	n/a	n/a	n/a
251.4	1.0	pain	cue	9	high_cue	n/a	n/a	n/a	n/a	n/a	n/a	n/a	task-social/cue/runtype-pain/sch/h043.png	n/a	n/a	n/a	n/a	n/a	n/a	n/a	n/a
253.8	n/a	pain	expectrating	9	high_cue	n/a	n/a	n/a	63.02	Strong	0.1	1.13	task-social/cue/runtype-pain/sch/h043.png	n/a	n/a	n/a	n/a	n/a	n/a	n/a	n/a
264.75	11.899999999999977	pain	stimulus	9	high_cue	low_stim	n/a	n/a	n/a	n/a	n/a	n/a	n/a	264.75	268.25	273.25	276.65	success	n/a	n/a	n/a
280.79	n/a	pain	outcomerating	9	high_cue	low_stim	n/a	n/a	52.62	Strong	0.1	1.13	task-social/outcomerating/task-pain_scale.png	n/a	n/a	n/a	n/a	success	n/a	n/a	n/a
285.8	1.0	pain	cue	10	high_cue	n/a	n/a	n/a	n/a	n/a	n/a	n/a	task-social/cue/runtype-pain/sch/h007.png	n/a	n/a	n/a	n/a	n/a	n/a	n/a	n/a
289.0	n/a	pain	expectrating	10	high_cue	n/a	n/a	n/a	76.08	Very-Strong	0.35	3.78	task-social/cue/runtype-pain/sch/h007.png	n/a	n/a	n/a	n/a	n/a	n/a	n/a	n/a
296.05	12.819999999999993	pain	stimulus	10	high_cue	high_stim	n/a	n/a	n/a	n/a	n/a	n/a	n/a	296.05	300.06	305.06	308.87	success	n/a	n/a	n/a
311.3	n/a	pain	outcomerating	10	high_cue	high_stim	n/a	n/a	88.84	Very-Strong	0.35	3.78	task-social/outcomerating/task-pain_scale.png	n/a	n/a	n/a	n/a	success	n/a	n/a	n/a
326.19	1.0	pain	cue	11	low_cue	n/a	n/a	n/a	n/a	n/a	n/a	n/a	task-social/cue/runtype-pain/scl/l027.png	n/a	n/a	n/a	n/a	n/a	n/a	n/a	n/a
328.09	n/a	pain	expectrating	11	low_cue	n/a	n/a	n/a	53.13	Strong	0.15	1.32	task-social/cue/runtype-pain/scl/l027.png	n/a	n/a	n/a	n/a	n/a	n/a	n/a	n/a
340.44	12.360000000000014	pain	stimulus	11	low_cue	med_stim	n/a	n/a	n/a	n/a	n/a	n/a	n/a	340.44	344.2	349.2	352.81	success	n/a	n/a	n/a
353.3	n/a	pain	outcomerating	11	low_cue	med_stim	n/a	n/a	54.52	Strong	0.15	1.32	task-social/outcomerating/task-pain_scale.png	n/a	n/a	n/a	n/a	success	n/a	n/a	n/a
366.39	1.0	pain	cue	12	low_cue	n/a	n/a	n/a	n/a	n/a	n/a	n/a	task-social/cue/runtype-pain/scl/l029.png	n/a	n/a	n/a	n/a	n/a	n/a	n/a	n/a
369.19	n/a	pain	expectrating	12	low_cue	n/a	n/a	n/a	31.08	Strong	0.55	2.33	task-social/cue/runtype-pain/scl/l029.png	n/a	n/a	n/a	n/a	n/a	n/a	n/a	n/a
373.82	12.819999999999993	pain	stimulus	12	low_cue	high_stim	n/a	n/a	n/a	n/a	n/a	n/a	n/a	373.82	377.83	382.83	386.64	success	n/a	n/a	n/a
394.8	n/a	pain	outcomerating	12	low_cue	high_stim	n/a	n/a	75.29	Very-Strong	0.55	2.33	task-social/outcomerating/task-pain_scale.png	n/a	n/a	n/a	n/a	success	n/a	n/a	n/a
