onset	duration	run_type	trial_type	trial_index	cue	stimulusintensity	rating_value	rating_glmslabel	rating_value_fillna	rating_glmslabel_fillna	rating_mouseonset	rating_mousedur	stim_file	pain_onset_ttl1	pain_onset_ttl2	pain_onset_ttl3	pain_onset_ttl4	pain_stimulus_delivery_success	cognitive_correct_response	cognitive_participant_response	cognitive_response_accuracy
11.59	1.0	pain	cue	1	low_cue	n/a	n/a	n/a	n/a	n/a	n/a	n/a	task-social/cue/runtype-pain/scl/l021.png	n/a	n/a	n/a	n/a	n/a	n/a	n/a	n/a
14.8	1.71	pain	expectrating	1	low_cue	n/a	51.66	Strong	51.66	Strong	0.32	1.39	task-social/cue/runtype-pain/scl/l021.png	n/a	n/a	n/a	n/a	n/a	n/a	n/a	n/a
19.52	11.900000000000002	pain	stimulus	1	low_cue	low_stim	n/a	n/a	n/a	n/a	n/a	n/a	n/a	19.52	23.02	28.02	31.42	success	n/a	n/a	n/a
36.9	2.4	pain	outcomerating	1	low_cue	low_stim	74.91	Very Strong	74.91	Very Strong	0.32	1.39	task-social/outcomerating/task-pain_scale.png	n/a	n/a	n/a	n/a	success	n/a	n/a	n/a
42.38	1.0	pain	cue	2	high_cue	n/a	n/a	n/a	n/a	n/a	n/a	n/a	task-social/cue/runtype-pain/sch/h052.png	n/a	n/a	n/a	n/a	n/a	n/a	n/a	n/a
44.2	3.28	pain	expectrating	2	high_cue	n/a	107.03	Strongest sensation of any kind	107.03	Strongest sensation of any kind	1.1	2.18	task-social/cue/runtype-pain/sch/h052.png	n/a	n/a	n/a	n/a	n/a	n/a	n/a	n/a
55.5	12.370000000000005	pain	stimulus	2	high_cue	med_stim	n/a	n/a	n/a	n/a	n/a	n/a	n/a	55.5	59.26	64.26	67.87	success	n/a	n/a	n/a
67.49	1.67	pain	outcomerating	2	high_cue	med_stim	97.03	Very Strong	97.03	Very Strong	1.1	2.18	task-social/outcomerating/task-pain_scale.png	n/a	n/a	n/a	n/a	success	n/a	n/a	n/a
74.19	1.0	pain	cue	3	high_cue	n/a	n/a	n/a	n/a	n/a	n/a	n/a	task-social/cue/runtype-pain/sch/h048.png	n/a	n/a	n/a	n/a	n/a	n/a	n/a	n/a
77.39	1.7	pain	expectrating	3	high_cue	n/a	104.65	Strongest sensation of any kind	104.65	Strongest sensation of any kind	0.65	1.05	task-social/cue/runtype-pain/sch/h048.png	n/a	n/a	n/a	n/a	n/a	n/a	n/a	n/a
83.11	11.909999999999997	pain	stimulus	3	high_cue	low_stim	n/a	n/a	n/a	n/a	n/a	n/a	n/a	83.11	86.61	91.61	95.01	success	n/a	n/a	n/a
96.58	2.46	pain	outcomerating	3	high_cue	low_stim	34.71	Strong	34.71	Strong	0.65	1.05	task-social/outcomerating/task-pain_scale.png	n/a	n/a	n/a	n/a	success	n/a	n/a	n/a
110.59	1.0	pain	cue	4	high_cue	n/a	n/a	n/a	n/a	n/a	n/a	n/a	task-social/cue/runtype-pain/sch/h005.png	n/a	n/a	n/a	n/a	n/a	n/a	n/a	n/a
113.29	1.97	pain	expectrating	4	high_cue	n/a	132.51	Strongest sensation of any kind	132.51	Strongest sensation of any kind	0.08	1.89	task-social/cue/runtype-pain/sch/h005.png	n/a	n/a	n/a	n/a	n/a	n/a	n/a	n/a
118.01	12.820000000000007	pain	stimulus	4	high_cue	high_stim	n/a	n/a	n/a	n/a	n/a	n/a	n/a	118.01	122.02	127.02	130.83	success	n/a	n/a	n/a
133.2	2.4	pain	outcomerating	4	high_cue	high_stim	114.39	Strongest sensation of any kind	114.39	Strongest sensation of any kind	0.08	1.89	task-social/outcomerating/task-pain_scale.png	n/a	n/a	n/a	n/a	success	n/a	n/a	n/a
139.88	1.0	pain	cue	5	low_cue	n/a	n/a	n/a	n/a	n/a	n/a	n/a	task-social/cue/runtype-pain/scl/l053.png	n/a	n/a	n/a	n/a	n/a	n/a	n/a	n/a
143.09	1.86	pain	expectrating	5	low_cue	n/a	65.71	Very Strong	65.71	Very Strong	0.52	1.34	task-social/cue/runtype-pain/scl/l053.png	n/a	n/a	n/a	n/a	n/a	n/a	n/a	n/a
154.8	12.369999999999976	pain	stimulus	5	low_cue	med_stim	n/a	n/a	n/a	n/a	n/a	n/a	n/a	154.8	158.56	163.56	167.17	success	n/a	n/a	n/a
165.69	2.93	pain	outcomerating	5	low_cue	med_stim	56.95	Strong	56.95	Strong	0.52	1.34	task-social/outcomerating/task-pain_scale.png	n/a	n/a	n/a	n/a	success	n/a	n/a	n/a
181.28	1.0	pain	cue	6	low_cue	n/a	n/a	n/a	n/a	n/a	n/a	n/a	task-social/cue/runtype-pain/scl/l050.png	n/a	n/a	n/a	n/a	n/a	n/a	n/a	n/a
183.7	1.87	pain	expectrating	6	low_cue	n/a	13.42	Moderate	13.42	Moderate	0.68	1.18	task-social/cue/runtype-pain/scl/l050.png	n/a	n/a	n/a	n/a	n/a	n/a	n/a	n/a
194.81	12.829999999999984	pain	stimulus	6	low_cue	high_stim	n/a	n/a	n/a	n/a	n/a	n/a	n/a	194.81	198.82	203.82	207.63	success	n/a	n/a	n/a
210.39	1.5	pain	outcomerating	6	low_cue	high_stim	61.5	Strong	61.5	Strong	0.68	1.18	task-social/outcomerating/task-pain_scale.png	n/a	n/a	n/a	n/a	success	n/a	n/a	n/a
216.1	0.98	pain	cue	7	low_cue	n/a	n/a	n/a	n/a	n/a	n/a	n/a	task-social/cue/runtype-pain/scl/l033.png	n/a	n/a	n/a	n/a	n/a	n/a	n/a	n/a
218.7	2.62	pain	expectrating	7	low_cue	n/a	30.88	Strong	30.88	Strong	1.17	1.45	task-social/cue/runtype-pain/scl/l033.png	n/a	n/a	n/a	n/a	n/a	n/a	n/a	n/a
233.85	12.370000000000005	pain	stimulus	7	low_cue	med_stim	n/a	n/a	n/a	n/a	n/a	n/a	n/a	233.85	237.61	242.61	246.22	success	n/a	n/a	n/a
244.49	2.01	pain	outcomerating	7	low_cue	med_stim	66.32	Very Strong	66.32	Very Strong	1.17	1.45	task-social/outcomerating/task-pain_scale.png	n/a	n/a	n/a	n/a	success	n/a	n/a	n/a
250.39	1.0	pain	cue	8	low_cue	n/a	n/a	n/a	n/a	n/a	n/a	n/a	task-social/cue/runtype-pain/scl/l025.png	n/a	n/a	n/a	n/a	n/a	n/a	n/a	n/a
253.09	1.84	pain	expectrating	8	low_cue	n/a	24.71	Moderate	24.71	Moderate	0.75	1.09	task-social/cue/runtype-pain/scl/l025.png	n/a	n/a	n/a	n/a	n/a	n/a	n/a	n/a
263.83	12.819999999999993	pain	stimulus	8	low_cue	high_stim	n/a	n/a	n/a	n/a	n/a	n/a	n/a	263.83	267.84	272.84	276.65	success	n/a	n/a	n/a
282.69	3.97	pain	outcomerating	8	low_cue	high_stim	66.41	Very Strong	66.41	Very Strong	0.75	1.09	task-social/outcomerating/task-pain_scale.png	n/a	n/a	n/a	n/a	success	n/a	n/a	n/a
287.69	1.0	pain	cue	9	high_cue	n/a	n/a	n/a	n/a	n/a	n/a	n/a	task-social/cue/runtype-pain/sch/h040.png	n/a	n/a	n/a	n/a	n/a	n/a	n/a	n/a
289.49	1.49	pain	expectrating	9	high_cue	n/a	105.09	Strongest sensation of any kind	105.09	Strongest sensation of any kind	0.4	1.09	task-social/cue/runtype-pain/sch/h040.png	n/a	n/a	n/a	n/a	n/a	n/a	n/a	n/a
295.12	11.899999999999977	pain	stimulus	9	high_cue	low_stim	n/a	n/a	n/a	n/a	n/a	n/a	n/a	295.12	298.62	303.62	307.02	success	n/a	n/a	n/a
308.2	2.97	pain	outcomerating	9	high_cue	low_stim	39.31	Strong	39.31	Strong	0.4	1.09	task-social/outcomerating/task-pain_scale.png	n/a	n/a	n/a	n/a	success	n/a	n/a	n/a
317.98	1.0	pain	cue	10	high_cue	n/a	n/a	n/a	n/a	n/a	n/a	n/a	task-social/cue/runtype-pain/sch/h006.png	n/a	n/a	n/a	n/a	n/a	n/a	n/a	n/a
320.58	1.43	pain	expectrating	10	high_cue	n/a	104.37	Strongest sensation of any kind	104.37	Strongest sensation of any kind	0.28	1.15	task-social/cue/runtype-pain/sch/h006.png	n/a	n/a	n/a	n/a	n/a	n/a	n/a	n/a
326.22	12.819999999999993	pain	stimulus	10	high_cue	high_stim	n/a	n/a	n/a	n/a	n/a	n/a	n/a	326.22	330.23	335.23	339.04	success	n/a	n/a	n/a
337.49	1.52	pain	outcomerating	10	high_cue	high_stim	101.5	Strongest sensation of any kind	101.5	Strongest sensation of any kind	0.28	1.15	task-social/outcomerating/task-pain_scale.png	n/a	n/a	n/a	n/a	success	n/a	n/a	n/a
343.89	1.0	pain	cue	11	high_cue	n/a	n/a	n/a	n/a	n/a	n/a	n/a	task-social/cue/runtype-pain/sch/h028.png	n/a	n/a	n/a	n/a	n/a	n/a	n/a	n/a
345.69	1.38	pain	expectrating	11	high_cue	n/a	100.6	Strongest sensation of any kind	100.6	Strongest sensation of any kind	0.33	1.05	task-social/cue/runtype-pain/sch/h028.png	n/a	n/a	n/a	n/a	n/a	n/a	n/a	n/a
355.81	12.370000000000005	pain	stimulus	11	high_cue	med_stim	n/a	n/a	n/a	n/a	n/a	n/a	n/a	355.81	359.57	364.57	368.18	success	n/a	n/a	n/a
366.69	2.38	pain	outcomerating	11	high_cue	med_stim	77.92	Very Strong	77.92	Very Strong	0.33	1.05	task-social/outcomerating/task-pain_scale.png	n/a	n/a	n/a	n/a	success	n/a	n/a	n/a
374.79	1.0	pain	cue	12	low_cue	n/a	n/a	n/a	n/a	n/a	n/a	n/a	task-social/cue/runtype-pain/scl/l052.png	n/a	n/a	n/a	n/a	n/a	n/a	n/a	n/a
376.69	3.19	pain	expectrating	12	low_cue	n/a	31.4	Strong	31.4	Strong	1.13	2.06	task-social/cue/runtype-pain/scl/l052.png	n/a	n/a	n/a	n/a	n/a	n/a	n/a	n/a
382.32	11.900000000000034	pain	stimulus	12	low_cue	low_stim	n/a	n/a	n/a	n/a	n/a	n/a	n/a	382.32	385.82	390.82	394.22	success	n/a	n/a	n/a
394.8	n/a	pain	outcomerating	12	low_cue	low_stim	n/a	n/a	44.35	Strong	1.13	2.06	task-social/outcomerating/task-pain_scale.png	n/a	n/a	n/a	n/a	success	n/a	n/a	n/a
