onset	duration	run_type	trial_type	trial_index	cue	stimulusintensity	rating_value	rating_glmslabel	rating_value_fillna	rating_glmslabel_fillna	rating_mouseonset	rating_mousedur	stim_file_TODO	pain_onset_ttl1	pain_onset_ttl2	pain_onset_ttl3	pain_onset_ttl4	pain_stimulus_delivery_success	cognitive_correct_response	cognitive_participant_response	cognitive_response_accuracy
14.19	1.0	pain	cue	1	low_cue	n/a	n/a	n/a	n/a	n/a	n/a	n/a	task-social/cue/runtype-pain/scl/l034.png	n/a	n/a	n/a	n/a	n/a	n/a	n/a	n/a
16.03	1.37	pain	expectrating	1	low_cue	n/a	19.24	Moderate	19.24	Moderate	0.6	0.77	task-social/cue/runtype-pain/scl/l034.png	n/a	n/a	n/a	n/a	n/a	n/a	n/a	n/a
20.63	11.900000000000002	pain	stimulus	1	low_cue	low_stim	n/a	n/a	n/a	n/a	n/a	n/a	n/a	20.63	24.13	29.13	32.53	success	n/a	n/a	n/a
35.3	2.03	pain	outcomerating	1	low_cue	low_stim	35.65	Strong	35.65	Strong	0.6	0.77	task-social/outcomerating/task-pain_scale.png	n/a	n/a	n/a	n/a	success	n/a	n/a	n/a
40.6	1.0	pain	cue	2	low_cue	n/a	n/a	n/a	n/a	n/a	n/a	n/a	task-social/cue/runtype-pain/scl/l003.png	n/a	n/a	n/a	n/a	n/a	n/a	n/a	n/a
43.6	1.37	pain	expectrating	2	low_cue	n/a	43.86	Strong	43.86	Strong	0.37	1.0	task-social/cue/runtype-pain/scl/l003.png	n/a	n/a	n/a	n/a	n/a	n/a	n/a	n/a
48.24	12.36	pain	stimulus	2	low_cue	med_stim	n/a	n/a	n/a	n/a	n/a	n/a	n/a	48.24	52.0	57.0	60.61	success	n/a	n/a	n/a
63.69	1.62	pain	outcomerating	2	low_cue	med_stim	53.83	Strong	53.83	Strong	0.37	1.0	task-social/outcomerating/task-pain_scale.png	n/a	n/a	n/a	n/a	success	n/a	n/a	n/a
72.2	1.0	pain	cue	3	high_cue	n/a	n/a	n/a	n/a	n/a	n/a	n/a	task-social/cue/runtype-pain/sch/h040.png	n/a	n/a	n/a	n/a	n/a	n/a	n/a	n/a
75.2	1.42	pain	expectrating	3	high_cue	n/a	93.8	Very Strong	93.8	Very Strong	0.38	1.03	task-social/cue/runtype-pain/sch/h040.png	n/a	n/a	n/a	n/a	n/a	n/a	n/a	n/a
84.12	12.36999999999999	pain	stimulus	3	high_cue	med_stim	n/a	n/a	n/a	n/a	n/a	n/a	n/a	84.12	87.88	92.88	96.49	success	n/a	n/a	n/a
95.91	1.6	pain	outcomerating	3	high_cue	med_stim	74.5	Very Strong	74.5	Very Strong	0.38	1.03	task-social/outcomerating/task-pain_scale.png	n/a	n/a	n/a	n/a	success	n/a	n/a	n/a
108.99	1.0	pain	cue	4	low_cue	n/a	n/a	n/a	n/a	n/a	n/a	n/a	task-social/cue/runtype-pain/scl/l049.png	n/a	n/a	n/a	n/a	n/a	n/a	n/a	n/a
110.9	1.52	pain	expectrating	4	low_cue	n/a	53.13	Strong	53.13	Strong	0.57	0.95	task-social/cue/runtype-pain/scl/l049.png	n/a	n/a	n/a	n/a	n/a	n/a	n/a	n/a
118.32	12.819999999999993	pain	stimulus	4	low_cue	high_stim	n/a	n/a	n/a	n/a	n/a	n/a	n/a	118.32	122.33	127.33	131.14	success	n/a	n/a	n/a
130.5	2.18	pain	outcomerating	4	low_cue	high_stim	50.19	Strong	50.19	Strong	0.57	0.95	task-social/outcomerating/task-pain_scale.png	n/a	n/a	n/a	n/a	success	n/a	n/a	n/a
145.09	1.0	pain	cue	5	high_cue	n/a	n/a	n/a	n/a	n/a	n/a	n/a	task-social/cue/runtype-pain/sch/h047.png	n/a	n/a	n/a	n/a	n/a	n/a	n/a	n/a
146.81	1.45	pain	expectrating	5	high_cue	n/a	87.67	Very Strong	87.67	Very Strong	0.53	0.92	task-social/cue/runtype-pain/sch/h047.png	n/a	n/a	n/a	n/a	n/a	n/a	n/a	n/a
153.33	12.359999999999985	pain	stimulus	5	high_cue	med_stim	n/a	n/a	n/a	n/a	n/a	n/a	n/a	153.33	157.09	162.09	165.7	success	n/a	n/a	n/a
166.5	1.63	pain	outcomerating	5	high_cue	med_stim	68.88	Very Strong	68.88	Very Strong	0.53	0.92	task-social/outcomerating/task-pain_scale.png	n/a	n/a	n/a	n/a	success	n/a	n/a	n/a
171.4	0.98	pain	cue	6	low_cue	n/a	n/a	n/a	n/a	n/a	n/a	n/a	task-social/cue/runtype-pain/scl/l004.png	n/a	n/a	n/a	n/a	n/a	n/a	n/a	n/a
174.5	1.03	pain	expectrating	6	low_cue	n/a	32.74	Strong	32.74	Strong	0.38	0.65	task-social/cue/runtype-pain/scl/l004.png	n/a	n/a	n/a	n/a	n/a	n/a	n/a	n/a
180.73	12.820000000000022	pain	stimulus	6	low_cue	high_stim	n/a	n/a	n/a	n/a	n/a	n/a	n/a	180.73	184.74	189.74	193.55	success	n/a	n/a	n/a
194.49	1.47	pain	outcomerating	6	low_cue	high_stim	55.8	Strong	55.8	Strong	0.38	0.65	task-social/outcomerating/task-pain_scale.png	n/a	n/a	n/a	n/a	success	n/a	n/a	n/a
199.8	1.0	pain	cue	7	low_cue	n/a	n/a	n/a	n/a	n/a	n/a	n/a	task-social/cue/runtype-pain/scl/l038.png	n/a	n/a	n/a	n/a	n/a	n/a	n/a	n/a
202.8	2.13	pain	expectrating	7	low_cue	n/a	19.02	Moderate	19.02	Moderate	1.43	0.7	task-social/cue/runtype-pain/scl/l038.png	n/a	n/a	n/a	n/a	n/a	n/a	n/a	n/a
216.22	11.909999999999997	pain	stimulus	7	low_cue	low_stim	n/a	n/a	n/a	n/a	n/a	n/a	n/a	216.22	219.72	224.72	228.12	success	n/a	n/a	n/a
231.11	1.1	pain	outcomerating	7	low_cue	low_stim	11.58	Moderate	11.58	Moderate	1.43	0.7	task-social/outcomerating/task-pain_scale.png	n/a	n/a	n/a	n/a	success	n/a	n/a	n/a
236.79	1.0	pain	cue	8	high_cue	n/a	n/a	n/a	n/a	n/a	n/a	n/a	task-social/cue/runtype-pain/sch/h015.png	n/a	n/a	n/a	n/a	n/a	n/a	n/a	n/a
238.49	1.35	pain	expectrating	8	high_cue	n/a	80.5	Very Strong	80.5	Very Strong	0.4	0.95	task-social/cue/runtype-pain/sch/h015.png	n/a	n/a	n/a	n/a	n/a	n/a	n/a	n/a
243.33	12.819999999999965	pain	stimulus	8	high_cue	high_stim	n/a	n/a	n/a	n/a	n/a	n/a	n/a	243.33	247.34	252.34	256.15	success	n/a	n/a	n/a
255.5	1.68	pain	outcomerating	8	high_cue	high_stim	65.42	Very Strong	65.42	Very Strong	0.4	0.95	task-social/outcomerating/task-pain_scale.png	n/a	n/a	n/a	n/a	success	n/a	n/a	n/a
264.19	1.0	pain	cue	9	high_cue	n/a	n/a	n/a	n/a	n/a	n/a	n/a	task-social/cue/runtype-pain/sch/h039.png	n/a	n/a	n/a	n/a	n/a	n/a	n/a	n/a
267.2	1.34	pain	expectrating	9	high_cue	n/a	96.49	Very Strong	96.49	Very Strong	0.4	0.94	task-social/cue/runtype-pain/sch/h039.png	n/a	n/a	n/a	n/a	n/a	n/a	n/a	n/a
277.53	12.82000000000005	pain	stimulus	9	high_cue	high_stim	n/a	n/a	n/a	n/a	n/a	n/a	n/a	277.53	281.54	286.54	290.35	success	n/a	n/a	n/a
290.5	1.52	pain	outcomerating	9	high_cue	high_stim	105.28	Strongest sensation of any kind	105.28	Strongest sensation of any kind	0.4	0.94	task-social/outcomerating/task-pain_scale.png	n/a	n/a	n/a	n/a	success	n/a	n/a	n/a
298.4	1.0	pain	cue	10	high_cue	n/a	n/a	n/a	n/a	n/a	n/a	n/a	task-social/cue/runtype-pain/sch/h028.png	n/a	n/a	n/a	n/a	n/a	n/a	n/a	n/a
301.2	2.08	pain	expectrating	10	high_cue	n/a	89.52	Very Strong	89.52	Very Strong	1.0	1.08	task-social/cue/runtype-pain/sch/h028.png	n/a	n/a	n/a	n/a	n/a	n/a	n/a	n/a
319.92	11.909999999999968	pain	stimulus	10	high_cue	low_stim	n/a	n/a	n/a	n/a	n/a	n/a	n/a	319.92	323.42	328.42	331.82	success	n/a	n/a	n/a
331.09	1.79	pain	outcomerating	10	high_cue	low_stim	61.57	Strong	61.57	Strong	1.0	1.08	task-social/outcomerating/task-pain_scale.png	n/a	n/a	n/a	n/a	success	n/a	n/a	n/a
336.0	1.0	pain	cue	11	high_cue	n/a	n/a	n/a	n/a	n/a	n/a	n/a	task-social/cue/runtype-pain/sch/h009.png	n/a	n/a	n/a	n/a	n/a	n/a	n/a	n/a
338.9	1.5	pain	expectrating	11	high_cue	n/a	91.39	Very Strong	91.39	Very Strong	0.42	1.08	task-social/cue/runtype-pain/sch/h009.png	n/a	n/a	n/a	n/a	n/a	n/a	n/a	n/a
343.71	11.900000000000034	pain	stimulus	11	high_cue	low_stim	n/a	n/a	n/a	n/a	n/a	n/a	n/a	343.71	347.21	352.21	355.61	success	n/a	n/a	n/a
359.4	1.18	pain	outcomerating	11	high_cue	low_stim	33.56	Strong	33.56	Strong	0.42	1.08	task-social/outcomerating/task-pain_scale.png	n/a	n/a	n/a	n/a	success	n/a	n/a	n/a
366.99	1.0	pain	cue	12	low_cue	n/a	n/a	n/a	n/a	n/a	n/a	n/a	task-social/cue/runtype-pain/scl/l007.png	n/a	n/a	n/a	n/a	n/a	n/a	n/a	n/a
368.89	1.19	pain	expectrating	12	low_cue	n/a	9.93	Weak	9.93	Weak	0.32	0.87	task-social/cue/runtype-pain/scl/l007.png	n/a	n/a	n/a	n/a	n/a	n/a	n/a	n/a
380.53	12.360000000000014	pain	stimulus	12	low_cue	med_stim	n/a	n/a	n/a	n/a	n/a	n/a	n/a	380.53	384.29	389.29	392.9	success	n/a	n/a	n/a
394.5	1.5	pain	outcomerating	12	low_cue	med_stim	67.68	Very Strong	67.68	Very Strong	0.32	0.87	task-social/outcomerating/task-pain_scale.png	n/a	n/a	n/a	n/a	success	n/a	n/a	n/a
