onset	duration	run_type	trial_type	trial_index	cue	stimulusintensity	rating_value	rating_glmslabel	rating_value_fillna	rating_glmslabel_fillna	rating_mouseonset	rating_mousedur	stim_file	pain_onset_ttl1	pain_onset_ttl2	pain_onset_ttl3	pain_onset_ttl4	pain_stimulus_delivery_success	cognitive_correct_response	cognitive_participant_response	cognitive_response_accuracy
3.39	0.99	cognitive	cue	1	low_cue	n/a	n/a	n/a	n/a	n/a	n/a	n/a	task-social/cue/runtype-cognitive/scl/l038.png	n/a	n/a	n/a	n/a	n/a	n/a	n/a	n/a
6.11	1.19	cognitive	expectrating	1	low_cue	n/a	18.43	Moderate	18.43	Moderate	0.4	0.79	task-social/cue/runtype-cognitive/scl/l038.png	n/a	n/a	n/a	n/a	n/a	n/a	n/a	n/a
18.5	5.0	cognitive	stimulus	1	low_cue	high_stim	n/a	n/a	n/a	n/a	n/a	n/a	task-social/stim/runtype-cognitive/48_150_R.jpg	n/a	n/a	n/a	n/a	n/a	diff	diff	True
32.6	1.53	cognitive	outcomerating	1	low_cue	high_stim	32.74	Strong	32.74	Strong	0.4	0.79	task-social/outcomerating/task-cognitive_scale.png	n/a	n/a	n/a	n/a	n/a	n/a	n/a	n/a
45.99	0.99	cognitive	cue	2	high_cue	n/a	n/a	n/a	n/a	n/a	n/a	n/a	task-social/cue/runtype-cognitive/sch/h019.png	n/a	n/a	n/a	n/a	n/a	n/a	n/a	n/a
49.11	1.42	cognitive	expectrating	2	high_cue	n/a	75.8	Very-Strong	75.8	Very-Strong	0.38	1.04	task-social/cue/runtype-cognitive/sch/h019.png	n/a	n/a	n/a	n/a	n/a	n/a	n/a	n/a
59.6	5.0	cognitive	stimulus	2	high_cue	med_stim	n/a	n/a	n/a	n/a	n/a	n/a	task-social/stim/runtype-cognitive/23_100.jpg	n/a	n/a	n/a	n/a	n/a	same	same	True
76.0	1.62	cognitive	outcomerating	2	high_cue	med_stim	39.45	Strong	39.45	Strong	0.38	1.04	task-social/outcomerating/task-cognitive_scale.png	n/a	n/a	n/a	n/a	n/a	n/a	n/a	n/a
80.7	0.98	cognitive	cue	3	low_cue	n/a	n/a	n/a	n/a	n/a	n/a	n/a	task-social/cue/runtype-cognitive/scl/l033.png	n/a	n/a	n/a	n/a	n/a	n/a	n/a	n/a
83.8	1.04	cognitive	expectrating	3	low_cue	n/a	28.24	Moderate	28.24	Moderate	0.3	0.74	task-social/cue/runtype-cognitive/scl/l033.png	n/a	n/a	n/a	n/a	n/a	n/a	n/a	n/a
90.31	5.0	cognitive	stimulus	3	low_cue	low_stim	n/a	n/a	n/a	n/a	n/a	n/a	task-social/stim/runtype-cognitive/45_50_R.jpg	n/a	n/a	n/a	n/a	n/a	diff	diff	True
97.79	1.85	cognitive	outcomerating	3	low_cue	low_stim	44.84	Strong	44.84	Strong	0.3	0.74	task-social/outcomerating/task-cognitive_scale.png	n/a	n/a	n/a	n/a	n/a	n/a	n/a	n/a
110.3	0.99	cognitive	cue	4	low_cue	n/a	n/a	n/a	n/a	n/a	n/a	n/a	task-social/cue/runtype-cognitive/scl/l027.png	n/a	n/a	n/a	n/a	n/a	n/a	n/a	n/a
111.8	1.02	cognitive	expectrating	4	low_cue	n/a	25.84	Moderate	25.84	Moderate	0.38	0.63	task-social/cue/runtype-cognitive/scl/l027.png	n/a	n/a	n/a	n/a	n/a	n/a	n/a	n/a
118.6	5.0	cognitive	stimulus	4	low_cue	low_stim	n/a	n/a	n/a	n/a	n/a	n/a	task-social/stim/runtype-cognitive/33_50.jpg	n/a	n/a	n/a	n/a	n/a	same	same	True
134.71	1.2	cognitive	outcomerating	4	low_cue	low_stim	25.42	Moderate	25.42	Moderate	0.38	0.63	task-social/outcomerating/task-cognitive_scale.png	n/a	n/a	n/a	n/a	n/a	n/a	n/a	n/a
143.79	0.99	cognitive	cue	5	high_cue	n/a	n/a	n/a	n/a	n/a	n/a	n/a	task-social/cue/runtype-cognitive/sch/h023.png	n/a	n/a	n/a	n/a	n/a	n/a	n/a	n/a
146.9	1.39	cognitive	expectrating	5	high_cue	n/a	37.19	Strong	37.19	Strong	0.38	1.0	task-social/cue/runtype-cognitive/sch/h023.png	n/a	n/a	n/a	n/a	n/a	n/a	n/a	n/a
156.6	5.0	cognitive	stimulus	5	high_cue	low_stim	n/a	n/a	n/a	n/a	n/a	n/a	task-social/stim/runtype-cognitive/22_50_R.jpg	n/a	n/a	n/a	n/a	n/a	diff	diff	True
166.6	1.43	cognitive	outcomerating	5	high_cue	low_stim	66.83	Very-Strong	66.83	Very-Strong	0.38	1.0	task-social/outcomerating/task-cognitive_scale.png	n/a	n/a	n/a	n/a	n/a	n/a	n/a	n/a
171.3	0.98	cognitive	cue	6	high_cue	n/a	n/a	n/a	n/a	n/a	n/a	n/a	task-social/cue/runtype-cognitive/sch/h018.png	n/a	n/a	n/a	n/a	n/a	n/a	n/a	n/a
173.31	1.13	cognitive	expectrating	6	high_cue	n/a	39.24	Strong	39.24	Strong	0.38	0.75	task-social/cue/runtype-cognitive/sch/h018.png	n/a	n/a	n/a	n/a	n/a	n/a	n/a	n/a
179.79	5.0	cognitive	stimulus	6	high_cue	med_stim	n/a	n/a	n/a	n/a	n/a	n/a	task-social/stim/runtype-cognitive/43_100.jpg	n/a	n/a	n/a	n/a	n/a	same	diff	False
189.59	1.95	cognitive	outcomerating	6	high_cue	med_stim	71.78	Very-Strong	71.78	Very-Strong	0.38	0.75	task-social/outcomerating/task-cognitive_scale.png	n/a	n/a	n/a	n/a	n/a	n/a	n/a	n/a
201.1	0.99	cognitive	cue	7	high_cue	n/a	n/a	n/a	n/a	n/a	n/a	n/a	task-social/cue/runtype-cognitive/sch/h031.png	n/a	n/a	n/a	n/a	n/a	n/a	n/a	n/a
203.1	1.05	cognitive	expectrating	7	high_cue	n/a	47.45	Strong	47.45	Strong	0.45	0.6	task-social/cue/runtype-cognitive/sch/h031.png	n/a	n/a	n/a	n/a	n/a	n/a	n/a	n/a
216.1	5.0	cognitive	stimulus	7	high_cue	low_stim	n/a	n/a	n/a	n/a	n/a	n/a	task-social/stim/runtype-cognitive/45_50.jpg	n/a	n/a	n/a	n/a	n/a	same	same	True
226.71	2.01	cognitive	outcomerating	7	high_cue	low_stim	49.3	Strong	49.3	Strong	0.45	0.6	task-social/outcomerating/task-cognitive_scale.png	n/a	n/a	n/a	n/a	n/a	n/a	n/a	n/a
234.79	0.99	cognitive	cue	8	low_cue	n/a	n/a	n/a	n/a	n/a	n/a	n/a	task-social/cue/runtype-cognitive/scl/l020.png	n/a	n/a	n/a	n/a	n/a	n/a	n/a	n/a
237.3	1.1	cognitive	expectrating	8	low_cue	n/a	26.77	Moderate	26.77	Moderate	0.3	0.8	task-social/cue/runtype-cognitive/scl/l020.png	n/a	n/a	n/a	n/a	n/a	n/a	n/a	n/a
251.3	5.0	cognitive	stimulus	8	low_cue	high_stim	n/a	n/a	n/a	n/a	n/a	n/a	task-social/stim/runtype-cognitive/44_150.jpg	n/a	n/a	n/a	n/a	n/a	same	diff	False
260.4	1.29	cognitive	outcomerating	8	low_cue	high_stim	35.48	Strong	35.48	Strong	0.3	0.8	task-social/outcomerating/task-cognitive_scale.png	n/a	n/a	n/a	n/a	n/a	n/a	n/a	n/a
265.09	1.0	cognitive	cue	9	low_cue	n/a	n/a	n/a	n/a	n/a	n/a	n/a	task-social/cue/runtype-cognitive/scl/l040.png	n/a	n/a	n/a	n/a	n/a	n/a	n/a	n/a
268.21	1.32	cognitive	expectrating	9	low_cue	n/a	27.92	Moderate	27.92	Moderate	0.45	0.87	task-social/cue/runtype-cognitive/scl/l040.png	n/a	n/a	n/a	n/a	n/a	n/a	n/a	n/a
279.89	5.0	cognitive	stimulus	9	low_cue	med_stim	n/a	n/a	n/a	n/a	n/a	n/a	task-social/stim/runtype-cognitive/33_100.jpg	n/a	n/a	n/a	n/a	n/a	same	diff	False
290.0	1.53	cognitive	outcomerating	9	low_cue	med_stim	50.87	Strong	50.87	Strong	0.45	0.87	task-social/outcomerating/task-cognitive_scale.png	n/a	n/a	n/a	n/a	n/a	n/a	n/a	n/a
295.5	0.98	cognitive	cue	10	low_cue	n/a	n/a	n/a	n/a	n/a	n/a	n/a	task-social/cue/runtype-cognitive/scl/l052.png	n/a	n/a	n/a	n/a	n/a	n/a	n/a	n/a
297.4	1.13	cognitive	expectrating	10	low_cue	n/a	23.56	Moderate	23.56	Moderate	0.38	0.75	task-social/cue/runtype-cognitive/scl/l052.png	n/a	n/a	n/a	n/a	n/a	n/a	n/a	n/a
311.11	5.0	cognitive	stimulus	10	low_cue	med_stim	n/a	n/a	n/a	n/a	n/a	n/a	task-social/stim/runtype-cognitive/24_100_R.jpg	n/a	n/a	n/a	n/a	n/a	diff	same	False
321.69	2.0	cognitive	outcomerating	10	low_cue	med_stim	70.76	Very-Strong	70.76	Very-Strong	0.38	0.75	task-social/outcomerating/task-cognitive_scale.png	n/a	n/a	n/a	n/a	n/a	n/a	n/a	n/a
337.9	0.99	cognitive	cue	11	high_cue	n/a	n/a	n/a	n/a	n/a	n/a	n/a	task-social/cue/runtype-cognitive/sch/h016.png	n/a	n/a	n/a	n/a	n/a	n/a	n/a	n/a
340.6	1.13	cognitive	expectrating	11	high_cue	n/a	29.57	Strong	29.57	Strong	0.4	0.73	task-social/cue/runtype-cognitive/sch/h016.png	n/a	n/a	n/a	n/a	n/a	n/a	n/a	n/a
348.0	5.0	cognitive	stimulus	11	high_cue	high_stim	n/a	n/a	n/a	n/a	n/a	n/a	task-social/stim/runtype-cognitive/22_150_R.jpg	n/a	n/a	n/a	n/a	n/a	diff	diff	True
355.51	1.85	cognitive	outcomerating	11	high_cue	high_stim	18.43	Moderate	18.43	Moderate	0.4	0.73	task-social/outcomerating/task-cognitive_scale.png	n/a	n/a	n/a	n/a	n/a	n/a	n/a	n/a
362.59	0.99	cognitive	cue	12	high_cue	n/a	n/a	n/a	n/a	n/a	n/a	n/a	task-social/cue/runtype-cognitive/sch/h020.png	n/a	n/a	n/a	n/a	n/a	n/a	n/a	n/a
364.79	1.17	cognitive	expectrating	12	high_cue	n/a	48.08	Strong	48.08	Strong	0.25	0.92	task-social/cue/runtype-cognitive/sch/h020.png	n/a	n/a	n/a	n/a	n/a	n/a	n/a	n/a
378.5	5.0	cognitive	stimulus	12	high_cue	high_stim	n/a	n/a	n/a	n/a	n/a	n/a	task-social/stim/runtype-cognitive/9_150_R.jpg	n/a	n/a	n/a	n/a	n/a	diff	same	False
394.6	1.48	cognitive	outcomerating	12	high_cue	high_stim	56.76	Strong	56.76	Strong	0.25	0.92	task-social/outcomerating/task-cognitive_scale.png	n/a	n/a	n/a	n/a	n/a	n/a	n/a	n/a
