onset	duration	run_type	trial_type	trial_index	cue	stimulusintensity	rating_value	rating_glmslabel	rating_value_fillna	rating_glmslabel_fillna	rating_mouseonset	rating_mousedur	stim_file	pain_onset_ttl1	pain_onset_ttl2	pain_onset_ttl3	pain_onset_ttl4	pain_stimulus_delivery_success	cognitive_correct_response	cognitive_participant_response	cognitive_response_accuracy
14.18	0.99	cognitive	cue	1	low_cue	n/a	n/a	n/a	n/a	n/a	n/a	n/a	n/a	n/a	n/a	n/a	n/a	n/a	n/a	n/a	n/a
16.0	3.59	cognitive	expectrating	1	low_cue	n/a	23.17	Moderate	23.17	Moderate	1.35	2.24	task-social/cue/runtype-cognitive/scl/l047.png	n/a	n/a	n/a	n/a	n/a	n/a	n/a	n/a
22.6	5.0	cognitive	stimulus	1	low_cue	low_stim	n/a	n/a	n/a	n/a	n/a	n/a	task-social/stim/runtype-cognitive/47_50.jpg	n/a	n/a	n/a	n/a	n/a	same	n/a	False
35.29	n/a	cognitive	outcomerating	1	low_cue	low_stim	n/a	n/a	26.57	Moderate	1.78	2.13	task-social/outcomerating/task-cognitive_scale.png	n/a	n/a	n/a	n/a	n/a	n/a	n/a	n/a
40.59	0.98	cognitive	cue	2	low_cue	n/a	n/a	n/a	n/a	n/a	n/a	n/a	n/a	n/a	n/a	n/a	n/a	n/a	n/a	n/a	n/a
43.59	2.63	cognitive	expectrating	2	low_cue	n/a	17.78	Moderate	17.78	Moderate	0.73	1.9	task-social/cue/runtype-cognitive/scl/l031.png	n/a	n/a	n/a	n/a	n/a	n/a	n/a	n/a
50.18	5.0	cognitive	stimulus	2	low_cue	med_stim	n/a	n/a	n/a	n/a	n/a	n/a	task-social/stim/runtype-cognitive/27_100.jpg	n/a	n/a	n/a	n/a	n/a	same	same	True
63.68	3.09	cognitive	outcomerating	2	low_cue	med_stim	24.61	Moderate	24.61	Moderate	1.42	1.67	task-social/outcomerating/task-cognitive_scale.png	n/a	n/a	n/a	n/a	n/a	n/a	n/a	n/a
72.19	0.98	cognitive	cue	3	high_cue	n/a	n/a	n/a	n/a	n/a	n/a	n/a	n/a	n/a	n/a	n/a	n/a	n/a	n/a	n/a	n/a
75.19	n/a	cognitive	expectrating	3	high_cue	n/a	n/a	n/a	46.95	Strong	0.67	3.85	task-social/cue/runtype-cognitive/sch/h026.png	n/a	n/a	n/a	n/a	n/a	n/a	n/a	n/a
86.09	5.0	cognitive	stimulus	3	high_cue	med_stim	n/a	n/a	n/a	n/a	n/a	n/a	task-social/stim/runtype-cognitive/47_100_R.jpg	n/a	n/a	n/a	n/a	n/a	diff	same	False
95.89	3.8	cognitive	outcomerating	3	high_cue	med_stim	21.5	Moderate	21.5	Moderate	1.2	2.6	task-social/outcomerating/task-cognitive_scale.png	n/a	n/a	n/a	n/a	n/a	n/a	n/a	n/a
108.98	0.99	cognitive	cue	4	low_cue	n/a	n/a	n/a	n/a	n/a	n/a	n/a	n/a	n/a	n/a	n/a	n/a	n/a	n/a	n/a	n/a
110.9	2.32	cognitive	expectrating	4	low_cue	n/a	5.3	Weak	5.3	Weak	0.7	1.62	task-social/cue/runtype-cognitive/scl/l040.png	n/a	n/a	n/a	n/a	n/a	n/a	n/a	n/a
120.29	5.0	cognitive	stimulus	4	low_cue	high_stim	n/a	n/a	n/a	n/a	n/a	n/a	task-social/stim/runtype-cognitive/10_150.jpg	n/a	n/a	n/a	n/a	n/a	same	diff	False
130.49	3.7	cognitive	outcomerating	4	low_cue	high_stim	8.13	Weak	8.13	Weak	0.87	2.83	task-social/outcomerating/task-cognitive_scale.png	n/a	n/a	n/a	n/a	n/a	n/a	n/a	n/a
145.08	0.99	cognitive	cue	5	high_cue	n/a	n/a	n/a	n/a	n/a	n/a	n/a	n/a	n/a	n/a	n/a	n/a	n/a	n/a	n/a	n/a
146.8	2.38	cognitive	expectrating	5	high_cue	n/a	49.4	Strong	49.4	Strong	0.77	1.61	task-social/cue/runtype-cognitive/sch/h004.png	n/a	n/a	n/a	n/a	n/a	n/a	n/a	n/a
155.28	5.0	cognitive	stimulus	5	high_cue	med_stim	n/a	n/a	n/a	n/a	n/a	n/a	task-social/stim/runtype-cognitive/38_100.jpg	n/a	n/a	n/a	n/a	n/a	same	diff	False
166.49	n/a	cognitive	outcomerating	5	high_cue	med_stim	n/a	n/a	14.87	Moderate	1.27	2.47	task-social/outcomerating/task-cognitive_scale.png	n/a	n/a	n/a	n/a	n/a	n/a	n/a	n/a
171.39	0.98	cognitive	cue	6	low_cue	n/a	n/a	n/a	n/a	n/a	n/a	n/a	n/a	n/a	n/a	n/a	n/a	n/a	n/a	n/a	n/a
174.49	2.12	cognitive	expectrating	6	low_cue	n/a	2.76	Barely detectable	2.76	Barely detectable	0.7	1.42	task-social/cue/runtype-cognitive/scl/l055.png	n/a	n/a	n/a	n/a	n/a	n/a	n/a	n/a
182.68	5.0	cognitive	stimulus	6	low_cue	high_stim	n/a	n/a	n/a	n/a	n/a	n/a	task-social/stim/runtype-cognitive/11_150.jpg	n/a	n/a	n/a	n/a	n/a	same	same	True
194.48	3.99	cognitive	outcomerating	6	low_cue	high_stim	20.39	Moderate	20.39	Moderate	0.87	3.13	task-social/outcomerating/task-cognitive_scale.png	n/a	n/a	n/a	n/a	n/a	n/a	n/a	n/a
199.78	0.99	cognitive	cue	7	low_cue	n/a	n/a	n/a	n/a	n/a	n/a	n/a	n/a	n/a	n/a	n/a	n/a	n/a	n/a	n/a	n/a
202.8	2.11	cognitive	expectrating	7	low_cue	n/a	0.69	No sensation	0.69	No sensation	0.75	1.36	task-social/cue/runtype-cognitive/scl/l054.png	n/a	n/a	n/a	n/a	n/a	n/a	n/a	n/a
218.19	5.0	cognitive	stimulus	7	low_cue	low_stim	n/a	n/a	n/a	n/a	n/a	n/a	task-social/stim/runtype-cognitive/11_50.jpg	n/a	n/a	n/a	n/a	n/a	same	same	True
231.08	3.37	cognitive	outcomerating	7	low_cue	low_stim	9.35	Weak	9.35	Weak	1.42	1.95	task-social/outcomerating/task-cognitive_scale.png	n/a	n/a	n/a	n/a	n/a	n/a	n/a	n/a
236.78	0.99	cognitive	cue	8	high_cue	n/a	n/a	n/a	n/a	n/a	n/a	n/a	n/a	n/a	n/a	n/a	n/a	n/a	n/a	n/a	n/a
238.48	2.81	cognitive	expectrating	8	high_cue	n/a	34.74	Strong	34.74	Strong	0.7	2.11	task-social/cue/runtype-cognitive/sch/h044.png	n/a	n/a	n/a	n/a	n/a	n/a	n/a	n/a
245.28	5.0	cognitive	stimulus	8	high_cue	high_stim	n/a	n/a	n/a	n/a	n/a	n/a	task-social/stim/runtype-cognitive/5_150.jpg	n/a	n/a	n/a	n/a	n/a	same	same	True
255.49	3.89	cognitive	outcomerating	8	high_cue	high_stim	10.86	Moderate	10.86	Moderate	1.42	2.47	task-social/outcomerating/task-cognitive_scale.png	n/a	n/a	n/a	n/a	n/a	n/a	n/a	n/a
264.17	1.0	cognitive	cue	9	high_cue	n/a	n/a	n/a	n/a	n/a	n/a	n/a	n/a	n/a	n/a	n/a	n/a	n/a	n/a	n/a	n/a
267.19	2.73	cognitive	expectrating	9	high_cue	n/a	45.65	Strong	45.65	Strong	0.7	2.03	task-social/cue/runtype-cognitive/sch/h022.png	n/a	n/a	n/a	n/a	n/a	n/a	n/a	n/a
279.48	5.0	cognitive	stimulus	9	high_cue	high_stim	n/a	n/a	n/a	n/a	n/a	n/a	task-social/stim/runtype-cognitive/38_150.jpg	n/a	n/a	n/a	n/a	n/a	same	same	True
290.48	3.76	cognitive	outcomerating	9	high_cue	high_stim	32.6	Strong	32.6	Strong	0.9	2.86	task-social/outcomerating/task-cognitive_scale.png	n/a	n/a	n/a	n/a	n/a	n/a	n/a	n/a
298.39	0.98	cognitive	cue	10	high_cue	n/a	n/a	n/a	n/a	n/a	n/a	n/a	n/a	n/a	n/a	n/a	n/a	n/a	n/a	n/a	n/a
301.19	2.64	cognitive	expectrating	10	high_cue	n/a	50.05	Strong	50.05	Strong	0.9	1.74	task-social/cue/runtype-cognitive/sch/h012.png	n/a	n/a	n/a	n/a	n/a	n/a	n/a	n/a
321.88	5.0	cognitive	stimulus	10	high_cue	low_stim	n/a	n/a	n/a	n/a	n/a	n/a	task-social/stim/runtype-cognitive/47_50_R.jpg	n/a	n/a	n/a	n/a	n/a	diff	diff	True
331.08	n/a	cognitive	outcomerating	10	high_cue	low_stim	n/a	n/a	15.23	Moderate	1.07	2.77	task-social/outcomerating/task-cognitive_scale.png	n/a	n/a	n/a	n/a	n/a	n/a	n/a	n/a
335.98	0.99	cognitive	cue	11	high_cue	n/a	n/a	n/a	n/a	n/a	n/a	n/a	n/a	n/a	n/a	n/a	n/a	n/a	n/a	n/a	n/a
338.88	2.79	cognitive	expectrating	11	high_cue	n/a	39.81	Strong	39.81	Strong	0.93	1.85	task-social/cue/runtype-cognitive/sch/h048.png	n/a	n/a	n/a	n/a	n/a	n/a	n/a	n/a
345.69	5.0	cognitive	stimulus	11	high_cue	low_stim	n/a	n/a	n/a	n/a	n/a	n/a	task-social/stim/runtype-cognitive/38_50.jpg	n/a	n/a	n/a	n/a	n/a	same	diff	False
359.39	3.6	cognitive	outcomerating	11	high_cue	low_stim	27.39	Moderate	27.39	Moderate	1.18	2.42	task-social/outcomerating/task-cognitive_scale.png	n/a	n/a	n/a	n/a	n/a	n/a	n/a	n/a
366.98	0.99	cognitive	cue	12	low_cue	n/a	n/a	n/a	n/a	n/a	n/a	n/a	n/a	n/a	n/a	n/a	n/a	n/a	n/a	n/a	n/a
368.88	n/a	cognitive	expectrating	12	low_cue	n/a	n/a	n/a	26.77	Moderate	1.0	3.43	task-social/cue/runtype-cognitive/scl/l033.png	n/a	n/a	n/a	n/a	n/a	n/a	n/a	n/a
382.48	5.0	cognitive	stimulus	12	low_cue	med_stim	n/a	n/a	n/a	n/a	n/a	n/a	task-social/stim/runtype-cognitive/10_100.jpg	n/a	n/a	n/a	n/a	n/a	same	same	True
394.49	n/a	cognitive	outcomerating	12	low_cue	med_stim	n/a	n/a	44.17	Strong	1.13	2.75	task-social/outcomerating/task-cognitive_scale.png	n/a	n/a	n/a	n/a	n/a	n/a	n/a	n/a
