onset	duration	run_type	trial_type	trial_index	cue	stimulusintensity	rating_value	rating_glmslabel	rating_value_fillna	rating_glmslabel_fillna	rating_mouseonset	rating_mousedur	stim_file	pain_onset_ttl1	pain_onset_ttl2	pain_onset_ttl3	pain_onset_ttl4	pain_stimulus_delivery_success	cognitive_correct_response	cognitive_participant_response	cognitive_response_accuracy
4.7	1.0	pain	cue	1	high_cue	n/a	n/a	n/a	n/a	n/a	n/a	n/a	task-social/cue/runtype-pain/sch/h027.png	n/a	n/a	n/a	n/a	n/a	n/a	n/a	n/a
7.11	2.92	pain	expectrating	1	high_cue	n/a	54.65	Strong	54.65	Strong	1.13	1.79	task-social/cue/runtype-pain/sch/h027.png	n/a	n/a	n/a	n/a	n/a	n/a	n/a	n/a
19.94	11.899999999999999	pain	stimulus	1	high_cue	low_stim	n/a	n/a	n/a	n/a	n/a	n/a	n/a	19.94	23.44	28.44	31.84	success	n/a	n/a	n/a
31.31	1.95	pain	outcomerating	1	high_cue	low_stim	96.93	Very Strong	96.93	Very Strong	1.13	1.79	task-social/outcomerating/task-pain_scale.png	n/a	n/a	n/a	n/a	success	n/a	n/a	n/a
37.19	1.0	pain	cue	2	low_cue	n/a	n/a	n/a	n/a	n/a	n/a	n/a	task-social/cue/runtype-pain/scl/l029.png	n/a	n/a	n/a	n/a	n/a	n/a	n/a	n/a
39.01	1.91	pain	expectrating	2	low_cue	n/a	1.39	Barely detectable	1.39	Barely detectable	0.97	0.94	task-social/cue/runtype-pain/scl/l029.png	n/a	n/a	n/a	n/a	n/a	n/a	n/a	n/a
44.14	11.899999999999999	pain	stimulus	2	low_cue	low_stim	n/a	n/a	n/a	n/a	n/a	n/a	n/a	44.14	47.64	52.64	56.04	success	n/a	n/a	n/a
57.3	3.92	pain	outcomerating	2	low_cue	low_stim	45.16	Strong	45.16	Strong	0.97	0.94	task-social/outcomerating/task-pain_scale.png	n/a	n/a	n/a	n/a	success	n/a	n/a	n/a
62.2	1.0	pain	cue	3	low_cue	n/a	n/a	n/a	n/a	n/a	n/a	n/a	task-social/cue/runtype-pain/scl/l055.png	n/a	n/a	n/a	n/a	n/a	n/a	n/a	n/a
64.3	3.28	pain	expectrating	3	low_cue	n/a	20.69	Moderate	20.69	Moderate	1.33	1.95	task-social/cue/runtype-pain/scl/l055.png	n/a	n/a	n/a	n/a	n/a	n/a	n/a	n/a
75.13	12.370000000000005	pain	stimulus	3	low_cue	med_stim	n/a	n/a	n/a	n/a	n/a	n/a	n/a	75.13	78.89	83.89	87.5	success	n/a	n/a	n/a
86.69	n/a	pain	outcomerating	3	low_cue	med_stim	n/a	n/a	75.46	Very Strong	1.33	1.95	task-social/outcomerating/task-pain_scale.png	n/a	n/a	n/a	n/a	success	n/a	n/a	n/a
91.8	1.0	pain	cue	4	low_cue	n/a	n/a	n/a	n/a	n/a	n/a	n/a	task-social/cue/runtype-pain/scl/l048.png	n/a	n/a	n/a	n/a	n/a	n/a	n/a	n/a
94.9	2.44	pain	expectrating	4	low_cue	n/a	1.39	Barely detectable	1.39	Barely detectable	1.47	0.97	task-social/cue/runtype-pain/scl/l048.png	n/a	n/a	n/a	n/a	n/a	n/a	n/a	n/a
104.15	12.819999999999993	pain	stimulus	4	low_cue	high_stim	n/a	n/a	n/a	n/a	n/a	n/a	n/a	104.15	108.16	113.16	116.97	success	n/a	n/a	n/a
115.4	2.3	pain	outcomerating	4	low_cue	high_stim	126.4	Strongest sensation of any kind	126.4	Strongest sensation of any kind	1.47	0.97	task-social/outcomerating/task-pain_scale.png	n/a	n/a	n/a	n/a	success	n/a	n/a	n/a
120.09	1.0	pain	cue	5	high_cue	n/a	n/a	n/a	n/a	n/a	n/a	n/a	task-social/cue/runtype-pain/sch/h011.png	n/a	n/a	n/a	n/a	n/a	n/a	n/a	n/a
122.51	2.07	pain	expectrating	5	high_cue	n/a	69.3	Very Strong	69.3	Very Strong	0.7	1.37	task-social/cue/runtype-pain/sch/h011.png	n/a	n/a	n/a	n/a	n/a	n/a	n/a	n/a
132.13	12.370000000000005	pain	stimulus	5	high_cue	med_stim	n/a	n/a	n/a	n/a	n/a	n/a	n/a	132.13	135.89	140.89	144.5	success	n/a	n/a	n/a
144.7	3.6	pain	outcomerating	5	high_cue	med_stim	100.18	Strongest sensation of any kind	100.18	Strongest sensation of any kind	0.7	1.37	task-social/outcomerating/task-pain_scale.png	n/a	n/a	n/a	n/a	success	n/a	n/a	n/a
149.3	1.0	pain	cue	6	high_cue	n/a	n/a	n/a	n/a	n/a	n/a	n/a	task-social/cue/runtype-pain/sch/h041.png	n/a	n/a	n/a	n/a	n/a	n/a	n/a	n/a
151.4	2.23	pain	expectrating	6	high_cue	n/a	73.39	Very Strong	73.39	Very Strong	0.95	1.28	task-social/cue/runtype-pain/sch/h041.png	n/a	n/a	n/a	n/a	n/a	n/a	n/a	n/a
160.96	12.819999999999993	pain	stimulus	6	high_cue	high_stim	n/a	n/a	n/a	n/a	n/a	n/a	n/a	160.96	164.97	169.97	173.78	success	n/a	n/a	n/a
172.61	n/a	pain	outcomerating	6	high_cue	high_stim	n/a	n/a	95.98	Very Strong	0.95	1.28	task-social/outcomerating/task-pain_scale.png	n/a	n/a	n/a	n/a	success	n/a	n/a	n/a
178.59	1.0	pain	cue	7	high_cue	n/a	n/a	n/a	n/a	n/a	n/a	n/a	task-social/cue/runtype-pain/sch/h022.png	n/a	n/a	n/a	n/a	n/a	n/a	n/a	n/a
180.7	n/a	pain	expectrating	7	high_cue	n/a	n/a	n/a	93.92	Very Strong	2.92	3.82	task-social/cue/runtype-pain/sch/h022.png	n/a	n/a	n/a	n/a	n/a	n/a	n/a	n/a
187.33	11.899999999999977	pain	stimulus	7	high_cue	low_stim	n/a	n/a	n/a	n/a	n/a	n/a	n/a	187.33	190.83	195.83	199.23	success	n/a	n/a	n/a
207.21	3.42	pain	outcomerating	7	high_cue	low_stim	34.9	Strong	34.9	Strong	2.92	3.82	task-social/outcomerating/task-pain_scale.png	n/a	n/a	n/a	n/a	success	n/a	n/a	n/a
218.99	1.0	pain	cue	8	high_cue	n/a	n/a	n/a	n/a	n/a	n/a	n/a	task-social/cue/runtype-pain/sch/h001.png	n/a	n/a	n/a	n/a	n/a	n/a	n/a	n/a
221.09	1.86	pain	expectrating	8	high_cue	n/a	74.12	Very Strong	74.12	Very Strong	0.57	1.29	task-social/cue/runtype-pain/sch/h001.png	n/a	n/a	n/a	n/a	n/a	n/a	n/a	n/a
226.04	12.820000000000022	pain	stimulus	8	high_cue	high_stim	n/a	n/a	n/a	n/a	n/a	n/a	n/a	226.04	230.05	235.05	238.86	success	n/a	n/a	n/a
240.6	2.83	pain	outcomerating	8	high_cue	high_stim	65.08	Very Strong	65.08	Very Strong	0.57	1.29	task-social/outcomerating/task-pain_scale.png	n/a	n/a	n/a	n/a	success	n/a	n/a	n/a
245.5	1.0	pain	cue	9	low_cue	n/a	n/a	n/a	n/a	n/a	n/a	n/a	task-social/cue/runtype-pain/scl/l039.png	n/a	n/a	n/a	n/a	n/a	n/a	n/a	n/a
248.6	2.32	pain	expectrating	9	low_cue	n/a	20.77	Moderate	20.77	Moderate	0.8	1.52	task-social/cue/runtype-pain/scl/l039.png	n/a	n/a	n/a	n/a	n/a	n/a	n/a	n/a
257.23	11.909999999999968	pain	stimulus	9	low_cue	low_stim	n/a	n/a	n/a	n/a	n/a	n/a	n/a	257.23	260.73	265.73	269.13	success	n/a	n/a	n/a
270.5	3.99	pain	outcomerating	9	low_cue	low_stim	73.96	Very Strong	73.96	Very Strong	0.8	1.52	task-social/outcomerating/task-pain_scale.png	n/a	n/a	n/a	n/a	success	n/a	n/a	n/a
276.4	1.0	pain	cue	10	low_cue	n/a	n/a	n/a	n/a	n/a	n/a	n/a	task-social/cue/runtype-pain/scl/l053.png	n/a	n/a	n/a	n/a	n/a	n/a	n/a	n/a
279.5	2.14	pain	expectrating	10	low_cue	n/a	38.8	Strong	38.8	Strong	0.68	1.45	task-social/cue/runtype-pain/scl/l053.png	n/a	n/a	n/a	n/a	n/a	n/a	n/a	n/a
288.84	12.370000000000005	pain	stimulus	10	low_cue	med_stim	n/a	n/a	n/a	n/a	n/a	n/a	n/a	288.84	292.6	297.6	301.21	success	n/a	n/a	n/a
302.01	2.63	pain	outcomerating	10	low_cue	med_stim	66.62	Very Strong	66.62	Very Strong	0.68	1.45	task-social/outcomerating/task-pain_scale.png	n/a	n/a	n/a	n/a	success	n/a	n/a	n/a
323.0	1.0	pain	cue	11	low_cue	n/a	n/a	n/a	n/a	n/a	n/a	n/a	task-social/cue/runtype-pain/scl/l028.png	n/a	n/a	n/a	n/a	n/a	n/a	n/a	n/a
325.4	2.58	pain	expectrating	11	low_cue	n/a	5.57	Weak	5.57	Weak	1.02	1.57	task-social/cue/runtype-pain/scl/l028.png	n/a	n/a	n/a	n/a	n/a	n/a	n/a	n/a
330.85	12.819999999999993	pain	stimulus	11	low_cue	high_stim	n/a	n/a	n/a	n/a	n/a	n/a	n/a	330.85	334.86	339.86	343.67	success	n/a	n/a	n/a
341.21	3.02	pain	outcomerating	11	low_cue	high_stim	62.31	Strong	62.31	Strong	1.02	1.57	task-social/outcomerating/task-pain_scale.png	n/a	n/a	n/a	n/a	success	n/a	n/a	n/a
362.3	1.0	pain	cue	12	high_cue	n/a	n/a	n/a	n/a	n/a	n/a	n/a	task-social/cue/runtype-pain/sch/h031.png	n/a	n/a	n/a	n/a	n/a	n/a	n/a	n/a
365.4	2.37	pain	expectrating	12	high_cue	n/a	3.0	Barely detectable	3.0	Barely detectable	0.7	1.67	task-social/cue/runtype-pain/sch/h031.png	n/a	n/a	n/a	n/a	n/a	n/a	n/a	n/a
375.53	12.360000000000014	pain	stimulus	12	high_cue	med_stim	n/a	n/a	n/a	n/a	n/a	n/a	n/a	375.53	379.29	384.29	387.9	success	n/a	n/a	n/a
394.11	2.5	pain	outcomerating	12	high_cue	med_stim	36.36	Strong	36.36	Strong	0.7	1.67	task-social/outcomerating/task-pain_scale.png	n/a	n/a	n/a	n/a	success	n/a	n/a	n/a
