onset	duration	run_type	trial_type	trial_index	cue	stimulusintensity	rating_value	rating_glmslabel	rating_value_fillna	rating_glmslabel_fillna	rating_mouseonset	rating_mousedur	stim_file	pain_onset_ttl1	pain_onset_ttl2	pain_onset_ttl3	pain_onset_ttl4	pain_stimulus_delivery_success	cognitive_correct_response	cognitive_participant_response	cognitive_response_accuracy
11.6	0.98	cognitive	cue	1	low_cue	n/a	n/a	n/a	n/a	n/a	n/a	n/a	task-social/cue/runtype-cognitive/scl/l042.png	n/a	n/a	n/a	n/a	n/a	n/a	n/a	n/a
14.8	1.53	cognitive	expectrating	1	low_cue	n/a	0.23	No sensation	0.23	No sensation	0.12	1.42	task-social/cue/runtype-cognitive/scl/l042.png	n/a	n/a	n/a	n/a	n/a	n/a	n/a	n/a
21.5	5.0	cognitive	stimulus	1	low_cue	low_stim	n/a	n/a	n/a	n/a	n/a	n/a	task-social/stim/runtype-cognitive/24_50.jpg	n/a	n/a	n/a	n/a	n/a	same	same	True
36.89	2.62	cognitive	outcomerating	1	low_cue	low_stim	9.42	Weak	9.42	Weak	0.12	1.42	task-social/outcomerating/task-cognitive_scale.png	n/a	n/a	n/a	n/a	n/a	n/a	n/a	n/a
42.39	0.98	cognitive	cue	2	high_cue	n/a	n/a	n/a	n/a	n/a	n/a	n/a	task-social/cue/runtype-cognitive/sch/h029.png	n/a	n/a	n/a	n/a	n/a	n/a	n/a	n/a
44.19	1.47	cognitive	expectrating	2	high_cue	n/a	24.41	Moderate	24.41	Moderate	0.25	1.22	task-social/cue/runtype-cognitive/sch/h029.png	n/a	n/a	n/a	n/a	n/a	n/a	n/a	n/a
57.5	5.0	cognitive	stimulus	2	high_cue	med_stim	n/a	n/a	n/a	n/a	n/a	n/a	task-social/stim/runtype-cognitive/19_100_R.jpg	n/a	n/a	n/a	n/a	n/a	diff	diff	True
67.48	2.89	cognitive	outcomerating	2	high_cue	med_stim	24.61	Moderate	24.61	Moderate	0.25	1.22	task-social/outcomerating/task-cognitive_scale.png	n/a	n/a	n/a	n/a	n/a	n/a	n/a	n/a
74.19	0.99	cognitive	cue	3	high_cue	n/a	n/a	n/a	n/a	n/a	n/a	n/a	task-social/cue/runtype-cognitive/sch/h025.png	n/a	n/a	n/a	n/a	n/a	n/a	n/a	n/a
77.39	1.84	cognitive	expectrating	3	high_cue	n/a	40.28	Strong	40.28	Strong	0.48	1.36	task-social/cue/runtype-cognitive/sch/h025.png	n/a	n/a	n/a	n/a	n/a	n/a	n/a	n/a
85.09	5.0	cognitive	stimulus	3	high_cue	low_stim	n/a	n/a	n/a	n/a	n/a	n/a	task-social/stim/runtype-cognitive/35_50_R.jpg	n/a	n/a	n/a	n/a	n/a	diff	diff	True
96.59	2.9	cognitive	outcomerating	3	high_cue	low_stim	26.26	Moderate	26.26	Moderate	0.48	1.36	task-social/outcomerating/task-cognitive_scale.png	n/a	n/a	n/a	n/a	n/a	n/a	n/a	n/a
110.58	0.99	cognitive	cue	4	high_cue	n/a	n/a	n/a	n/a	n/a	n/a	n/a	task-social/cue/runtype-cognitive/sch/h024.png	n/a	n/a	n/a	n/a	n/a	n/a	n/a	n/a
113.28	2.64	cognitive	expectrating	4	high_cue	n/a	19.24	Moderate	19.24	Moderate	0.6	2.04	task-social/cue/runtype-cognitive/sch/h024.png	n/a	n/a	n/a	n/a	n/a	n/a	n/a	n/a
119.99	5.0	cognitive	stimulus	4	high_cue	high_stim	n/a	n/a	n/a	n/a	n/a	n/a	task-social/stim/runtype-cognitive/19_150_R.jpg	n/a	n/a	n/a	n/a	n/a	diff	diff	True
133.19	3.07	cognitive	outcomerating	4	high_cue	high_stim	17.78	Moderate	17.78	Moderate	0.6	2.04	task-social/outcomerating/task-cognitive_scale.png	n/a	n/a	n/a	n/a	n/a	n/a	n/a	n/a
139.89	0.98	cognitive	cue	5	low_cue	n/a	n/a	n/a	n/a	n/a	n/a	n/a	task-social/cue/runtype-cognitive/scl/l040.png	n/a	n/a	n/a	n/a	n/a	n/a	n/a	n/a
143.1	2.0	cognitive	expectrating	5	low_cue	n/a	2.77	Barely detectable	2.77	Barely detectable	0.17	1.83	task-social/cue/runtype-cognitive/scl/l040.png	n/a	n/a	n/a	n/a	n/a	n/a	n/a	n/a
156.8	5.0	cognitive	stimulus	5	low_cue	med_stim	n/a	n/a	n/a	n/a	n/a	n/a	task-social/stim/runtype-cognitive/44_100.jpg	n/a	n/a	n/a	n/a	n/a	same	same	True
165.7	3.19	cognitive	outcomerating	5	low_cue	med_stim	21.2	Moderate	21.2	Moderate	0.17	1.83	task-social/outcomerating/task-cognitive_scale.png	n/a	n/a	n/a	n/a	n/a	n/a	n/a	n/a
181.29	0.98	cognitive	cue	6	low_cue	n/a	n/a	n/a	n/a	n/a	n/a	n/a	task-social/cue/runtype-cognitive/scl/l050.png	n/a	n/a	n/a	n/a	n/a	n/a	n/a	n/a
183.69	1.9	cognitive	expectrating	6	low_cue	n/a	0.46	No sensation	0.46	No sensation	0.52	1.39	task-social/cue/runtype-cognitive/scl/l050.png	n/a	n/a	n/a	n/a	n/a	n/a	n/a	n/a
196.78	5.0	cognitive	stimulus	6	low_cue	high_stim	n/a	n/a	n/a	n/a	n/a	n/a	task-social/stim/runtype-cognitive/20_150_R.jpg	n/a	n/a	n/a	n/a	n/a	diff	diff	True
210.39	3.78	cognitive	outcomerating	6	low_cue	high_stim	21.72	Moderate	21.72	Moderate	0.52	1.39	task-social/outcomerating/task-cognitive_scale.png	n/a	n/a	n/a	n/a	n/a	n/a	n/a	n/a
216.09	0.99	cognitive	cue	7	low_cue	n/a	n/a	n/a	n/a	n/a	n/a	n/a	task-social/cue/runtype-cognitive/scl/l032.png	n/a	n/a	n/a	n/a	n/a	n/a	n/a	n/a
218.71	2.36	cognitive	expectrating	7	low_cue	n/a	4.13	Weak	4.13	Weak	0.43	1.92	task-social/cue/runtype-cognitive/scl/l032.png	n/a	n/a	n/a	n/a	n/a	n/a	n/a	n/a
235.8	5.0	cognitive	stimulus	7	low_cue	med_stim	n/a	n/a	n/a	n/a	n/a	n/a	task-social/stim/runtype-cognitive/14_100_R.jpg	n/a	n/a	n/a	n/a	n/a	diff	diff	True
244.48	3.17	cognitive	outcomerating	7	low_cue	med_stim	17.78	Moderate	17.78	Moderate	0.43	1.92	task-social/outcomerating/task-cognitive_scale.png	n/a	n/a	n/a	n/a	n/a	n/a	n/a	n/a
250.39	0.99	cognitive	cue	8	low_cue	n/a	n/a	n/a	n/a	n/a	n/a	n/a	task-social/cue/runtype-cognitive/scl/l026.png	n/a	n/a	n/a	n/a	n/a	n/a	n/a	n/a
253.09	2.23	cognitive	expectrating	8	low_cue	n/a	6.47	Weak	6.47	Weak	0.08	2.14	task-social/cue/runtype-cognitive/scl/l026.png	n/a	n/a	n/a	n/a	n/a	n/a	n/a	n/a
265.79	5.0	cognitive	stimulus	8	low_cue	high_stim	n/a	n/a	n/a	n/a	n/a	n/a	task-social/stim/runtype-cognitive/24_150.jpg	n/a	n/a	n/a	n/a	n/a	same	same	True
282.7	3.75	cognitive	outcomerating	8	low_cue	high_stim	17.49	Moderate	17.49	Moderate	0.08	2.14	task-social/outcomerating/task-cognitive_scale.png	n/a	n/a	n/a	n/a	n/a	n/a	n/a	n/a
287.68	0.99	cognitive	cue	9	high_cue	n/a	n/a	n/a	n/a	n/a	n/a	n/a	task-social/cue/runtype-cognitive/sch/h053.png	n/a	n/a	n/a	n/a	n/a	n/a	n/a	n/a
289.48	1.87	cognitive	expectrating	9	high_cue	n/a	31.2	Strong	31.2	Strong	0.08	1.78	task-social/cue/runtype-cognitive/sch/h053.png	n/a	n/a	n/a	n/a	n/a	n/a	n/a	n/a
297.09	5.0	cognitive	stimulus	9	high_cue	low_stim	n/a	n/a	n/a	n/a	n/a	n/a	task-social/stim/runtype-cognitive/26_50.jpg	n/a	n/a	n/a	n/a	n/a	same	same	True
308.19	2.14	cognitive	outcomerating	9	high_cue	low_stim	16.04	Moderate	16.04	Moderate	0.08	1.78	task-social/outcomerating/task-cognitive_scale.png	n/a	n/a	n/a	n/a	n/a	n/a	n/a	n/a
317.99	0.98	cognitive	cue	10	high_cue	n/a	n/a	n/a	n/a	n/a	n/a	n/a	task-social/cue/runtype-cognitive/sch/h048.png	n/a	n/a	n/a	n/a	n/a	n/a	n/a	n/a
320.6	1.55	cognitive	expectrating	10	high_cue	n/a	18.74	Moderate	18.74	Moderate	0.12	1.43	task-social/cue/runtype-cognitive/sch/h048.png	n/a	n/a	n/a	n/a	n/a	n/a	n/a	n/a
328.2	5.0	cognitive	stimulus	10	high_cue	high_stim	n/a	n/a	n/a	n/a	n/a	n/a	task-social/stim/runtype-cognitive/44_150_R.jpg	n/a	n/a	n/a	n/a	n/a	diff	diff	True
337.5	2.45	cognitive	outcomerating	10	high_cue	high_stim	14.15	Moderate	14.15	Moderate	0.12	1.43	task-social/outcomerating/task-cognitive_scale.png	n/a	n/a	n/a	n/a	n/a	n/a	n/a	n/a
343.89	0.99	cognitive	cue	11	high_cue	n/a	n/a	n/a	n/a	n/a	n/a	n/a	task-social/cue/runtype-cognitive/sch/h056.png	n/a	n/a	n/a	n/a	n/a	n/a	n/a	n/a
345.69	2.41	cognitive	expectrating	11	high_cue	n/a	32.03	Strong	32.03	Strong	0.07	2.34	task-social/cue/runtype-cognitive/sch/h056.png	n/a	n/a	n/a	n/a	n/a	n/a	n/a	n/a
357.79	5.0	cognitive	stimulus	11	high_cue	med_stim	n/a	n/a	n/a	n/a	n/a	n/a	task-social/stim/runtype-cognitive/35_100_R.jpg	n/a	n/a	n/a	n/a	n/a	diff	diff	True
366.7	2.63	cognitive	outcomerating	11	high_cue	med_stim	14.2	Moderate	14.2	Moderate	0.07	2.34	task-social/outcomerating/task-cognitive_scale.png	n/a	n/a	n/a	n/a	n/a	n/a	n/a	n/a
374.78	0.99	cognitive	cue	12	low_cue	n/a	n/a	n/a	n/a	n/a	n/a	n/a	task-social/cue/runtype-cognitive/scl/l021.png	n/a	n/a	n/a	n/a	n/a	n/a	n/a	n/a
376.7	1.67	cognitive	expectrating	12	low_cue	n/a	3.95	Weak	3.95	Weak	0.2	1.47	task-social/cue/runtype-cognitive/scl/l021.png	n/a	n/a	n/a	n/a	n/a	n/a	n/a	n/a
384.29	5.0	cognitive	stimulus	12	low_cue	low_stim	n/a	n/a	n/a	n/a	n/a	n/a	task-social/stim/runtype-cognitive/20_50_R.jpg	n/a	n/a	n/a	n/a	n/a	diff	diff	True
394.79	2.07	cognitive	outcomerating	12	low_cue	low_stim	11.22	Moderate	11.22	Moderate	0.2	1.47	task-social/outcomerating/task-cognitive_scale.png	n/a	n/a	n/a	n/a	n/a	n/a	n/a	n/a
