onset	duration	run_type	trial_type	trial_index	cue	stimulusintensity	rating_value	rating_glmslabel	rating_value_fillna	rating_glmslabel_fillna	rating_mouseonset	rating_mousedur	stim_file	pain_onset_ttl1	pain_onset_ttl2	pain_onset_ttl3	pain_onset_ttl4	pain_stimulus_delivery_success	cognitive_correct_response	cognitive_participant_response	cognitive_response_accuracy
3.38	0.99	vicarious	cue	1	low_cue	n/a	n/a	n/a	n/a	n/a	n/a	n/a	task-social/cue/runtype-vicarious/scl/l026.png	n/a	n/a	n/a	n/a	n/a	n/a	n/a	n/a
6.1	2.17	vicarious	expectrating	1	low_cue	n/a	7.13	Weak	7.13	Weak	0.1	2.07	task-social/cue/runtype-vicarious/scl/l026.png	n/a	n/a	n/a	n/a	n/a	n/a	n/a	n/a
18.48	5.0	vicarious	stimulus	1	low_cue	high_stim	n/a	n/a	n/a	n/a	n/a	n/a	task-social/stim/runtype-vicarious/kz120t2aaaff_H.mp4	n/a	n/a	n/a	n/a	n/a	n/a	n/a	n/a
32.59	2.22	vicarious	outcomerating	1	low_cue	high_stim	53.82	Strong	53.82	Strong	0.1	2.07	task-social/outcomerating/task-vicarious_scale.png	n/a	n/a	n/a	n/a	n/a	n/a	n/a	n/a
45.98	0.99	vicarious	cue	2	high_cue	n/a	n/a	n/a	n/a	n/a	n/a	n/a	task-social/cue/runtype-vicarious/sch/h018.png	n/a	n/a	n/a	n/a	n/a	n/a	n/a	n/a
49.08	1.65	vicarious	expectrating	2	high_cue	n/a	68.37	Very Strong	68.37	Very Strong	0.4	1.25	task-social/cue/runtype-vicarious/sch/h018.png	n/a	n/a	n/a	n/a	n/a	n/a	n/a	n/a
59.58	5.0	vicarious	stimulus	2	high_cue	med_stim	n/a	n/a	n/a	n/a	n/a	n/a	task-social/stim/runtype-vicarious/jh123t2aaaff_M.mp4	n/a	n/a	n/a	n/a	n/a	n/a	n/a	n/a
76.0	2.72	vicarious	outcomerating	2	high_cue	med_stim	15.05	Moderate	15.05	Moderate	0.4	1.25	task-social/outcomerating/task-vicarious_scale.png	n/a	n/a	n/a	n/a	n/a	n/a	n/a	n/a
80.68	1.0	vicarious	cue	3	low_cue	n/a	n/a	n/a	n/a	n/a	n/a	n/a	task-social/cue/runtype-vicarious/scl/l045.png	n/a	n/a	n/a	n/a	n/a	n/a	n/a	n/a
83.8	1.65	vicarious	expectrating	3	low_cue	n/a	6.24	Weak	6.24	Weak	0.33	1.32	task-social/cue/runtype-vicarious/scl/l045.png	n/a	n/a	n/a	n/a	n/a	n/a	n/a	n/a
90.28	5.0	vicarious	stimulus	3	low_cue	low_stim	n/a	n/a	n/a	n/a	n/a	n/a	task-social/stim/runtype-vicarious/aa048t2aaunaff_L.mp4	n/a	n/a	n/a	n/a	n/a	n/a	n/a	n/a
97.8	2.5	vicarious	outcomerating	3	low_cue	low_stim	2.1	Barely detectable	2.1	Barely detectable	0.33	1.32	task-social/outcomerating/task-vicarious_scale.png	n/a	n/a	n/a	n/a	n/a	n/a	n/a	n/a
110.29	0.98	vicarious	cue	4	low_cue	n/a	n/a	n/a	n/a	n/a	n/a	n/a	task-social/cue/runtype-vicarious/scl/l022.png	n/a	n/a	n/a	n/a	n/a	n/a	n/a	n/a
111.79	1.7	vicarious	expectrating	4	low_cue	n/a	38.99	Strong	38.99	Strong	0.48	1.22	task-social/cue/runtype-vicarious/scl/l022.png	n/a	n/a	n/a	n/a	n/a	n/a	n/a	n/a
118.58	5.0	vicarious	stimulus	4	low_cue	low_stim	n/a	n/a	n/a	n/a	n/a	n/a	task-social/stim/runtype-vicarious/kz120t2aaunaff_L.mp4	n/a	n/a	n/a	n/a	n/a	n/a	n/a	n/a
134.7	1.92	vicarious	outcomerating	4	low_cue	low_stim	2.3	Barely detectable	2.3	Barely detectable	0.48	1.22	task-social/outcomerating/task-vicarious_scale.png	n/a	n/a	n/a	n/a	n/a	n/a	n/a	n/a
143.79	0.99	vicarious	cue	5	high_cue	n/a	n/a	n/a	n/a	n/a	n/a	n/a	task-social/cue/runtype-vicarious/sch/h035.png	n/a	n/a	n/a	n/a	n/a	n/a	n/a	n/a
146.89	1.78	vicarious	expectrating	5	high_cue	n/a	68.07	Very Strong	68.07	Very Strong	0.05	1.73	task-social/cue/runtype-vicarious/sch/h035.png	n/a	n/a	n/a	n/a	n/a	n/a	n/a	n/a
156.58	5.0	vicarious	stimulus	5	high_cue	low_stim	n/a	n/a	n/a	n/a	n/a	n/a	task-social/stim/runtype-vicarious/jh123t1aaunaff_L.mp4	n/a	n/a	n/a	n/a	n/a	n/a	n/a	n/a
166.6	1.86	vicarious	outcomerating	5	high_cue	low_stim	1.9	Barely detectable	1.9	Barely detectable	0.05	1.73	task-social/outcomerating/task-vicarious_scale.png	n/a	n/a	n/a	n/a	n/a	n/a	n/a	n/a
171.28	0.99	vicarious	cue	6	high_cue	n/a	n/a	n/a	n/a	n/a	n/a	n/a	task-social/cue/runtype-vicarious/sch/h042.png	n/a	n/a	n/a	n/a	n/a	n/a	n/a	n/a
173.28	1.82	vicarious	expectrating	6	high_cue	n/a	72.09	Very Strong	72.09	Very Strong	0.07	1.75	task-social/cue/runtype-vicarious/sch/h042.png	n/a	n/a	n/a	n/a	n/a	n/a	n/a	n/a
179.78	5.0	vicarious	stimulus	6	high_cue	med_stim	n/a	n/a	n/a	n/a	n/a	n/a	task-social/stim/runtype-vicarious/kz120t2aeaff_M.mp4	n/a	n/a	n/a	n/a	n/a	n/a	n/a	n/a
189.59	2.52	vicarious	outcomerating	6	high_cue	med_stim	1.39	Barely detectable	1.39	Barely detectable	0.07	1.75	task-social/outcomerating/task-vicarious_scale.png	n/a	n/a	n/a	n/a	n/a	n/a	n/a	n/a
201.08	1.0	vicarious	cue	7	high_cue	n/a	n/a	n/a	n/a	n/a	n/a	n/a	task-social/cue/runtype-vicarious/sch/h004.png	n/a	n/a	n/a	n/a	n/a	n/a	n/a	n/a
203.1	2.0	vicarious	expectrating	7	high_cue	n/a	89.31	Very Strong	89.31	Very Strong	0.4	1.6	task-social/cue/runtype-vicarious/sch/h004.png	n/a	n/a	n/a	n/a	n/a	n/a	n/a	n/a
216.08	5.0	vicarious	stimulus	7	high_cue	low_stim	n/a	n/a	n/a	n/a	n/a	n/a	task-social/stim/runtype-vicarious/tv095t2aeunaff_L.mp4	n/a	n/a	n/a	n/a	n/a	n/a	n/a	n/a
226.69	2.23	vicarious	outcomerating	7	high_cue	low_stim	26.57	Moderate	26.57	Moderate	0.4	1.6	task-social/outcomerating/task-vicarious_scale.png	n/a	n/a	n/a	n/a	n/a	n/a	n/a	n/a
234.79	0.98	vicarious	cue	8	low_cue	n/a	n/a	n/a	n/a	n/a	n/a	n/a	task-social/cue/runtype-vicarious/scl/l051.png	n/a	n/a	n/a	n/a	n/a	n/a	n/a	n/a
237.29	1.35	vicarious	expectrating	8	low_cue	n/a	7.64	Weak	7.64	Weak	0.1	1.25	task-social/cue/runtype-vicarious/scl/l051.png	n/a	n/a	n/a	n/a	n/a	n/a	n/a	n/a
251.28	5.0	vicarious	stimulus	8	low_cue	high_stim	n/a	n/a	n/a	n/a	n/a	n/a	task-social/stim/runtype-vicarious/mg066t1aaaff_H.mp4	n/a	n/a	n/a	n/a	n/a	n/a	n/a	n/a
260.4	2.85	vicarious	outcomerating	8	low_cue	high_stim	32.29	Strong	32.29	Strong	0.1	1.25	task-social/outcomerating/task-vicarious_scale.png	n/a	n/a	n/a	n/a	n/a	n/a	n/a	n/a
265.09	0.99	vicarious	cue	9	low_cue	n/a	n/a	n/a	n/a	n/a	n/a	n/a	task-social/cue/runtype-vicarious/scl/l048.png	n/a	n/a	n/a	n/a	n/a	n/a	n/a	n/a
268.19	1.55	vicarious	expectrating	9	low_cue	n/a	3.69	Weak	3.69	Weak	0.17	1.38	task-social/cue/runtype-vicarious/scl/l048.png	n/a	n/a	n/a	n/a	n/a	n/a	n/a	n/a
279.88	5.0	vicarious	stimulus	9	low_cue	med_stim	n/a	n/a	n/a	n/a	n/a	n/a	task-social/stim/runtype-vicarious/dr052t2aaaff_M.mp4	n/a	n/a	n/a	n/a	n/a	n/a	n/a	n/a
290.0	2.08	vicarious	outcomerating	9	low_cue	med_stim	20.26	Moderate	20.26	Moderate	0.17	1.38	task-social/outcomerating/task-vicarious_scale.png	n/a	n/a	n/a	n/a	n/a	n/a	n/a	n/a
295.48	0.99	vicarious	cue	10	low_cue	n/a	n/a	n/a	n/a	n/a	n/a	n/a	task-social/cue/runtype-vicarious/scl/l050.png	n/a	n/a	n/a	n/a	n/a	n/a	n/a	n/a
297.39	2.54	vicarious	expectrating	10	low_cue	n/a	3.45	Weak	3.45	Weak	0.78	1.76	task-social/cue/runtype-vicarious/scl/l050.png	n/a	n/a	n/a	n/a	n/a	n/a	n/a	n/a
311.08	5.0	vicarious	stimulus	10	low_cue	med_stim	n/a	n/a	n/a	n/a	n/a	n/a	task-social/stim/runtype-vicarious/th108t2aaunaff_M.mp4	n/a	n/a	n/a	n/a	n/a	n/a	n/a	n/a
321.7	1.73	vicarious	outcomerating	10	low_cue	med_stim	1.4	Barely detectable	1.4	Barely detectable	0.78	1.76	task-social/outcomerating/task-vicarious_scale.png	n/a	n/a	n/a	n/a	n/a	n/a	n/a	n/a
337.89	0.99	vicarious	cue	11	high_cue	n/a	n/a	n/a	n/a	n/a	n/a	n/a	task-social/cue/runtype-vicarious/sch/h016.png	n/a	n/a	n/a	n/a	n/a	n/a	n/a	n/a
340.59	1.47	vicarious	expectrating	11	high_cue	n/a	64.87	Very Strong	64.87	Very Strong	0.35	1.12	task-social/cue/runtype-vicarious/sch/h016.png	n/a	n/a	n/a	n/a	n/a	n/a	n/a	n/a
347.98	5.0	vicarious	stimulus	11	high_cue	high_stim	n/a	n/a	n/a	n/a	n/a	n/a	task-social/stim/runtype-vicarious/tv095t1afaff_H.mp4	n/a	n/a	n/a	n/a	n/a	n/a	n/a	n/a
355.49	2.35	vicarious	outcomerating	11	high_cue	high_stim	68.06	Very Strong	68.06	Very Strong	0.35	1.12	task-social/outcomerating/task-vicarious_scale.png	n/a	n/a	n/a	n/a	n/a	n/a	n/a	n/a
362.6	0.98	vicarious	cue	12	high_cue	n/a	n/a	n/a	n/a	n/a	n/a	n/a	task-social/cue/runtype-vicarious/sch/h039.png	n/a	n/a	n/a	n/a	n/a	n/a	n/a	n/a
364.8	1.18	vicarious	expectrating	12	high_cue	n/a	64.7	Very Strong	64.7	Very Strong	0.32	0.87	task-social/cue/runtype-vicarious/sch/h039.png	n/a	n/a	n/a	n/a	n/a	n/a	n/a	n/a
378.48	5.0	vicarious	stimulus	12	high_cue	high_stim	n/a	n/a	n/a	n/a	n/a	n/a	task-social/stim/runtype-vicarious/aa048t2aeaff_H.mp4	n/a	n/a	n/a	n/a	n/a	n/a	n/a	n/a
394.59	3.52	vicarious	outcomerating	12	high_cue	high_stim	40.45	Strong	40.45	Strong	0.32	0.87	task-social/outcomerating/task-vicarious_scale.png	n/a	n/a	n/a	n/a	n/a	n/a	n/a	n/a
