onset	duration	run_type	trial_type	trial_index	cue	stimulusintensity	rating_value	rating_glmslabel	rating_value_fillna	rating_glmslabel_fillna	rating_mouseonset	rating_mousedur	stim_file_TODO	pain_onset_ttl1	pain_onset_ttl2	pain_onset_ttl3	pain_onset_ttl4	pain_stimulus_delivery_success	cognitive_correct_response	cognitive_participant_response	cognitive_response_accuracy
5.41	0.98	pain	cue	1	high_cue	n/a	n/a	n/a	n/a	n/a	n/a	n/a	task-social/cue/runtype-pain/sch/h006.png	n/a	n/a	n/a	n/a	n/a	n/a	n/a	n/a
8.22	n/a	pain	expectrating	1	high_cue	n/a	n/a	n/a	54.14	Strong	0.68	3.55	task-social/cue/runtype-pain/sch/h006.png	n/a	n/a	n/a	n/a	n/a	n/a	n/a	n/a
17.08	11.900000000000002	pain	stimulus	1	high_cue	low_stim	n/a	n/a	n/a	n/a	n/a	n/a	n/a	17.08	20.58	25.58	28.98	success	n/a	n/a	n/a
30.3	1.93	pain	outcomerating	1	high_cue	low_stim	64.57	Very Strong	64.57	Very Strong	0.68	3.55	task-social/outcomerating/task-pain_scale.png	n/a	n/a	n/a	n/a	success	n/a	n/a	n/a
35.1	1.0	pain	cue	2	high_cue	n/a	n/a	n/a	n/a	n/a	n/a	n/a	task-social/cue/runtype-pain/sch/h004.png	n/a	n/a	n/a	n/a	n/a	n/a	n/a	n/a
37.5	3.07	pain	expectrating	2	high_cue	n/a	60.45	Strong	60.45	Strong	0.65	2.42	task-social/cue/runtype-pain/sch/h004.png	n/a	n/a	n/a	n/a	n/a	n/a	n/a	n/a
46.34	12.819999999999993	pain	stimulus	2	high_cue	high_stim	n/a	n/a	n/a	n/a	n/a	n/a	n/a	46.34	50.35	55.35	59.16	success	n/a	n/a	n/a
58.81	3.24	pain	outcomerating	2	high_cue	high_stim	70.83	Very Strong	70.83	Very Strong	0.65	2.42	task-social/outcomerating/task-pain_scale.png	n/a	n/a	n/a	n/a	success	n/a	n/a	n/a
68.7	1.0	pain	cue	3	high_cue	n/a	n/a	n/a	n/a	n/a	n/a	n/a	task-social/cue/runtype-pain/sch/h012.png	n/a	n/a	n/a	n/a	n/a	n/a	n/a	n/a
71.1	n/a	pain	expectrating	3	high_cue	n/a	n/a	n/a	73.02	Very Strong	0.4	3.95	task-social/cue/runtype-pain/sch/h012.png	n/a	n/a	n/a	n/a	n/a	n/a	n/a	n/a
79.42	12.36	pain	stimulus	3	high_cue	med_stim	n/a	n/a	n/a	n/a	n/a	n/a	n/a	79.42	83.18	88.18	91.79	success	n/a	n/a	n/a
91.91	2.87	pain	outcomerating	3	high_cue	med_stim	64.48	Very Strong	64.48	Very Strong	0.4	3.95	task-social/outcomerating/task-pain_scale.png	n/a	n/a	n/a	n/a	success	n/a	n/a	n/a
96.61	0.98	pain	cue	4	low_cue	n/a	n/a	n/a	n/a	n/a	n/a	n/a	task-social/cue/runtype-pain/scl/l013.png	n/a	n/a	n/a	n/a	n/a	n/a	n/a	n/a
98.11	n/a	pain	expectrating	4	low_cue	n/a	n/a	n/a	63.64	Strong	0.75	3.83	task-social/cue/runtype-pain/scl/l013.png	n/a	n/a	n/a	n/a	n/a	n/a	n/a	n/a
103.76	11.909999999999997	pain	stimulus	4	low_cue	low_stim	n/a	n/a	n/a	n/a	n/a	n/a	n/a	103.76	107.26	112.26	115.66	success	n/a	n/a	n/a
117.7	3.96	pain	outcomerating	4	low_cue	low_stim	68.16	Very Strong	68.16	Very Strong	0.75	3.83	task-social/outcomerating/task-pain_scale.png	n/a	n/a	n/a	n/a	success	n/a	n/a	n/a
124.0	1.0	pain	cue	5	high_cue	n/a	n/a	n/a	n/a	n/a	n/a	n/a	task-social/cue/runtype-pain/sch/h024.png	n/a	n/a	n/a	n/a	n/a	n/a	n/a	n/a
126.8	3.72	pain	expectrating	5	high_cue	n/a	65.9	Very Strong	65.9	Very Strong	1.12	2.61	task-social/cue/runtype-pain/sch/h024.png	n/a	n/a	n/a	n/a	n/a	n/a	n/a	n/a
132.42	12.820000000000022	pain	stimulus	5	high_cue	high_stim	n/a	n/a	n/a	n/a	n/a	n/a	n/a	132.42	136.43	141.43	145.24	success	n/a	n/a	n/a
151.71	2.9	pain	outcomerating	5	high_cue	high_stim	72.51	Very Strong	72.51	Very Strong	1.12	2.61	task-social/outcomerating/task-pain_scale.png	n/a	n/a	n/a	n/a	success	n/a	n/a	n/a
167.3	1.0	pain	cue	6	high_cue	n/a	n/a	n/a	n/a	n/a	n/a	n/a	task-social/cue/runtype-pain/sch/h020.png	n/a	n/a	n/a	n/a	n/a	n/a	n/a	n/a
170.1	3.56	pain	expectrating	6	high_cue	n/a	65.5	Very Strong	65.5	Very Strong	0.55	3.01	task-social/cue/runtype-pain/sch/h020.png	n/a	n/a	n/a	n/a	n/a	n/a	n/a	n/a
178.52	11.909999999999997	pain	stimulus	6	high_cue	low_stim	n/a	n/a	n/a	n/a	n/a	n/a	n/a	178.52	182.02	187.02	190.42	success	n/a	n/a	n/a
192.91	2.62	pain	outcomerating	6	high_cue	low_stim	69.31	Very Strong	69.31	Very Strong	0.55	3.01	task-social/outcomerating/task-pain_scale.png	n/a	n/a	n/a	n/a	success	n/a	n/a	n/a
203.3	1.0	pain	cue	7	low_cue	n/a	n/a	n/a	n/a	n/a	n/a	n/a	task-social/cue/runtype-pain/scl/l036.png	n/a	n/a	n/a	n/a	n/a	n/a	n/a	n/a
205.2	2.97	pain	expectrating	7	low_cue	n/a	66.83	Very Strong	66.83	Very Strong	0.25	2.72	task-social/cue/runtype-pain/scl/l036.png	n/a	n/a	n/a	n/a	n/a	n/a	n/a	n/a
218.63	12.370000000000005	pain	stimulus	7	low_cue	med_stim	n/a	n/a	n/a	n/a	n/a	n/a	n/a	218.63	222.39	227.39	231.0	success	n/a	n/a	n/a
228.71	n/a	pain	outcomerating	7	low_cue	med_stim	n/a	n/a	65.9	Very Strong	0.25	2.72	task-social/outcomerating/task-pain_scale.png	n/a	n/a	n/a	n/a	success	n/a	n/a	n/a
238.69	1.0	pain	cue	8	low_cue	n/a	n/a	n/a	n/a	n/a	n/a	n/a	task-social/cue/runtype-pain/scl/l016.png	n/a	n/a	n/a	n/a	n/a	n/a	n/a	n/a
241.9	3.05	pain	expectrating	8	low_cue	n/a	65.5	Very Strong	65.5	Very Strong	0.48	2.57	task-social/cue/runtype-pain/scl/l016.png	n/a	n/a	n/a	n/a	n/a	n/a	n/a	n/a
254.95	12.819999999999993	pain	stimulus	8	low_cue	high_stim	n/a	n/a	n/a	n/a	n/a	n/a	n/a	254.95	258.96	263.96	267.77	success	n/a	n/a	n/a
267.8	2.02	pain	outcomerating	8	low_cue	high_stim	71.78	Very Strong	71.78	Very Strong	0.48	2.57	task-social/outcomerating/task-pain_scale.png	n/a	n/a	n/a	n/a	success	n/a	n/a	n/a
276.89	1.0	pain	cue	9	low_cue	n/a	n/a	n/a	n/a	n/a	n/a	n/a	task-social/cue/runtype-pain/scl/l002.png	n/a	n/a	n/a	n/a	n/a	n/a	n/a	n/a
280.11	3.85	pain	expectrating	9	low_cue	n/a	66.62	Very Strong	66.62	Very Strong	0.37	3.49	task-social/cue/runtype-pain/scl/l002.png	n/a	n/a	n/a	n/a	n/a	n/a	n/a	n/a
288.52	12.360000000000014	pain	stimulus	9	low_cue	med_stim	n/a	n/a	n/a	n/a	n/a	n/a	n/a	288.52	292.28	297.28	300.89	success	n/a	n/a	n/a
305.7	2.67	pain	outcomerating	9	low_cue	med_stim	68.88	Very Strong	68.88	Very Strong	0.37	3.49	task-social/outcomerating/task-pain_scale.png	n/a	n/a	n/a	n/a	success	n/a	n/a	n/a
312.3	1.0	pain	cue	10	low_cue	n/a	n/a	n/a	n/a	n/a	n/a	n/a	task-social/cue/runtype-pain/scl/l028.png	n/a	n/a	n/a	n/a	n/a	n/a	n/a	n/a
315.11	2.97	pain	expectrating	10	low_cue	n/a	68.16	Very Strong	68.16	Very Strong	0.55	2.42	task-social/cue/runtype-pain/scl/l028.png	n/a	n/a	n/a	n/a	n/a	n/a	n/a	n/a
323.46	11.910000000000025	pain	stimulus	10	low_cue	low_stim	n/a	n/a	n/a	n/a	n/a	n/a	n/a	323.46	326.96	331.96	335.36	success	n/a	n/a	n/a
335.6	2.28	pain	outcomerating	10	low_cue	low_stim	67.34	Very Strong	67.34	Very Strong	0.55	2.42	task-social/outcomerating/task-pain_scale.png	n/a	n/a	n/a	n/a	success	n/a	n/a	n/a
347.4	1.0	pain	cue	11	high_cue	n/a	n/a	n/a	n/a	n/a	n/a	n/a	task-social/cue/runtype-pain/sch/h041.png	n/a	n/a	n/a	n/a	n/a	n/a	n/a	n/a
349.1	n/a	pain	expectrating	11	high_cue	n/a	n/a	n/a	67.64	Very Strong	0.23	3.48	task-social/cue/runtype-pain/sch/h041.png	n/a	n/a	n/a	n/a	n/a	n/a	n/a	n/a
354.72	12.369999999999948	pain	stimulus	11	high_cue	med_stim	n/a	n/a	n/a	n/a	n/a	n/a	n/a	354.72	358.48	363.48	367.09	success	n/a	n/a	n/a
366.91	2.7	pain	outcomerating	11	high_cue	med_stim	67.64	Very Strong	67.64	Very Strong	0.23	3.48	task-social/outcomerating/task-pain_scale.png	n/a	n/a	n/a	n/a	success	n/a	n/a	n/a
373.19	1.0	pain	cue	12	low_cue	n/a	n/a	n/a	n/a	n/a	n/a	n/a	task-social/cue/runtype-pain/scl/l038.png	n/a	n/a	n/a	n/a	n/a	n/a	n/a	n/a
375.7	3.6	pain	expectrating	12	low_cue	n/a	66.11	Very Strong	66.11	Very Strong	0.52	3.09	task-social/cue/runtype-pain/scl/l038.png	n/a	n/a	n/a	n/a	n/a	n/a	n/a	n/a
383.63	12.819999999999993	pain	stimulus	12	low_cue	high_stim	n/a	n/a	n/a	n/a	n/a	n/a	n/a	383.63	387.64	392.64	396.45	success	n/a	n/a	n/a
394.8	3.39	pain	outcomerating	12	low_cue	high_stim	68.16	Very Strong	68.16	Very Strong	0.52	3.09	task-social/outcomerating/task-pain_scale.png	n/a	n/a	n/a	n/a	success	n/a	n/a	n/a
