onset	duration	run_type	trial_type	trial_index	cue	stimulusintensity	rating_value	rating_glmslabel	rating_value_fillna	rating_glmslabel_fillna	rating_mouseonset	rating_mousedur	stim_file	pain_onset_ttl1	pain_onset_ttl2	pain_onset_ttl3	pain_onset_ttl4	pain_stimulus_delivery_success	cognitive_correct_response	cognitive_participant_response	cognitive_response_accuracy
8.09	0.98	cognitive	cue	1	high_cue	n/a	n/a	n/a	n/a	n/a	n/a	n/a	n/a	n/a	n/a	n/a	n/a	n/a	n/a	n/a	n/a
10.01	3.84	cognitive	expectrating	1	high_cue	n/a	51.52	Strong	51.52	Strong	0.43	3.4	task-social/cue/runtype-cognitive/sch/h002.png	n/a	n/a	n/a	n/a	n/a	n/a	n/a	n/a
23.3	5.0	cognitive	stimulus	1	high_cue	low_stim	n/a	n/a	n/a	n/a	n/a	n/a	task-social/stim/runtype-cognitive/14_50.jpg	n/a	n/a	n/a	n/a	n/a	same	same	True
39.59	3.54	cognitive	outcomerating	1	high_cue	low_stim	42.24	Strong	42.24	Strong	1.33	2.21	task-social/outcomerating/task-cognitive_scale.png	n/a	n/a	n/a	n/a	n/a	n/a	n/a	n/a
52.39	0.98	cognitive	cue	2	low_cue	n/a	n/a	n/a	n/a	n/a	n/a	n/a	n/a	n/a	n/a	n/a	n/a	n/a	n/a	n/a	n/a
54.99	2.59	cognitive	expectrating	2	low_cue	n/a	38.34	Strong	38.34	Strong	0.07	2.52	task-social/cue/runtype-cognitive/scl/l010.png	n/a	n/a	n/a	n/a	n/a	n/a	n/a	n/a
68.98	5.0	cognitive	stimulus	2	low_cue	med_stim	n/a	n/a	n/a	n/a	n/a	n/a	task-social/stim/runtype-cognitive/22_100_R.jpg	n/a	n/a	n/a	n/a	n/a	diff	diff	True
83.89	2.81	cognitive	outcomerating	2	low_cue	med_stim	37.51	Strong	37.51	Strong	0.62	2.19	task-social/outcomerating/task-cognitive_scale.png	n/a	n/a	n/a	n/a	n/a	n/a	n/a	n/a
93.19	0.98	cognitive	cue	3	high_cue	n/a	n/a	n/a	n/a	n/a	n/a	n/a	n/a	n/a	n/a	n/a	n/a	n/a	n/a	n/a	n/a
96.09	2.52	cognitive	expectrating	3	high_cue	n/a	39.13	Strong	39.13	Strong	0.05	2.47	task-social/cue/runtype-cognitive/sch/h031.png	n/a	n/a	n/a	n/a	n/a	n/a	n/a	n/a
105.6	5.0	cognitive	stimulus	3	high_cue	high_stim	n/a	n/a	n/a	n/a	n/a	n/a	task-social/stim/runtype-cognitive/7_150_R.jpg	n/a	n/a	n/a	n/a	n/a	diff	diff	True
116.38	2.42	cognitive	outcomerating	3	high_cue	high_stim	29.69	Strong	29.69	Strong	0.72	1.7	task-social/outcomerating/task-cognitive_scale.png	n/a	n/a	n/a	n/a	n/a	n/a	n/a	n/a
123.39	0.99	cognitive	cue	4	low_cue	n/a	n/a	n/a	n/a	n/a	n/a	n/a	n/a	n/a	n/a	n/a	n/a	n/a	n/a	n/a	n/a
126.69	n/a	cognitive	expectrating	4	low_cue	n/a	n/a	n/a	28.63	Moderate	0.03	2.45	task-social/cue/runtype-cognitive/scl/l016.png	n/a	n/a	n/a	n/a	n/a	n/a	n/a	n/a
134.69	5.0	cognitive	stimulus	4	low_cue	high_stim	n/a	n/a	n/a	n/a	n/a	n/a	task-social/stim/runtype-cognitive/44_150.jpg	n/a	n/a	n/a	n/a	n/a	same	same	True
142.99	2.99	cognitive	outcomerating	4	low_cue	high_stim	25.53	Moderate	25.53	Moderate	1.73	1.25	task-social/outcomerating/task-cognitive_scale.png	n/a	n/a	n/a	n/a	n/a	n/a	n/a	n/a
151.28	1.0	cognitive	cue	5	high_cue	n/a	n/a	n/a	n/a	n/a	n/a	n/a	n/a	n/a	n/a	n/a	n/a	n/a	n/a	n/a	n/a
153.1	1.22	cognitive	expectrating	5	high_cue	n/a	38.48	Strong	38.48	Strong	0.05	1.17	task-social/cue/runtype-cognitive/sch/h011.png	n/a	n/a	n/a	n/a	n/a	n/a	n/a	n/a
167.09	5.0	cognitive	stimulus	5	high_cue	low_stim	n/a	n/a	n/a	n/a	n/a	n/a	task-social/stim/runtype-cognitive/24_50_R.jpg	n/a	n/a	n/a	n/a	n/a	diff	diff	True
177.69	3.02	cognitive	outcomerating	5	high_cue	low_stim	21.8	Moderate	21.8	Moderate	0.05	2.97	task-social/outcomerating/task-cognitive_scale.png	n/a	n/a	n/a	n/a	n/a	n/a	n/a	n/a
188.39	0.98	cognitive	cue	6	high_cue	n/a	n/a	n/a	n/a	n/a	n/a	n/a	n/a	n/a	n/a	n/a	n/a	n/a	n/a	n/a	n/a
190.49	1.89	cognitive	expectrating	6	high_cue	n/a	36.04	Strong	36.04	Strong	0.05	1.84	task-social/cue/runtype-cognitive/sch/h033.png	n/a	n/a	n/a	n/a	n/a	n/a	n/a	n/a
198.5	5.0	cognitive	stimulus	6	high_cue	med_stim	n/a	n/a	n/a	n/a	n/a	n/a	task-social/stim/runtype-cognitive/26_100.jpg	n/a	n/a	n/a	n/a	n/a	same	same	True
207.48	3.25	cognitive	outcomerating	6	high_cue	med_stim	45.49	Strong	45.49	Strong	0.5	2.75	task-social/outcomerating/task-cognitive_scale.png	n/a	n/a	n/a	n/a	n/a	n/a	n/a	n/a
218.19	0.99	cognitive	cue	7	low_cue	n/a	n/a	n/a	n/a	n/a	n/a	n/a	n/a	n/a	n/a	n/a	n/a	n/a	n/a	n/a	n/a
220.31	2.42	cognitive	expectrating	7	low_cue	n/a	42.89	Strong	42.89	Strong	0.07	2.35	task-social/cue/runtype-cognitive/scl/l001.png	n/a	n/a	n/a	n/a	n/a	n/a	n/a	n/a
230.19	5.0	cognitive	stimulus	7	low_cue	high_stim	n/a	n/a	n/a	n/a	n/a	n/a	task-social/stim/runtype-cognitive/27_150_R.jpg	n/a	n/a	n/a	n/a	n/a	diff	n/a	False
239.2	3.05	cognitive	outcomerating	7	low_cue	high_stim	45.49	Strong	45.49	Strong	0.1	2.95	task-social/outcomerating/task-cognitive_scale.png	n/a	n/a	n/a	n/a	n/a	n/a	n/a	n/a
246.18	0.99	cognitive	cue	8	high_cue	n/a	n/a	n/a	n/a	n/a	n/a	n/a	n/a	n/a	n/a	n/a	n/a	n/a	n/a	n/a	n/a
248.68	2.12	cognitive	expectrating	8	high_cue	n/a	40.6	Strong	40.6	Strong	0.05	2.07	task-social/cue/runtype-cognitive/sch/h020.png	n/a	n/a	n/a	n/a	n/a	n/a	n/a	n/a
257.69	5.0	cognitive	stimulus	8	high_cue	med_stim	n/a	n/a	n/a	n/a	n/a	n/a	task-social/stim/runtype-cognitive/28_100.jpg	n/a	n/a	n/a	n/a	n/a	same	same	True
268.29	2.95	cognitive	outcomerating	8	high_cue	med_stim	39.78	Strong	39.78	Strong	0.05	2.9	task-social/outcomerating/task-cognitive_scale.png	n/a	n/a	n/a	n/a	n/a	n/a	n/a	n/a
277.59	0.98	cognitive	cue	9	low_cue	n/a	n/a	n/a	n/a	n/a	n/a	n/a	n/a	n/a	n/a	n/a	n/a	n/a	n/a	n/a	n/a
280.7	3.4	cognitive	expectrating	9	low_cue	n/a	44.67	Strong	44.67	Strong	0.05	3.35	task-social/cue/runtype-cognitive/scl/l056.png	n/a	n/a	n/a	n/a	n/a	n/a	n/a	n/a
292.48	5.0	cognitive	stimulus	9	low_cue	low_stim	n/a	n/a	n/a	n/a	n/a	n/a	task-social/stim/runtype-cognitive/35_50.jpg	n/a	n/a	n/a	n/a	n/a	same	same	True
305.19	n/a	cognitive	outcomerating	9	low_cue	low_stim	n/a	n/a	37.01	Strong	0.2	3.5	task-social/outcomerating/task-cognitive_scale.png	n/a	n/a	n/a	n/a	n/a	n/a	n/a	n/a
309.69	0.99	cognitive	cue	10	low_cue	n/a	n/a	n/a	n/a	n/a	n/a	n/a	n/a	n/a	n/a	n/a	n/a	n/a	n/a	n/a	n/a
311.99	2.6	cognitive	expectrating	10	low_cue	n/a	41.73	Strong	41.73	Strong	0.93	1.67	task-social/cue/runtype-cognitive/scl/l033.png	n/a	n/a	n/a	n/a	n/a	n/a	n/a	n/a
319.99	5.0	cognitive	stimulus	10	low_cue	low_stim	n/a	n/a	n/a	n/a	n/a	n/a	task-social/stim/runtype-cognitive/14_50_R.jpg	n/a	n/a	n/a	n/a	n/a	diff	diff	True
330.8	2.22	cognitive	outcomerating	10	low_cue	low_stim	28.24	Moderate	28.24	Moderate	0.97	1.25	task-social/outcomerating/task-cognitive_scale.png	n/a	n/a	n/a	n/a	n/a	n/a	n/a	n/a
339.18	0.99	cognitive	cue	11	high_cue	n/a	n/a	n/a	n/a	n/a	n/a	n/a	n/a	n/a	n/a	n/a	n/a	n/a	n/a	n/a	n/a
342.28	2.29	cognitive	expectrating	11	high_cue	n/a	34.9	Strong	34.9	Strong	0.03	2.25	task-social/cue/runtype-cognitive/sch/h047.png	n/a	n/a	n/a	n/a	n/a	n/a	n/a	n/a
354.59	5.0	cognitive	stimulus	11	high_cue	high_stim	n/a	n/a	n/a	n/a	n/a	n/a	task-social/stim/runtype-cognitive/1_150_R.jpg	n/a	n/a	n/a	n/a	n/a	diff	diff	True
366.89	1.9	cognitive	outcomerating	11	high_cue	high_stim	28.52	Moderate	28.52	Moderate	0.52	1.38	task-social/outcomerating/task-cognitive_scale.png	n/a	n/a	n/a	n/a	n/a	n/a	n/a	n/a
371.68	1.0	cognitive	cue	12	low_cue	n/a	n/a	n/a	n/a	n/a	n/a	n/a	n/a	n/a	n/a	n/a	n/a	n/a	n/a	n/a	n/a
374.0	3.35	cognitive	expectrating	12	low_cue	n/a	37.51	Strong	37.51	Strong	0.05	3.3	task-social/cue/runtype-cognitive/scl/l045.png	n/a	n/a	n/a	n/a	n/a	n/a	n/a	n/a
381.98	5.0	cognitive	stimulus	12	low_cue	med_stim	n/a	n/a	n/a	n/a	n/a	n/a	task-social/stim/runtype-cognitive/24_100.jpg	n/a	n/a	n/a	n/a	n/a	same	same	True
394.79	n/a	cognitive	outcomerating	12	low_cue	med_stim	n/a	n/a	38.66	Strong	0.62	2.03	task-social/outcomerating/task-cognitive_scale.png	n/a	n/a	n/a	n/a	n/a	n/a	n/a	n/a
