onset	duration	run_type	trial_type	trial_index	cue	stimulusintensity	rating_value	rating_glmslabel	rating_value_fillna	rating_glmslabel_fillna	rating_mouseonset	rating_mousedur	stim_file	pain_onset_ttl1	pain_onset_ttl2	pain_onset_ttl3	pain_onset_ttl4	pain_stimulus_delivery_success	cognitive_correct_response	cognitive_participant_response	cognitive_response_accuracy
5.71	0.99	cognitive	cue	1	low_cue	n/a	n/a	n/a	n/a	n/a	n/a	n/a	task-social/cue/runtype-cognitive/scl/l015.png	n/a	n/a	n/a	n/a	n/a	n/a	n/a	n/a
7.75	1.79	cognitive	expectrating	1	low_cue	n/a	37.79	Strong	37.79	Strong	0.12	1.67	task-social/cue/runtype-cognitive/scl/l015.png	n/a	n/a	n/a	n/a	n/a	n/a	n/a	n/a
15.72	5.0	cognitive	stimulus	1	low_cue	med_stim	n/a	n/a	n/a	n/a	n/a	n/a	task-social/stim/runtype-cognitive/35_100_R.jpg	n/a	n/a	n/a	n/a	n/a	diff	diff	True
27.92	n/a	cognitive	outcomerating	1	low_cue	med_stim	n/a	n/a	17.85	Moderate	0.12	1.67	task-social/outcomerating/task-cognitive_scale.png	n/a	n/a	n/a	n/a	n/a	n/a	n/a	n/a
33.41	0.99	cognitive	cue	2	low_cue	n/a	n/a	n/a	n/a	n/a	n/a	n/a	task-social/cue/runtype-cognitive/scl/l017.png	n/a	n/a	n/a	n/a	n/a	n/a	n/a	n/a
35.72	2.37	cognitive	expectrating	2	low_cue	n/a	6.72	Weak	6.72	Weak	0.38	1.98	task-social/cue/runtype-cognitive/scl/l017.png	n/a	n/a	n/a	n/a	n/a	n/a	n/a	n/a
46.51	5.0	cognitive	stimulus	2	low_cue	low_stim	n/a	n/a	n/a	n/a	n/a	n/a	task-social/stim/runtype-cognitive/27_50.jpg	n/a	n/a	n/a	n/a	n/a	same	same	True
55.42	2.88	cognitive	outcomerating	2	low_cue	low_stim	19.45	Moderate	19.45	Moderate	0.38	1.98	task-social/outcomerating/task-cognitive_scale.png	n/a	n/a	n/a	n/a	n/a	n/a	n/a	n/a
71.1	0.99	cognitive	cue	3	low_cue	n/a	n/a	n/a	n/a	n/a	n/a	n/a	task-social/cue/runtype-cognitive/scl/l041.png	n/a	n/a	n/a	n/a	n/a	n/a	n/a	n/a
73.42	1.33	cognitive	expectrating	3	low_cue	n/a	19.02	Moderate	19.02	Moderate	0.05	1.28	task-social/cue/runtype-cognitive/scl/l041.png	n/a	n/a	n/a	n/a	n/a	n/a	n/a	n/a
84.21	5.0	cognitive	stimulus	3	low_cue	high_stim	n/a	n/a	n/a	n/a	n/a	n/a	task-social/stim/runtype-cognitive/27_150.jpg	n/a	n/a	n/a	n/a	n/a	same	diff	False
93.31	2.12	cognitive	outcomerating	3	low_cue	high_stim	62.82	Strong	62.82	Strong	0.05	1.28	task-social/outcomerating/task-cognitive_scale.png	n/a	n/a	n/a	n/a	n/a	n/a	n/a	n/a
100.72	0.98	cognitive	cue	4	high_cue	n/a	n/a	n/a	n/a	n/a	n/a	n/a	task-social/cue/runtype-cognitive/sch/h051.png	n/a	n/a	n/a	n/a	n/a	n/a	n/a	n/a
103.52	1.97	cognitive	expectrating	4	high_cue	n/a	39.45	Strong	39.45	Strong	1.2	0.77	task-social/cue/runtype-cognitive/sch/h051.png	n/a	n/a	n/a	n/a	n/a	n/a	n/a	n/a
114.82	5.0	cognitive	stimulus	4	high_cue	low_stim	n/a	n/a	n/a	n/a	n/a	n/a	task-social/stim/runtype-cognitive/18_50_R.jpg	n/a	n/a	n/a	n/a	n/a	diff	diff	True
124.71	1.9	cognitive	outcomerating	4	high_cue	low_stim	17.56	Moderate	17.56	Moderate	1.2	0.77	task-social/outcomerating/task-cognitive_scale.png	n/a	n/a	n/a	n/a	n/a	n/a	n/a	n/a
135.81	0.99	cognitive	cue	5	high_cue	n/a	n/a	n/a	n/a	n/a	n/a	n/a	task-social/cue/runtype-cognitive/sch/h027.png	n/a	n/a	n/a	n/a	n/a	n/a	n/a	n/a
137.53	1.82	cognitive	expectrating	5	high_cue	n/a	57.46	Strong	57.46	Strong	0.05	1.77	task-social/cue/runtype-cognitive/sch/h027.png	n/a	n/a	n/a	n/a	n/a	n/a	n/a	n/a
149.82	5.0	cognitive	stimulus	5	high_cue	med_stim	n/a	n/a	n/a	n/a	n/a	n/a	task-social/stim/runtype-cognitive/43_100_R.jpg	n/a	n/a	n/a	n/a	n/a	diff	diff	True
159.72	1.57	cognitive	outcomerating	5	high_cue	med_stim	87.22	Very Strong	87.22	Very Strong	0.05	1.77	task-social/outcomerating/task-cognitive_scale.png	n/a	n/a	n/a	n/a	n/a	n/a	n/a	n/a
170.61	0.99	cognitive	cue	6	high_cue	n/a	n/a	n/a	n/a	n/a	n/a	n/a	task-social/cue/runtype-cognitive/sch/h052.png	n/a	n/a	n/a	n/a	n/a	n/a	n/a	n/a
172.41	3.26	cognitive	expectrating	6	high_cue	n/a	60.31	Strong	60.31	Strong	0.18	3.07	task-social/cue/runtype-cognitive/sch/h052.png	n/a	n/a	n/a	n/a	n/a	n/a	n/a	n/a
181.01	5.0	cognitive	stimulus	6	high_cue	high_stim	n/a	n/a	n/a	n/a	n/a	n/a	task-social/stim/runtype-cognitive/44_150.jpg	n/a	n/a	n/a	n/a	n/a	same	same	True
190.92	3.03	cognitive	outcomerating	6	high_cue	high_stim	52.06	Strong	52.06	Strong	0.18	3.07	task-social/outcomerating/task-cognitive_scale.png	n/a	n/a	n/a	n/a	n/a	n/a	n/a	n/a
196.92	0.98	cognitive	cue	7	high_cue	n/a	n/a	n/a	n/a	n/a	n/a	n/a	task-social/cue/runtype-cognitive/sch/h030.png	n/a	n/a	n/a	n/a	n/a	n/a	n/a	n/a
199.92	1.88	cognitive	expectrating	7	high_cue	n/a	60.63	Strong	60.63	Strong	0.52	1.37	task-social/cue/runtype-cognitive/sch/h030.png	n/a	n/a	n/a	n/a	n/a	n/a	n/a	n/a
212.21	5.0	cognitive	stimulus	7	high_cue	low_stim	n/a	n/a	n/a	n/a	n/a	n/a	task-social/stim/runtype-cognitive/10_50_R.jpg	n/a	n/a	n/a	n/a	n/a	diff	diff	True
231.01	3.3	cognitive	outcomerating	7	high_cue	low_stim	43.85	Strong	43.85	Strong	0.52	1.37	task-social/outcomerating/task-cognitive_scale.png	n/a	n/a	n/a	n/a	n/a	n/a	n/a	n/a
237.02	0.98	cognitive	cue	8	low_cue	n/a	n/a	n/a	n/a	n/a	n/a	n/a	task-social/cue/runtype-cognitive/scl/l026.png	n/a	n/a	n/a	n/a	n/a	n/a	n/a	n/a
239.72	n/a	cognitive	expectrating	8	low_cue	n/a	n/a	n/a	n/a	n/a	n/a	n/a	task-social/cue/runtype-cognitive/scl/l026.png	n/a	n/a	n/a	n/a	n/a	n/a	n/a	n/a
251.32	5.0	cognitive	stimulus	8	low_cue	high_stim	n/a	n/a	n/a	n/a	n/a	n/a	task-social/stim/runtype-cognitive/38_150_R.jpg	n/a	n/a	n/a	n/a	n/a	diff	diff	True
259.31	3.81	cognitive	outcomerating	8	low_cue	high_stim	25.94	Moderate	25.94	Moderate	n/a	n/a	task-social/outcomerating/task-cognitive_scale.png	n/a	n/a	n/a	n/a	n/a	n/a	n/a	n/a
268.31	0.99	cognitive	cue	9	high_cue	n/a	n/a	n/a	n/a	n/a	n/a	n/a	task-social/cue/runtype-cognitive/sch/h029.png	n/a	n/a	n/a	n/a	n/a	n/a	n/a	n/a
271.31	3.37	cognitive	expectrating	9	high_cue	n/a	54.35	Strong	54.35	Strong	0.1	3.27	task-social/cue/runtype-cognitive/sch/h029.png	n/a	n/a	n/a	n/a	n/a	n/a	n/a	n/a
279.22	5.0	cognitive	stimulus	9	high_cue	high_stim	n/a	n/a	n/a	n/a	n/a	n/a	task-social/stim/runtype-cognitive/42_150.jpg	n/a	n/a	n/a	n/a	n/a	same	same	True
295.72	3.43	cognitive	outcomerating	9	high_cue	high_stim	58.91	Strong	58.91	Strong	0.1	3.27	task-social/outcomerating/task-cognitive_scale.png	n/a	n/a	n/a	n/a	n/a	n/a	n/a	n/a
301.91	0.99	cognitive	cue	10	low_cue	n/a	n/a	n/a	n/a	n/a	n/a	n/a	task-social/cue/runtype-cognitive/scl/l024.png	n/a	n/a	n/a	n/a	n/a	n/a	n/a	n/a
304.21	2.44	cognitive	expectrating	10	low_cue	n/a	5.05	Weak	5.05	Weak	0.63	1.81	task-social/cue/runtype-cognitive/scl/l024.png	n/a	n/a	n/a	n/a	n/a	n/a	n/a	n/a
316.51	5.0	cognitive	stimulus	10	low_cue	med_stim	n/a	n/a	n/a	n/a	n/a	n/a	task-social/stim/runtype-cognitive/47_100.jpg	n/a	n/a	n/a	n/a	n/a	same	same	True
327.72	3.15	cognitive	outcomerating	10	low_cue	med_stim	41.9	Strong	41.9	Strong	0.63	1.81	task-social/outcomerating/task-cognitive_scale.png	n/a	n/a	n/a	n/a	n/a	n/a	n/a	n/a
333.92	0.98	cognitive	cue	11	high_cue	n/a	n/a	n/a	n/a	n/a	n/a	n/a	task-social/cue/runtype-cognitive/sch/h036.png	n/a	n/a	n/a	n/a	n/a	n/a	n/a	n/a
336.92	3.44	cognitive	expectrating	11	high_cue	n/a	72.22	Very Strong	72.22	Very Strong	0.98	2.45	task-social/cue/runtype-cognitive/sch/h036.png	n/a	n/a	n/a	n/a	n/a	n/a	n/a	n/a
349.21	5.0	cognitive	stimulus	11	high_cue	med_stim	n/a	n/a	n/a	n/a	n/a	n/a	task-social/stim/runtype-cognitive/18_100_R.jpg	n/a	n/a	n/a	n/a	n/a	diff	diff	True
361.61	1.37	cognitive	outcomerating	11	high_cue	med_stim	16.52	Moderate	16.52	Moderate	0.98	2.45	task-social/outcomerating/task-cognitive_scale.png	n/a	n/a	n/a	n/a	n/a	n/a	n/a	n/a
372.52	0.98	cognitive	cue	12	low_cue	n/a	n/a	n/a	n/a	n/a	n/a	n/a	task-social/cue/runtype-cognitive/scl/l010.png	n/a	n/a	n/a	n/a	n/a	n/a	n/a	n/a
375.52	2.32	cognitive	expectrating	12	low_cue	n/a	23.84	Moderate	23.84	Moderate	0.05	2.27	task-social/cue/runtype-cognitive/scl/l010.png	n/a	n/a	n/a	n/a	n/a	n/a	n/a	n/a
383.42	5.0	cognitive	stimulus	12	low_cue	low_stim	n/a	n/a	n/a	n/a	n/a	n/a	task-social/stim/runtype-cognitive/35_50_R.jpg	n/a	n/a	n/a	n/a	n/a	diff	diff	True
394.71	2.39	cognitive	outcomerating	12	low_cue	low_stim	2.99	Barely detectable	2.99	Barely detectable	0.05	2.27	task-social/outcomerating/task-cognitive_scale.png	n/a	n/a	n/a	n/a	n/a	n/a	n/a	n/a
