onset	duration	run_type	trial_type	trial_index	cue	stimulusintensity	rating_value	rating_glmslabel	rating_value_fillna	rating_glmslabel_fillna	rating_mouseonset	rating_mousedur	stim_file	pain_onset_ttl1	pain_onset_ttl2	pain_onset_ttl3	pain_onset_ttl4	pain_stimulus_delivery_success	cognitive_correct_response	cognitive_participant_response	cognitive_response_accuracy
14.19	0.99	cognitive	cue	1	low_cue	n/a	n/a	n/a	n/a	n/a	n/a	n/a	n/a	n/a	n/a	n/a	n/a	n/a	n/a	n/a	n/a
16.01	1.37	cognitive	expectrating	1	low_cue	n/a	32.86	Strong	32.86	Strong	0.48	0.89	task-social/cue/runtype-cognitive/scl/l037.png	n/a	n/a	n/a	n/a	n/a	n/a	n/a	n/a
26.69	5.0	cognitive	stimulus	1	low_cue	low_stim	n/a	n/a	n/a	n/a	n/a	n/a	task-social/stim/runtype-cognitive/7_50.jpg	n/a	n/a	n/a	n/a	n/a	same	same	True
37.7	1.93	cognitive	outcomerating	1	low_cue	low_stim	25.31	Moderate	25.31	Moderate	0.82	1.12	task-social/outcomerating/task-cognitive_scale.png	n/a	n/a	n/a	n/a	n/a	n/a	n/a	n/a
43.78	1.0	cognitive	cue	2	low_cue	n/a	n/a	n/a	n/a	n/a	n/a	n/a	n/a	n/a	n/a	n/a	n/a	n/a	n/a	n/a	n/a
46.8	1.33	cognitive	expectrating	2	low_cue	n/a	15.82	Moderate	15.82	Moderate	0.33	1.0	task-social/cue/runtype-cognitive/scl/l006.png	n/a	n/a	n/a	n/a	n/a	n/a	n/a	n/a
57.49	5.0	cognitive	stimulus	2	low_cue	med_stim	n/a	n/a	n/a	n/a	n/a	n/a	task-social/stim/runtype-cognitive/35_100.jpg	n/a	n/a	n/a	n/a	n/a	same	diff	False
69.29	2.3	cognitive	outcomerating	2	low_cue	med_stim	12.98	Moderate	12.98	Moderate	0.43	1.87	task-social/outcomerating/task-cognitive_scale.png	n/a	n/a	n/a	n/a	n/a	n/a	n/a	n/a
77.8	0.98	cognitive	cue	3	high_cue	n/a	n/a	n/a	n/a	n/a	n/a	n/a	n/a	n/a	n/a	n/a	n/a	n/a	n/a	n/a	n/a
80.8	2.87	cognitive	expectrating	3	high_cue	n/a	42.55	Strong	42.55	Strong	0.53	2.33	task-social/cue/runtype-cognitive/sch/h017.png	n/a	n/a	n/a	n/a	n/a	n/a	n/a	n/a
87.6	5.0	cognitive	stimulus	3	high_cue	med_stim	n/a	n/a	n/a	n/a	n/a	n/a	task-social/stim/runtype-cognitive/1_100_R.jpg	n/a	n/a	n/a	n/a	n/a	diff	same	False
97.39	2.34	cognitive	outcomerating	3	high_cue	med_stim	36.5	Strong	36.5	Strong	0.6	1.74	task-social/outcomerating/task-cognitive_scale.png	n/a	n/a	n/a	n/a	n/a	n/a	n/a	n/a
110.49	0.99	cognitive	cue	4	low_cue	n/a	n/a	n/a	n/a	n/a	n/a	n/a	n/a	n/a	n/a	n/a	n/a	n/a	n/a	n/a	n/a
112.39	1.79	cognitive	expectrating	4	low_cue	n/a	30.12	Strong	30.12	Strong	0.38	1.4	task-social/cue/runtype-cognitive/scl/l023.png	n/a	n/a	n/a	n/a	n/a	n/a	n/a	n/a
125.9	5.0	cognitive	stimulus	4	low_cue	high_stim	n/a	n/a	n/a	n/a	n/a	n/a	task-social/stim/runtype-cognitive/1_150.jpg	n/a	n/a	n/a	n/a	n/a	same	diff	False
136.1	2.38	cognitive	outcomerating	4	low_cue	high_stim	33.76	Strong	33.76	Strong	0.8	1.58	task-social/outcomerating/task-cognitive_scale.png	n/a	n/a	n/a	n/a	n/a	n/a	n/a	n/a
150.69	0.99	cognitive	cue	5	high_cue	n/a	n/a	n/a	n/a	n/a	n/a	n/a	n/a	n/a	n/a	n/a	n/a	n/a	n/a	n/a	n/a
152.39	1.72	cognitive	expectrating	5	high_cue	n/a	72.51	Very Strong	72.51	Very Strong	0.6	1.12	task-social/cue/runtype-cognitive/sch/h016.png	n/a	n/a	n/a	n/a	n/a	n/a	n/a	n/a
160.89	5.0	cognitive	stimulus	5	high_cue	med_stim	n/a	n/a	n/a	n/a	n/a	n/a	task-social/stim/runtype-cognitive/24_100_R.jpg	n/a	n/a	n/a	n/a	n/a	diff	diff	True
173.8	2.85	cognitive	outcomerating	5	high_cue	med_stim	54.83	Strong	54.83	Strong	0.97	1.88	task-social/outcomerating/task-cognitive_scale.png	n/a	n/a	n/a	n/a	n/a	n/a	n/a	n/a
178.68	0.99	cognitive	cue	6	low_cue	n/a	n/a	n/a	n/a	n/a	n/a	n/a	n/a	n/a	n/a	n/a	n/a	n/a	n/a	n/a	n/a
181.8	1.75	cognitive	expectrating	6	low_cue	n/a	14.21	Moderate	14.21	Moderate	0.43	1.32	task-social/cue/runtype-cognitive/scl/l048.png	n/a	n/a	n/a	n/a	n/a	n/a	n/a	n/a
189.99	5.0	cognitive	stimulus	6	low_cue	high_stim	n/a	n/a	n/a	n/a	n/a	n/a	task-social/stim/runtype-cognitive/26_150_R.jpg	n/a	n/a	n/a	n/a	n/a	diff	n/a	False
200.09	1.72	cognitive	outcomerating	6	low_cue	high_stim	83.79	Very Strong	83.79	Very Strong	0.53	1.19	task-social/outcomerating/task-cognitive_scale.png	n/a	n/a	n/a	n/a	n/a	n/a	n/a	n/a
205.39	0.98	cognitive	cue	7	low_cue	n/a	n/a	n/a	n/a	n/a	n/a	n/a	n/a	n/a	n/a	n/a	n/a	n/a	n/a	n/a	n/a
208.4	1.37	cognitive	expectrating	7	low_cue	n/a	36.18	Strong	36.18	Strong	0.55	0.82	task-social/cue/runtype-cognitive/scl/l008.png	n/a	n/a	n/a	n/a	n/a	n/a	n/a	n/a
219.7	5.0	cognitive	stimulus	7	low_cue	low_stim	n/a	n/a	n/a	n/a	n/a	n/a	task-social/stim/runtype-cognitive/26_50_R.jpg	n/a	n/a	n/a	n/a	n/a	diff	n/a	False
232.59	2.54	cognitive	outcomerating	7	low_cue	low_stim	47.11	Strong	47.11	Strong	0.52	2.02	task-social/outcomerating/task-cognitive_scale.png	n/a	n/a	n/a	n/a	n/a	n/a	n/a	n/a
237.49	0.99	cognitive	cue	8	high_cue	n/a	n/a	n/a	n/a	n/a	n/a	n/a	n/a	n/a	n/a	n/a	n/a	n/a	n/a	n/a	n/a
239.21	1.6	cognitive	expectrating	8	high_cue	n/a	112.67	Strongest sensation of any kind	112.67	Strongest sensation of any kind	0.45	1.15	task-social/cue/runtype-cognitive/sch/h055.png	n/a	n/a	n/a	n/a	n/a	n/a	n/a	n/a
245.99	5.0	cognitive	stimulus	8	high_cue	high_stim	n/a	n/a	n/a	n/a	n/a	n/a	task-social/stim/runtype-cognitive/22_150.jpg	n/a	n/a	n/a	n/a	n/a	same	n/a	False
257.9	1.93	cognitive	outcomerating	8	high_cue	high_stim	76.8	Very Strong	76.8	Very Strong	0.47	1.47	task-social/outcomerating/task-cognitive_scale.png	n/a	n/a	n/a	n/a	n/a	n/a	n/a	n/a
265.78	1.0	cognitive	cue	9	high_cue	n/a	n/a	n/a	n/a	n/a	n/a	n/a	n/a	n/a	n/a	n/a	n/a	n/a	n/a	n/a	n/a
268.8	2.17	cognitive	expectrating	9	high_cue	n/a	76.52	Very Strong	76.52	Very Strong	0.65	1.52	task-social/cue/runtype-cognitive/sch/h044.png	n/a	n/a	n/a	n/a	n/a	n/a	n/a	n/a
276.99	5.0	cognitive	stimulus	9	high_cue	high_stim	n/a	n/a	n/a	n/a	n/a	n/a	task-social/stim/runtype-cognitive/24_150_R.jpg	n/a	n/a	n/a	n/a	n/a	diff	diff	True
287.99	2.52	cognitive	outcomerating	9	high_cue	high_stim	32.97	Strong	32.97	Strong	0.72	1.8	task-social/outcomerating/task-cognitive_scale.png	n/a	n/a	n/a	n/a	n/a	n/a	n/a	n/a
296.69	0.98	cognitive	cue	10	high_cue	n/a	n/a	n/a	n/a	n/a	n/a	n/a	n/a	n/a	n/a	n/a	n/a	n/a	n/a	n/a	n/a
299.5	1.82	cognitive	expectrating	10	high_cue	n/a	48.95	Strong	48.95	Strong	1.13	0.68	task-social/cue/runtype-cognitive/sch/h021.png	n/a	n/a	n/a	n/a	n/a	n/a	n/a	n/a
316.09	5.0	cognitive	stimulus	10	high_cue	low_stim	n/a	n/a	n/a	n/a	n/a	n/a	task-social/stim/runtype-cognitive/20_50.jpg	n/a	n/a	n/a	n/a	n/a	same	same	True
326.99	1.32	cognitive	outcomerating	10	high_cue	low_stim	38.91	Strong	38.91	Strong	0.42	0.91	task-social/outcomerating/task-cognitive_scale.png	n/a	n/a	n/a	n/a	n/a	n/a	n/a	n/a
332.69	0.99	cognitive	cue	11	high_cue	n/a	n/a	n/a	n/a	n/a	n/a	n/a	n/a	n/a	n/a	n/a	n/a	n/a	n/a	n/a	n/a
335.59	1.19	cognitive	expectrating	11	high_cue	n/a	38.04	Strong	38.04	Strong	0.45	0.74	task-social/cue/runtype-cognitive/sch/h028.png	n/a	n/a	n/a	n/a	n/a	n/a	n/a	n/a
346.5	5.0	cognitive	stimulus	11	high_cue	low_stim	n/a	n/a	n/a	n/a	n/a	n/a	task-social/stim/runtype-cognitive/1_50_R.jpg	n/a	n/a	n/a	n/a	n/a	diff	diff	True
358.5	1.88	cognitive	outcomerating	11	high_cue	low_stim	60.14	Strong	60.14	Strong	0.75	1.13	task-social/outcomerating/task-cognitive_scale.png	n/a	n/a	n/a	n/a	n/a	n/a	n/a	n/a
365.29	0.99	cognitive	cue	12	low_cue	n/a	n/a	n/a	n/a	n/a	n/a	n/a	n/a	n/a	n/a	n/a	n/a	n/a	n/a	n/a	n/a
367.19	1.56	cognitive	expectrating	12	low_cue	n/a	21.84	Moderate	21.84	Moderate	0.23	1.32	task-social/cue/runtype-cognitive/scl/l052.png	n/a	n/a	n/a	n/a	n/a	n/a	n/a	n/a
380.79	5.0	cognitive	stimulus	12	low_cue	med_stim	n/a	n/a	n/a	n/a	n/a	n/a	task-social/stim/runtype-cognitive/20_100_R.jpg	n/a	n/a	n/a	n/a	n/a	diff	n/a	False
394.5	1.48	cognitive	outcomerating	12	low_cue	med_stim	40.93	Strong	40.93	Strong	0.72	0.77	task-social/outcomerating/task-cognitive_scale.png	n/a	n/a	n/a	n/a	n/a	n/a	n/a	n/a
