onset	duration	run_type	trial_type	trial_index	cue	stimulusintensity	rating_value	rating_glmslabel	rating_value_fillna	rating_glmslabel_fillna	rating_mouseonset	rating_mousedur	stim_file_TODO	pain_onset_ttl1	pain_onset_ttl2	pain_onset_ttl3	pain_onset_ttl4	pain_stimulus_delivery_success	cognitive_correct_response	cognitive_participant_response	cognitive_response_accuracy
11.61	0.98	cognitive	cue	1	low_cue	n/a	n/a	n/a	n/a	n/a	n/a	n/a	task-social/cue/runtype-cognitive/scl/l042.png	n/a	n/a	n/a	n/a	n/a	n/a	n/a	n/a
14.81	2.39	cognitive	expectrating	1	low_cue	n/a	5.0	Weak	5.0	Weak	0.45	1.94	task-social/cue/runtype-cognitive/scl/l042.png	n/a	n/a	n/a	n/a	n/a	n/a	n/a	n/a
21.52	5.0	cognitive	stimulus	1	low_cue	low_stim	n/a	n/a	n/a	n/a	n/a	n/a	task-social/stim/runtype-cognitive/24_50.jpg	n/a	n/a	n/a	n/a	n/a	same	same	True
36.91	3.15	cognitive	outcomerating	1	low_cue	low_stim	15.0	Moderate	15.0	Moderate	0.45	1.94	task-social/outcomerating/task-cognitive_scale.png	n/a	n/a	n/a	n/a	n/a	n/a	n/a	n/a
42.41	0.99	cognitive	cue	2	high_cue	n/a	n/a	n/a	n/a	n/a	n/a	n/a	task-social/cue/runtype-cognitive/sch/h029.png	n/a	n/a	n/a	n/a	n/a	n/a	n/a	n/a
44.21	3.18	cognitive	expectrating	2	high_cue	n/a	42.74	Strong	42.74	Strong	0.9	2.28	task-social/cue/runtype-cognitive/sch/h029.png	n/a	n/a	n/a	n/a	n/a	n/a	n/a	n/a
57.51	5.0	cognitive	stimulus	2	high_cue	med_stim	n/a	n/a	n/a	n/a	n/a	n/a	task-social/stim/runtype-cognitive/19_100_R.jpg	n/a	n/a	n/a	n/a	n/a	diff	diff	True
67.52	2.56	cognitive	outcomerating	2	high_cue	med_stim	17.83	Moderate	17.83	Moderate	0.9	2.28	task-social/outcomerating/task-cognitive_scale.png	n/a	n/a	n/a	n/a	n/a	n/a	n/a	n/a
74.2	0.99	cognitive	cue	3	high_cue	n/a	n/a	n/a	n/a	n/a	n/a	n/a	task-social/cue/runtype-cognitive/sch/h025.png	n/a	n/a	n/a	n/a	n/a	n/a	n/a	n/a
77.4	1.54	cognitive	expectrating	3	high_cue	n/a	45.49	Strong	45.49	Strong	0.13	1.4	task-social/cue/runtype-cognitive/sch/h025.png	n/a	n/a	n/a	n/a	n/a	n/a	n/a	n/a
85.11	5.0	cognitive	stimulus	3	high_cue	low_stim	n/a	n/a	n/a	n/a	n/a	n/a	task-social/stim/runtype-cognitive/35_50_R.jpg	n/a	n/a	n/a	n/a	n/a	diff	diff	True
96.61	n/a	cognitive	outcomerating	3	high_cue	low_stim	n/a	n/a	0.0	n/a	0.13	1.4	task-social/outcomerating/task-cognitive_scale.png	n/a	n/a	n/a	n/a	n/a	n/a	n/a	n/a
110.6	0.99	cognitive	cue	4	high_cue	n/a	n/a	n/a	n/a	n/a	n/a	n/a	task-social/cue/runtype-cognitive/sch/h024.png	n/a	n/a	n/a	n/a	n/a	n/a	n/a	n/a
113.3	2.64	cognitive	expectrating	4	high_cue	n/a	40.28	Strong	40.28	Strong	0.43	2.21	task-social/cue/runtype-cognitive/sch/h024.png	n/a	n/a	n/a	n/a	n/a	n/a	n/a	n/a
120.0	5.0	cognitive	stimulus	4	high_cue	high_stim	n/a	n/a	n/a	n/a	n/a	n/a	task-social/stim/runtype-cognitive/19_150_R.jpg	n/a	n/a	n/a	n/a	n/a	diff	diff	True
133.21	2.4	cognitive	outcomerating	4	high_cue	high_stim	54.3	Strong	54.3	Strong	0.43	2.21	task-social/outcomerating/task-cognitive_scale.png	n/a	n/a	n/a	n/a	n/a	n/a	n/a	n/a
139.91	0.98	cognitive	cue	5	low_cue	n/a	n/a	n/a	n/a	n/a	n/a	n/a	task-social/cue/runtype-cognitive/scl/l040.png	n/a	n/a	n/a	n/a	n/a	n/a	n/a	n/a
143.11	3.45	cognitive	expectrating	5	low_cue	n/a	11.08	Moderate	11.08	Moderate	1.9	1.55	task-social/cue/runtype-cognitive/scl/l040.png	n/a	n/a	n/a	n/a	n/a	n/a	n/a	n/a
156.82	5.0	cognitive	stimulus	5	low_cue	med_stim	n/a	n/a	n/a	n/a	n/a	n/a	task-social/stim/runtype-cognitive/44_100.jpg	n/a	n/a	n/a	n/a	n/a	same	same	True
165.7	3.39	cognitive	outcomerating	5	low_cue	med_stim	45.49	Strong	45.49	Strong	1.9	1.55	task-social/outcomerating/task-cognitive_scale.png	n/a	n/a	n/a	n/a	n/a	n/a	n/a	n/a
181.31	0.98	cognitive	cue	6	low_cue	n/a	n/a	n/a	n/a	n/a	n/a	n/a	task-social/cue/runtype-cognitive/scl/l050.png	n/a	n/a	n/a	n/a	n/a	n/a	n/a	n/a
183.71	3.12	cognitive	expectrating	6	low_cue	n/a	0.0	n/a	0.0	n/a	0.55	2.57	task-social/cue/runtype-cognitive/scl/l050.png	n/a	n/a	n/a	n/a	n/a	n/a	n/a	n/a
196.8	5.0	cognitive	stimulus	6	low_cue	high_stim	n/a	n/a	n/a	n/a	n/a	n/a	task-social/stim/runtype-cognitive/20_150_R.jpg	n/a	n/a	n/a	n/a	n/a	diff	n/a	False
210.4	2.29	cognitive	outcomerating	6	low_cue	high_stim	65.73	Very Strong	65.73	Very Strong	0.55	2.57	task-social/outcomerating/task-cognitive_scale.png	n/a	n/a	n/a	n/a	n/a	n/a	n/a	n/a
216.11	0.99	cognitive	cue	7	low_cue	n/a	n/a	n/a	n/a	n/a	n/a	n/a	task-social/cue/runtype-cognitive/scl/l032.png	n/a	n/a	n/a	n/a	n/a	n/a	n/a	n/a
218.71	2.38	cognitive	expectrating	7	low_cue	n/a	5.58	Weak	5.58	Weak	0.77	1.62	task-social/cue/runtype-cognitive/scl/l032.png	n/a	n/a	n/a	n/a	n/a	n/a	n/a	n/a
235.81	5.0	cognitive	stimulus	7	low_cue	med_stim	n/a	n/a	n/a	n/a	n/a	n/a	task-social/stim/runtype-cognitive/14_100_R.jpg	n/a	n/a	n/a	n/a	n/a	diff	same	False
244.52	2.52	cognitive	outcomerating	7	low_cue	med_stim	67.13	Very Strong	67.13	Very Strong	0.77	1.62	task-social/outcomerating/task-cognitive_scale.png	n/a	n/a	n/a	n/a	n/a	n/a	n/a	n/a
250.4	0.99	cognitive	cue	8	low_cue	n/a	n/a	n/a	n/a	n/a	n/a	n/a	task-social/cue/runtype-cognitive/scl/l026.png	n/a	n/a	n/a	n/a	n/a	n/a	n/a	n/a
253.1	2.19	cognitive	expectrating	8	low_cue	n/a	7.42	Weak	7.42	Weak	0.9	1.29	task-social/cue/runtype-cognitive/scl/l026.png	n/a	n/a	n/a	n/a	n/a	n/a	n/a	n/a
265.81	5.0	cognitive	stimulus	8	low_cue	high_stim	n/a	n/a	n/a	n/a	n/a	n/a	task-social/stim/runtype-cognitive/24_150.jpg	n/a	n/a	n/a	n/a	n/a	same	same	True
282.71	3.43	cognitive	outcomerating	8	low_cue	high_stim	33.56	Strong	33.56	Strong	0.9	1.29	task-social/outcomerating/task-cognitive_scale.png	n/a	n/a	n/a	n/a	n/a	n/a	n/a	n/a
287.7	0.99	cognitive	cue	9	high_cue	n/a	n/a	n/a	n/a	n/a	n/a	n/a	task-social/cue/runtype-cognitive/sch/h053.png	n/a	n/a	n/a	n/a	n/a	n/a	n/a	n/a
289.5	3.86	cognitive	expectrating	9	high_cue	n/a	50.28	Strong	50.28	Strong	1.08	2.77	task-social/cue/runtype-cognitive/sch/h053.png	n/a	n/a	n/a	n/a	n/a	n/a	n/a	n/a
297.1	5.0	cognitive	stimulus	9	high_cue	low_stim	n/a	n/a	n/a	n/a	n/a	n/a	task-social/stim/runtype-cognitive/26_50.jpg	n/a	n/a	n/a	n/a	n/a	same	diff	False
308.21	2.8	cognitive	outcomerating	9	high_cue	low_stim	55.14	Strong	55.14	Strong	1.08	2.77	task-social/outcomerating/task-cognitive_scale.png	n/a	n/a	n/a	n/a	n/a	n/a	n/a	n/a
318.01	0.98	cognitive	cue	10	high_cue	n/a	n/a	n/a	n/a	n/a	n/a	n/a	task-social/cue/runtype-cognitive/sch/h048.png	n/a	n/a	n/a	n/a	n/a	n/a	n/a	n/a
320.61	3.73	cognitive	expectrating	10	high_cue	n/a	26.45	Moderate	26.45	Moderate	0.83	2.9	task-social/cue/runtype-cognitive/sch/h048.png	n/a	n/a	n/a	n/a	n/a	n/a	n/a	n/a
328.21	5.0	cognitive	stimulus	10	high_cue	high_stim	n/a	n/a	n/a	n/a	n/a	n/a	task-social/stim/runtype-cognitive/44_150_R.jpg	n/a	n/a	n/a	n/a	n/a	diff	diff	True
337.5	2.14	cognitive	outcomerating	10	high_cue	high_stim	12.0	Moderate	12.0	Moderate	0.83	2.9	task-social/outcomerating/task-cognitive_scale.png	n/a	n/a	n/a	n/a	n/a	n/a	n/a	n/a
343.9	0.99	cognitive	cue	11	high_cue	n/a	n/a	n/a	n/a	n/a	n/a	n/a	task-social/cue/runtype-cognitive/sch/h056.png	n/a	n/a	n/a	n/a	n/a	n/a	n/a	n/a
345.7	3.89	cognitive	expectrating	11	high_cue	n/a	47.93	Strong	47.93	Strong	0.95	2.94	task-social/cue/runtype-cognitive/sch/h056.png	n/a	n/a	n/a	n/a	n/a	n/a	n/a	n/a
357.81	5.0	cognitive	stimulus	11	high_cue	med_stim	n/a	n/a	n/a	n/a	n/a	n/a	task-social/stim/runtype-cognitive/35_100_R.jpg	n/a	n/a	n/a	n/a	n/a	diff	diff	True
366.71	n/a	cognitive	outcomerating	11	high_cue	med_stim	n/a	n/a	23.01	Moderate	0.95	2.94	task-social/outcomerating/task-cognitive_scale.png	n/a	n/a	n/a	n/a	n/a	n/a	n/a	n/a
374.8	0.99	cognitive	cue	12	low_cue	n/a	n/a	n/a	n/a	n/a	n/a	n/a	task-social/cue/runtype-cognitive/scl/l021.png	n/a	n/a	n/a	n/a	n/a	n/a	n/a	n/a
376.72	1.97	cognitive	expectrating	12	low_cue	n/a	11.21	Moderate	11.21	Moderate	0.4	1.57	task-social/cue/runtype-cognitive/scl/l021.png	n/a	n/a	n/a	n/a	n/a	n/a	n/a	n/a
384.3	5.0	cognitive	stimulus	12	low_cue	low_stim	n/a	n/a	n/a	n/a	n/a	n/a	task-social/stim/runtype-cognitive/20_50_R.jpg	n/a	n/a	n/a	n/a	n/a	diff	n/a	False
394.82	n/a	cognitive	outcomerating	12	low_cue	low_stim	n/a	n/a	22.87	Moderate	0.4	1.57	task-social/outcomerating/task-cognitive_scale.png	n/a	n/a	n/a	n/a	n/a	n/a	n/a	n/a
