onset	duration	run_type	trial_type	trial_index	cue	stimulusintensity	rating_value	rating_glmslabel	rating_value_fillna	rating_glmslabel_fillna	rating_mouseonset	rating_mousedur	stim_file	pain_onset_ttl1	pain_onset_ttl2	pain_onset_ttl3	pain_onset_ttl4	pain_stimulus_delivery_success	cognitive_correct_response	cognitive_participant_response	cognitive_response_accuracy
14.19	0.98	cognitive	cue	1	low_cue	n/a	n/a	n/a	n/a	n/a	n/a	n/a	task-social/cue/runtype-cognitive/scl/l047.png	n/a	n/a	n/a	n/a	n/a	n/a	n/a	n/a
15.99	2.7	cognitive	expectrating	1	low_cue	n/a	0	n/a	0	n/a	0.5	2.2	task-social/cue/runtype-cognitive/scl/l047.png	n/a	n/a	n/a	n/a	n/a	n/a	n/a	n/a
22.59	5.0	cognitive	stimulus	1	low_cue	low_stim	n/a	n/a	n/a	n/a	n/a	n/a	task-social/stim/runtype-cognitive/47_50.jpg	n/a	n/a	n/a	n/a	n/a	same	same	True
35.28	2.18	cognitive	outcomerating	1	low_cue	low_stim	0	n/a	0	n/a	0.5	2.2	task-social/outcomerating/task-cognitive_scale.png	n/a	n/a	n/a	n/a	n/a	n/a	n/a	n/a
40.58	0.99	cognitive	cue	2	low_cue	n/a	n/a	n/a	n/a	n/a	n/a	n/a	task-social/cue/runtype-cognitive/scl/l031.png	n/a	n/a	n/a	n/a	n/a	n/a	n/a	n/a
43.58	2.25	cognitive	expectrating	2	low_cue	n/a	0	n/a	0	n/a	0.67	1.58	task-social/cue/runtype-cognitive/scl/l031.png	n/a	n/a	n/a	n/a	n/a	n/a	n/a	n/a
50.18	5.0	cognitive	stimulus	2	low_cue	med_stim	n/a	n/a	n/a	n/a	n/a	n/a	task-social/stim/runtype-cognitive/27_100.jpg	n/a	n/a	n/a	n/a	n/a	same	same	True
63.67	2.4	cognitive	outcomerating	2	low_cue	med_stim	0	n/a	0	n/a	0.67	1.58	task-social/outcomerating/task-cognitive_scale.png	n/a	n/a	n/a	n/a	n/a	n/a	n/a	n/a
72.17	0.99	cognitive	cue	3	high_cue	n/a	n/a	n/a	n/a	n/a	n/a	n/a	task-social/cue/runtype-cognitive/sch/h026.png	n/a	n/a	n/a	n/a	n/a	n/a	n/a	n/a
75.17	1.82	cognitive	expectrating	3	high_cue	n/a	0	n/a	0	n/a	0.63	1.18	task-social/cue/runtype-cognitive/sch/h026.png	n/a	n/a	n/a	n/a	n/a	n/a	n/a	n/a
86.08	5.0	cognitive	stimulus	3	high_cue	med_stim	n/a	n/a	n/a	n/a	n/a	n/a	task-social/stim/runtype-cognitive/47_100_R.jpg	n/a	n/a	n/a	n/a	n/a	diff	diff	True
95.88	1.92	cognitive	outcomerating	3	high_cue	med_stim	0	n/a	0	n/a	0.63	1.18	task-social/outcomerating/task-cognitive_scale.png	n/a	n/a	n/a	n/a	n/a	n/a	n/a	n/a
108.97	0.99	cognitive	cue	4	low_cue	n/a	n/a	n/a	n/a	n/a	n/a	n/a	task-social/cue/runtype-cognitive/scl/l040.png	n/a	n/a	n/a	n/a	n/a	n/a	n/a	n/a
110.87	3.05	cognitive	expectrating	4	low_cue	n/a	0	n/a	0	n/a	0.8	2.25	task-social/cue/runtype-cognitive/scl/l040.png	n/a	n/a	n/a	n/a	n/a	n/a	n/a	n/a
120.28	5.0	cognitive	stimulus	4	low_cue	high_stim	n/a	n/a	n/a	n/a	n/a	n/a	task-social/stim/runtype-cognitive/10_150.jpg	n/a	n/a	n/a	n/a	n/a	same	same	True
130.48	1.72	cognitive	outcomerating	4	low_cue	high_stim	0	n/a	0	n/a	0.8	2.25	task-social/outcomerating/task-cognitive_scale.png	n/a	n/a	n/a	n/a	n/a	n/a	n/a	n/a
145.08	0.98	cognitive	cue	5	high_cue	n/a	n/a	n/a	n/a	n/a	n/a	n/a	task-social/cue/runtype-cognitive/sch/h004.png	n/a	n/a	n/a	n/a	n/a	n/a	n/a	n/a
146.79	3.3	cognitive	expectrating	5	high_cue	n/a	0	n/a	0	n/a	0.83	2.47	task-social/cue/runtype-cognitive/sch/h004.png	n/a	n/a	n/a	n/a	n/a	n/a	n/a	n/a
155.29	5.0	cognitive	stimulus	5	high_cue	med_stim	n/a	n/a	n/a	n/a	n/a	n/a	task-social/stim/runtype-cognitive/38_100.jpg	n/a	n/a	n/a	n/a	n/a	same	same	True
166.48	2.0	cognitive	outcomerating	5	high_cue	med_stim	0	n/a	0	n/a	0.83	2.47	task-social/outcomerating/task-cognitive_scale.png	n/a	n/a	n/a	n/a	n/a	n/a	n/a	n/a
171.38	0.99	cognitive	cue	6	low_cue	n/a	n/a	n/a	n/a	n/a	n/a	n/a	task-social/cue/runtype-cognitive/scl/l055.png	n/a	n/a	n/a	n/a	n/a	n/a	n/a	n/a
174.48	2.38	cognitive	expectrating	6	low_cue	n/a	0	n/a	0	n/a	0.4	1.98	task-social/cue/runtype-cognitive/scl/l055.png	n/a	n/a	n/a	n/a	n/a	n/a	n/a	n/a
182.68	5.0	cognitive	stimulus	6	low_cue	high_stim	n/a	n/a	n/a	n/a	n/a	n/a	task-social/stim/runtype-cognitive/11_150.jpg	n/a	n/a	n/a	n/a	n/a	same	same	True
194.49	2.09	cognitive	outcomerating	6	low_cue	high_stim	0	n/a	0	n/a	0.4	1.98	task-social/outcomerating/task-cognitive_scale.png	n/a	n/a	n/a	n/a	n/a	n/a	n/a	n/a
199.77	0.99	cognitive	cue	7	low_cue	n/a	n/a	n/a	n/a	n/a	n/a	n/a	task-social/cue/runtype-cognitive/scl/l054.png	n/a	n/a	n/a	n/a	n/a	n/a	n/a	n/a
202.77	1.55	cognitive	expectrating	7	low_cue	n/a	0	n/a	0	n/a	0.43	1.12	task-social/cue/runtype-cognitive/scl/l054.png	n/a	n/a	n/a	n/a	n/a	n/a	n/a	n/a
218.18	5.0	cognitive	stimulus	7	low_cue	low_stim	n/a	n/a	n/a	n/a	n/a	n/a	task-social/stim/runtype-cognitive/11_50.jpg	n/a	n/a	n/a	n/a	n/a	same	same	True
231.08	1.74	cognitive	outcomerating	7	low_cue	low_stim	0	n/a	0	n/a	0.43	1.12	task-social/outcomerating/task-cognitive_scale.png	n/a	n/a	n/a	n/a	n/a	n/a	n/a	n/a
236.77	0.99	cognitive	cue	8	high_cue	n/a	n/a	n/a	n/a	n/a	n/a	n/a	task-social/cue/runtype-cognitive/sch/h044.png	n/a	n/a	n/a	n/a	n/a	n/a	n/a	n/a
238.49	3.12	cognitive	expectrating	8	high_cue	n/a	0	n/a	0	n/a	1.3	1.82	task-social/cue/runtype-cognitive/sch/h044.png	n/a	n/a	n/a	n/a	n/a	n/a	n/a	n/a
245.27	5.0	cognitive	stimulus	8	high_cue	high_stim	n/a	n/a	n/a	n/a	n/a	n/a	task-social/stim/runtype-cognitive/5_150.jpg	n/a	n/a	n/a	n/a	n/a	same	same	True
255.49	2.13	cognitive	outcomerating	8	high_cue	high_stim	0	n/a	0	n/a	1.3	1.82	task-social/outcomerating/task-cognitive_scale.png	n/a	n/a	n/a	n/a	n/a	n/a	n/a	n/a
264.18	0.98	cognitive	cue	9	high_cue	n/a	n/a	n/a	n/a	n/a	n/a	n/a	task-social/cue/runtype-cognitive/sch/h022.png	n/a	n/a	n/a	n/a	n/a	n/a	n/a	n/a
267.18	2.22	cognitive	expectrating	9	high_cue	n/a	0	n/a	0	n/a	0.45	1.77	task-social/cue/runtype-cognitive/sch/h022.png	n/a	n/a	n/a	n/a	n/a	n/a	n/a	n/a
279.49	5.0	cognitive	stimulus	9	high_cue	high_stim	n/a	n/a	n/a	n/a	n/a	n/a	task-social/stim/runtype-cognitive/38_150.jpg	n/a	n/a	n/a	n/a	n/a	same	n/a	False
290.47	2.73	cognitive	outcomerating	9	high_cue	high_stim	0	n/a	0	n/a	0.45	1.77	task-social/outcomerating/task-cognitive_scale.png	n/a	n/a	n/a	n/a	n/a	n/a	n/a	n/a
298.38	0.99	cognitive	cue	10	high_cue	n/a	n/a	n/a	n/a	n/a	n/a	n/a	task-social/cue/runtype-cognitive/sch/h012.png	n/a	n/a	n/a	n/a	n/a	n/a	n/a	n/a
301.18	2.2	cognitive	expectrating	10	high_cue	n/a	0	n/a	0	n/a	0.4	1.8	task-social/cue/runtype-cognitive/sch/h012.png	n/a	n/a	n/a	n/a	n/a	n/a	n/a	n/a
321.88	5.0	cognitive	stimulus	10	high_cue	low_stim	n/a	n/a	n/a	n/a	n/a	n/a	task-social/stim/runtype-cognitive/47_50_R.jpg	n/a	n/a	n/a	n/a	n/a	diff	diff	True
331.07	1.9	cognitive	outcomerating	10	high_cue	low_stim	0	n/a	0	n/a	0.4	1.8	task-social/outcomerating/task-cognitive_scale.png	n/a	n/a	n/a	n/a	n/a	n/a	n/a	n/a
335.97	0.99	cognitive	cue	11	high_cue	n/a	n/a	n/a	n/a	n/a	n/a	n/a	task-social/cue/runtype-cognitive/sch/h048.png	n/a	n/a	n/a	n/a	n/a	n/a	n/a	n/a
338.87	2.15	cognitive	expectrating	11	high_cue	n/a	0	n/a	0	n/a	0.2	1.95	task-social/cue/runtype-cognitive/sch/h048.png	n/a	n/a	n/a	n/a	n/a	n/a	n/a	n/a
345.68	5.0	cognitive	stimulus	11	high_cue	low_stim	n/a	n/a	n/a	n/a	n/a	n/a	task-social/stim/runtype-cognitive/38_50.jpg	n/a	n/a	n/a	n/a	n/a	same	diff	False
359.38	1.5	cognitive	outcomerating	11	high_cue	low_stim	0	n/a	0	n/a	0.2	1.95	task-social/outcomerating/task-cognitive_scale.png	n/a	n/a	n/a	n/a	n/a	n/a	n/a	n/a
366.97	1.0	cognitive	cue	12	low_cue	n/a	n/a	n/a	n/a	n/a	n/a	n/a	task-social/cue/runtype-cognitive/scl/l033.png	n/a	n/a	n/a	n/a	n/a	n/a	n/a	n/a
368.89	1.87	cognitive	expectrating	12	low_cue	n/a	0	n/a	0	n/a	0.48	1.39	task-social/cue/runtype-cognitive/scl/l033.png	n/a	n/a	n/a	n/a	n/a	n/a	n/a	n/a
382.47	5.0	cognitive	stimulus	12	low_cue	med_stim	n/a	n/a	n/a	n/a	n/a	n/a	task-social/stim/runtype-cognitive/10_100.jpg	n/a	n/a	n/a	n/a	n/a	same	same	True
394.48	1.7	cognitive	outcomerating	12	low_cue	med_stim	0	n/a	0	n/a	0.48	1.39	task-social/outcomerating/task-cognitive_scale.png	n/a	n/a	n/a	n/a	n/a	n/a	n/a	n/a
