onset	duration	run_type	trial_type	trial_index	cue	stimulusintensity	rating_value	rating_glmslabel	rating_value_fillna	rating_glmslabel_fillna	rating_mouseonset	rating_mousedur	stim_file	pain_onset_ttl1	pain_onset_ttl2	pain_onset_ttl3	pain_onset_ttl4	pain_stimulus_delivery_success	cognitive_correct_response	cognitive_participant_response	cognitive_response_accuracy
4.68	0.98	cognitive	cue	1	high_cue	n/a	n/a	n/a	n/a	n/a	n/a	n/a	task-social/cue/runtype-cognitive/sch/h049.png	n/a	n/a	n/a	n/a	n/a	n/a	n/a	n/a
7.09	3.3	cognitive	expectrating	1	high_cue	n/a	0	n/a	0	n/a	0.43	2.87	task-social/cue/runtype-cognitive/sch/h049.png	n/a	n/a	n/a	n/a	n/a	n/a	n/a	n/a
21.87	5.0	cognitive	stimulus	1	high_cue	low_stim	n/a	n/a	n/a	n/a	n/a	n/a	task-social/stim/runtype-cognitive/27_50_R.jpg	n/a	n/a	n/a	n/a	n/a	diff	diff	True
31.28	3.02	cognitive	outcomerating	1	high_cue	low_stim	0	n/a	0	n/a	0.43	2.87	task-social/outcomerating/task-cognitive_scale.png	n/a	n/a	n/a	n/a	n/a	n/a	n/a	n/a
37.18	0.98	cognitive	cue	2	low_cue	n/a	n/a	n/a	n/a	n/a	n/a	n/a	task-social/cue/runtype-cognitive/scl/l004.png	n/a	n/a	n/a	n/a	n/a	n/a	n/a	n/a
38.98	2.18	cognitive	expectrating	2	low_cue	n/a	0	n/a	0	n/a	0.42	1.77	task-social/cue/runtype-cognitive/scl/l004.png	n/a	n/a	n/a	n/a	n/a	n/a	n/a	n/a
46.08	5.0	cognitive	stimulus	2	low_cue	low_stim	n/a	n/a	n/a	n/a	n/a	n/a	task-social/stim/runtype-cognitive/18_50.jpg	n/a	n/a	n/a	n/a	n/a	same	same	True
57.27	1.57	cognitive	outcomerating	2	low_cue	low_stim	0	n/a	0	n/a	0.42	1.77	task-social/outcomerating/task-cognitive_scale.png	n/a	n/a	n/a	n/a	n/a	n/a	n/a	n/a
62.17	0.99	cognitive	cue	3	low_cue	n/a	n/a	n/a	n/a	n/a	n/a	n/a	task-social/cue/runtype-cognitive/scl/l035.png	n/a	n/a	n/a	n/a	n/a	n/a	n/a	n/a
64.27	1.88	cognitive	expectrating	3	low_cue	n/a	0	n/a	0	n/a	0.52	1.37	task-social/cue/runtype-cognitive/scl/l035.png	n/a	n/a	n/a	n/a	n/a	n/a	n/a	n/a
77.08	5.0	cognitive	stimulus	3	low_cue	med_stim	n/a	n/a	n/a	n/a	n/a	n/a	task-social/stim/runtype-cognitive/42_100_R.jpg	n/a	n/a	n/a	n/a	n/a	diff	diff	True
86.68	3.17	cognitive	outcomerating	3	low_cue	med_stim	0	n/a	0	n/a	0.52	1.37	task-social/outcomerating/task-cognitive_scale.png	n/a	n/a	n/a	n/a	n/a	n/a	n/a	n/a
91.78	0.98	cognitive	cue	4	low_cue	n/a	n/a	n/a	n/a	n/a	n/a	n/a	task-social/cue/runtype-cognitive/scl/l001.png	n/a	n/a	n/a	n/a	n/a	n/a	n/a	n/a
94.88	1.74	cognitive	expectrating	4	low_cue	n/a	0	n/a	0	n/a	0.48	1.25	task-social/cue/runtype-cognitive/scl/l001.png	n/a	n/a	n/a	n/a	n/a	n/a	n/a	n/a
106.07	5.0	cognitive	stimulus	4	low_cue	high_stim	n/a	n/a	n/a	n/a	n/a	n/a	task-social/stim/runtype-cognitive/42_150_R.jpg	n/a	n/a	n/a	n/a	n/a	diff	diff	True
115.38	1.43	cognitive	outcomerating	4	low_cue	high_stim	0	n/a	0	n/a	0.48	1.25	task-social/outcomerating/task-cognitive_scale.png	n/a	n/a	n/a	n/a	n/a	n/a	n/a	n/a
120.08	0.99	cognitive	cue	5	high_cue	n/a	n/a	n/a	n/a	n/a	n/a	n/a	task-social/cue/runtype-cognitive/sch/h053.png	n/a	n/a	n/a	n/a	n/a	n/a	n/a	n/a
122.5	2.27	cognitive	expectrating	5	high_cue	n/a	0	n/a	0	n/a	0.43	1.83	task-social/cue/runtype-cognitive/sch/h053.png	n/a	n/a	n/a	n/a	n/a	n/a	n/a	n/a
134.08	5.0	cognitive	stimulus	5	high_cue	med_stim	n/a	n/a	n/a	n/a	n/a	n/a	task-social/stim/runtype-cognitive/11_100_R.jpg	n/a	n/a	n/a	n/a	n/a	diff	diff	True
144.69	1.87	cognitive	outcomerating	5	high_cue	med_stim	0	n/a	0	n/a	0.43	1.83	task-social/outcomerating/task-cognitive_scale.png	n/a	n/a	n/a	n/a	n/a	n/a	n/a	n/a
149.27	0.99	cognitive	cue	6	high_cue	n/a	n/a	n/a	n/a	n/a	n/a	n/a	task-social/cue/runtype-cognitive/sch/h002.png	n/a	n/a	n/a	n/a	n/a	n/a	n/a	n/a
151.37	2.62	cognitive	expectrating	6	high_cue	n/a	0	n/a	0	n/a	0.07	2.55	task-social/cue/runtype-cognitive/sch/h002.png	n/a	n/a	n/a	n/a	n/a	n/a	n/a	n/a
162.88	5.0	cognitive	stimulus	6	high_cue	high_stim	n/a	n/a	n/a	n/a	n/a	n/a	task-social/stim/runtype-cognitive/35_150.jpg	n/a	n/a	n/a	n/a	n/a	same	diff	False
172.58	1.85	cognitive	outcomerating	6	high_cue	high_stim	0	n/a	0	n/a	0.07	2.55	task-social/outcomerating/task-cognitive_scale.png	n/a	n/a	n/a	n/a	n/a	n/a	n/a	n/a
178.58	0.98	cognitive	cue	7	high_cue	n/a	n/a	n/a	n/a	n/a	n/a	n/a	task-social/cue/runtype-cognitive/sch/h020.png	n/a	n/a	n/a	n/a	n/a	n/a	n/a	n/a
180.68	2.27	cognitive	expectrating	7	high_cue	n/a	0	n/a	0	n/a	0.48	1.79	task-social/cue/runtype-cognitive/sch/h020.png	n/a	n/a	n/a	n/a	n/a	n/a	n/a	n/a
189.27	5.0	cognitive	stimulus	7	high_cue	low_stim	n/a	n/a	n/a	n/a	n/a	n/a	task-social/stim/runtype-cognitive/29_50.jpg	n/a	n/a	n/a	n/a	n/a	same	same	True
207.18	3.03	cognitive	outcomerating	7	high_cue	low_stim	0	n/a	0	n/a	0.48	1.79	task-social/outcomerating/task-cognitive_scale.png	n/a	n/a	n/a	n/a	n/a	n/a	n/a	n/a
218.98	0.98	cognitive	cue	8	high_cue	n/a	n/a	n/a	n/a	n/a	n/a	n/a	task-social/cue/runtype-cognitive/sch/h034.png	n/a	n/a	n/a	n/a	n/a	n/a	n/a	n/a
221.08	2.27	cognitive	expectrating	8	high_cue	n/a	0	n/a	0	n/a	0.05	2.22	task-social/cue/runtype-cognitive/sch/h034.png	n/a	n/a	n/a	n/a	n/a	n/a	n/a	n/a
227.98	5.0	cognitive	stimulus	8	high_cue	high_stim	n/a	n/a	n/a	n/a	n/a	n/a	task-social/stim/runtype-cognitive/10_150_R.jpg	n/a	n/a	n/a	n/a	n/a	diff	n/a	False
240.57	1.65	cognitive	outcomerating	8	high_cue	high_stim	0	n/a	0	n/a	0.05	2.22	task-social/outcomerating/task-cognitive_scale.png	n/a	n/a	n/a	n/a	n/a	n/a	n/a	n/a
245.47	0.99	cognitive	cue	9	low_cue	n/a	n/a	n/a	n/a	n/a	n/a	n/a	task-social/cue/runtype-cognitive/scl/l003.png	n/a	n/a	n/a	n/a	n/a	n/a	n/a	n/a
248.58	1.6	cognitive	expectrating	9	low_cue	n/a	0	n/a	0	n/a	0.52	1.08	task-social/cue/runtype-cognitive/scl/l003.png	n/a	n/a	n/a	n/a	n/a	n/a	n/a	n/a
259.18	5.0	cognitive	stimulus	9	low_cue	low_stim	n/a	n/a	n/a	n/a	n/a	n/a	task-social/stim/runtype-cognitive/42_50_R.jpg	n/a	n/a	n/a	n/a	n/a	diff	diff	True
270.48	1.72	cognitive	outcomerating	9	low_cue	low_stim	0	n/a	0	n/a	0.52	1.08	task-social/outcomerating/task-cognitive_scale.png	n/a	n/a	n/a	n/a	n/a	n/a	n/a	n/a
276.37	0.99	cognitive	cue	10	low_cue	n/a	n/a	n/a	n/a	n/a	n/a	n/a	task-social/cue/runtype-cognitive/scl/l056.png	n/a	n/a	n/a	n/a	n/a	n/a	n/a	n/a
279.47	2.14	cognitive	expectrating	10	low_cue	n/a	0	n/a	0	n/a	0.48	1.65	task-social/cue/runtype-cognitive/scl/l056.png	n/a	n/a	n/a	n/a	n/a	n/a	n/a	n/a
290.77	5.0	cognitive	stimulus	10	low_cue	med_stim	n/a	n/a	n/a	n/a	n/a	n/a	task-social/stim/runtype-cognitive/11_100.jpg	n/a	n/a	n/a	n/a	n/a	same	same	True
301.98	3.65	cognitive	outcomerating	10	low_cue	med_stim	0	n/a	0	n/a	0.48	1.65	task-social/outcomerating/task-cognitive_scale.png	n/a	n/a	n/a	n/a	n/a	n/a	n/a	n/a
322.97	0.99	cognitive	cue	11	low_cue	n/a	n/a	n/a	n/a	n/a	n/a	n/a	task-social/cue/runtype-cognitive/scl/l006.png	n/a	n/a	n/a	n/a	n/a	n/a	n/a	n/a
325.37	n/a	cognitive	expectrating	11	low_cue	n/a	0	n/a	0	n/a	0.88	3.97	task-social/cue/runtype-cognitive/scl/l006.png	n/a	n/a	n/a	n/a	n/a	n/a	n/a	n/a
332.77	5.0	cognitive	stimulus	11	low_cue	high_stim	n/a	n/a	n/a	n/a	n/a	n/a	task-social/stim/runtype-cognitive/5_150_R.jpg	n/a	n/a	n/a	n/a	n/a	diff	diff	True
341.19	2.62	cognitive	outcomerating	11	low_cue	high_stim	0	n/a	0	n/a	0.88	3.97	task-social/outcomerating/task-cognitive_scale.png	n/a	n/a	n/a	n/a	n/a	n/a	n/a	n/a
362.27	1.0	cognitive	cue	12	high_cue	n/a	n/a	n/a	n/a	n/a	n/a	n/a	task-social/cue/runtype-cognitive/sch/h019.png	n/a	n/a	n/a	n/a	n/a	n/a	n/a	n/a
365.39	3.49	cognitive	expectrating	12	high_cue	n/a	0	n/a	0	n/a	0.65	2.84	task-social/cue/runtype-cognitive/sch/h019.png	n/a	n/a	n/a	n/a	n/a	n/a	n/a	n/a
377.47	5.0	cognitive	stimulus	12	high_cue	med_stim	n/a	n/a	n/a	n/a	n/a	n/a	task-social/stim/runtype-cognitive/27_100_R.jpg	n/a	n/a	n/a	n/a	n/a	diff	diff	True
394.08	3.55	cognitive	outcomerating	12	high_cue	med_stim	0	n/a	0	n/a	0.65	2.84	task-social/outcomerating/task-cognitive_scale.png	n/a	n/a	n/a	n/a	n/a	n/a	n/a	n/a
