onset	duration	run_type	trial_type	trial_index	cue	stimulusintensity	rating_value	rating_glmslabel	rating_value_fillna	rating_glmslabel_fillna	rating_mouseonset	rating_mousedur	stim_file_TODO	pain_onset_ttl1	pain_onset_ttl2	pain_onset_ttl3	pain_onset_ttl4	pain_stimulus_delivery_success	cognitive_correct_response	cognitive_participant_response	cognitive_response_accuracy
3.9	0.98	vicarious	cue	1	high_cue	n/a	n/a	n/a	n/a	n/a	n/a	n/a	task-social/cue/runtype-vicarious/sch/h050.png	n/a	n/a	n/a	n/a	n/a	n/a	n/a	n/a
6.12	2.53	vicarious	expectrating	1	high_cue	n/a	58.02	Strong	58.02	Strong	1.27	1.27	task-social/cue/runtype-vicarious/sch/h050.png	n/a	n/a	n/a	n/a	n/a	n/a	n/a	n/a
16.79	5.0	vicarious	stimulus	1	high_cue	low_stim	n/a	n/a	n/a	n/a	n/a	n/a	task-social/stim/runtype-vicarious/bm049t1afaff_L.mp4	n/a	n/a	n/a	n/a	n/a	n/a	n/a	n/a
29.01	2.41	vicarious	outcomerating	1	high_cue	low_stim	31.64	Strong	31.64	Strong	1.27	1.27	task-social/outcomerating/task-vicarious_scale.png	n/a	n/a	n/a	n/a	n/a	n/a	n/a	n/a
33.6	0.99	vicarious	cue	2	low_cue	n/a	n/a	n/a	n/a	n/a	n/a	n/a	task-social/cue/runtype-vicarious/scl/l018.png	n/a	n/a	n/a	n/a	n/a	n/a	n/a	n/a
36.0	1.77	vicarious	expectrating	2	low_cue	n/a	7.79	Weak	7.79	Weak	0.53	1.24	task-social/cue/runtype-vicarious/scl/l018.png	n/a	n/a	n/a	n/a	n/a	n/a	n/a	n/a
49.79	5.0	vicarious	stimulus	2	low_cue	med_stim	n/a	n/a	n/a	n/a	n/a	n/a	task-social/stim/runtype-vicarious/vw121t1aiaff_M.mp4	n/a	n/a	n/a	n/a	n/a	n/a	n/a	n/a
59.91	3.68	vicarious	outcomerating	2	low_cue	med_stim	26.36	Moderate	26.36	Moderate	0.53	1.24	task-social/outcomerating/task-vicarious_scale.png	n/a	n/a	n/a	n/a	n/a	n/a	n/a	n/a
65.09	0.99	vicarious	cue	3	high_cue	n/a	n/a	n/a	n/a	n/a	n/a	n/a	task-social/cue/runtype-vicarious/sch/h046.png	n/a	n/a	n/a	n/a	n/a	n/a	n/a	n/a
67.31	1.88	vicarious	expectrating	3	high_cue	n/a	50.94	Strong	50.94	Strong	0.72	1.17	task-social/cue/runtype-vicarious/sch/h046.png	n/a	n/a	n/a	n/a	n/a	n/a	n/a	n/a
73.89	5.0	vicarious	stimulus	3	high_cue	low_stim	n/a	n/a	n/a	n/a	n/a	n/a	task-social/stim/runtype-vicarious/ch092t2aeaff_L.mp4	n/a	n/a	n/a	n/a	n/a	n/a	n/a	n/a
82.41	2.6	vicarious	outcomerating	3	high_cue	low_stim	33.63	Strong	33.63	Strong	0.72	1.17	task-social/outcomerating/task-vicarious_scale.png	n/a	n/a	n/a	n/a	n/a	n/a	n/a	n/a
87.5	0.99	vicarious	cue	4	low_cue	n/a	n/a	n/a	n/a	n/a	n/a	n/a	task-social/cue/runtype-vicarious/scl/l051.png	n/a	n/a	n/a	n/a	n/a	n/a	n/a	n/a
91.0	2.6	vicarious	expectrating	4	low_cue	n/a	23.89	Moderate	23.89	Moderate	0.4	2.2	task-social/cue/runtype-vicarious/scl/l051.png	n/a	n/a	n/a	n/a	n/a	n/a	n/a	n/a
105.99	5.0	vicarious	stimulus	4	low_cue	med_stim	n/a	n/a	n/a	n/a	n/a	n/a	task-social/stim/runtype-vicarious/bn080t1aeaff_M.mp4	n/a	n/a	n/a	n/a	n/a	n/a	n/a	n/a
119.21	2.86	vicarious	outcomerating	4	low_cue	med_stim	17.12	Moderate	17.12	Moderate	0.4	2.2	task-social/outcomerating/task-vicarious_scale.png	n/a	n/a	n/a	n/a	n/a	n/a	n/a	n/a
124.3	0.99	vicarious	cue	5	high_cue	n/a	n/a	n/a	n/a	n/a	n/a	n/a	task-social/cue/runtype-vicarious/sch/h024.png	n/a	n/a	n/a	n/a	n/a	n/a	n/a	n/a
126.0	1.29	vicarious	expectrating	5	high_cue	n/a	33.24	Strong	33.24	Strong	0.25	1.04	task-social/cue/runtype-vicarious/sch/h024.png	n/a	n/a	n/a	n/a	n/a	n/a	n/a	n/a
132.59	5.0	vicarious	stimulus	5	high_cue	high_stim	n/a	n/a	n/a	n/a	n/a	n/a	task-social/stim/runtype-vicarious/bg096t1aeaff_H.mp4	n/a	n/a	n/a	n/a	n/a	n/a	n/a	n/a
145.81	3.28	vicarious	outcomerating	5	high_cue	high_stim	51.34	Strong	51.34	Strong	0.25	1.04	task-social/outcomerating/task-vicarious_scale.png	n/a	n/a	n/a	n/a	n/a	n/a	n/a	n/a
150.39	1.0	vicarious	cue	6	low_cue	n/a	n/a	n/a	n/a	n/a	n/a	n/a	task-social/cue/runtype-vicarious/scl/l019.png	n/a	n/a	n/a	n/a	n/a	n/a	n/a	n/a
153.91	1.52	vicarious	expectrating	6	low_cue	n/a	26.46	Moderate	26.46	Moderate	0.38	1.13	task-social/cue/runtype-vicarious/scl/l019.png	n/a	n/a	n/a	n/a	n/a	n/a	n/a	n/a
161.69	5.0	vicarious	stimulus	6	low_cue	low_stim	n/a	n/a	n/a	n/a	n/a	n/a	task-social/stim/runtype-vicarious/jk103t1aaunaff_L.mp4	n/a	n/a	n/a	n/a	n/a	n/a	n/a	n/a
173.9	2.2	vicarious	outcomerating	6	low_cue	low_stim	16.24	Moderate	16.24	Moderate	0.38	1.13	task-social/outcomerating/task-vicarious_scale.png	n/a	n/a	n/a	n/a	n/a	n/a	n/a	n/a
183.5	0.98	vicarious	cue	7	low_cue	n/a	n/a	n/a	n/a	n/a	n/a	n/a	task-social/cue/runtype-vicarious/scl/l020.png	n/a	n/a	n/a	n/a	n/a	n/a	n/a	n/a
185.7	2.3	vicarious	expectrating	7	low_cue	n/a	5.05	Weak	5.05	Weak	0.55	1.75	task-social/cue/runtype-vicarious/scl/l020.png	n/a	n/a	n/a	n/a	n/a	n/a	n/a	n/a
199.89	5.0	vicarious	stimulus	7	low_cue	high_stim	n/a	n/a	n/a	n/a	n/a	n/a	task-social/stim/runtype-vicarious/ib109t1aiaff_H.mp4	n/a	n/a	n/a	n/a	n/a	n/a	n/a	n/a
213.21	3.37	vicarious	outcomerating	7	low_cue	high_stim	15.82	Moderate	15.82	Moderate	0.55	1.75	task-social/outcomerating/task-vicarious_scale.png	n/a	n/a	n/a	n/a	n/a	n/a	n/a	n/a
223.4	0.98	vicarious	cue	8	low_cue	n/a	n/a	n/a	n/a	n/a	n/a	n/a	task-social/cue/runtype-vicarious/scl/l048.png	n/a	n/a	n/a	n/a	n/a	n/a	n/a	n/a
225.6	1.93	vicarious	expectrating	8	low_cue	n/a	15.32	Moderate	15.32	Moderate	0.65	1.28	task-social/cue/runtype-vicarious/scl/l048.png	n/a	n/a	n/a	n/a	n/a	n/a	n/a	n/a
232.19	5.0	vicarious	stimulus	8	low_cue	low_stim	n/a	n/a	n/a	n/a	n/a	n/a	task-social/stim/runtype-vicarious/vw121t1aeaff_L.mp4	n/a	n/a	n/a	n/a	n/a	n/a	n/a	n/a
245.51	2.92	vicarious	outcomerating	8	low_cue	low_stim	15.32	Moderate	15.32	Moderate	0.65	1.28	task-social/outcomerating/task-vicarious_scale.png	n/a	n/a	n/a	n/a	n/a	n/a	n/a	n/a
259.3	0.99	vicarious	cue	9	high_cue	n/a	n/a	n/a	n/a	n/a	n/a	n/a	task-social/cue/runtype-vicarious/sch/h017.png	n/a	n/a	n/a	n/a	n/a	n/a	n/a	n/a
262.8	3.18	vicarious	expectrating	9	high_cue	n/a	44.67	Strong	44.67	Strong	0.07	3.12	task-social/cue/runtype-vicarious/sch/h017.png	n/a	n/a	n/a	n/a	n/a	n/a	n/a	n/a
277.79	5.0	vicarious	stimulus	9	high_cue	high_stim	n/a	n/a	n/a	n/a	n/a	n/a	task-social/stim/runtype-vicarious/bm049t2aeunaff_H.mp4	n/a	n/a	n/a	n/a	n/a	n/a	n/a	n/a
287.91	1.95	vicarious	outcomerating	9	high_cue	high_stim	22.32	Moderate	22.32	Moderate	0.07	3.12	task-social/outcomerating/task-vicarious_scale.png	n/a	n/a	n/a	n/a	n/a	n/a	n/a	n/a
294.09	0.99	vicarious	cue	10	low_cue	n/a	n/a	n/a	n/a	n/a	n/a	n/a	task-social/cue/runtype-vicarious/scl/l032.png	n/a	n/a	n/a	n/a	n/a	n/a	n/a	n/a
296.49	1.81	vicarious	expectrating	10	low_cue	n/a	33.24	Strong	33.24	Strong	0.53	1.27	task-social/cue/runtype-vicarious/scl/l032.png	n/a	n/a	n/a	n/a	n/a	n/a	n/a	n/a
304.09	5.0	vicarious	stimulus	10	low_cue	high_stim	n/a	n/a	n/a	n/a	n/a	n/a	task-social/stim/runtype-vicarious/jk103t1aaaff_H.mp4	n/a	n/a	n/a	n/a	n/a	n/a	n/a	n/a
312.6	2.47	vicarious	outcomerating	10	low_cue	high_stim	39.45	Strong	39.45	Strong	0.53	1.27	task-social/outcomerating/task-vicarious_scale.png	n/a	n/a	n/a	n/a	n/a	n/a	n/a	n/a
331.09	0.99	vicarious	cue	11	high_cue	n/a	n/a	n/a	n/a	n/a	n/a	n/a	task-social/cue/runtype-vicarious/sch/h016.png	n/a	n/a	n/a	n/a	n/a	n/a	n/a	n/a
333.51	1.9	vicarious	expectrating	11	high_cue	n/a	59.0	Strong	59.0	Strong	0.45	1.45	task-social/cue/runtype-vicarious/sch/h016.png	n/a	n/a	n/a	n/a	n/a	n/a	n/a	n/a
342.79	5.0	vicarious	stimulus	11	high_cue	med_stim	n/a	n/a	n/a	n/a	n/a	n/a	task-social/stim/runtype-vicarious/bg096t2aaaff_M.mp4	n/a	n/a	n/a	n/a	n/a	n/a	n/a	n/a
355.8	1.8	vicarious	outcomerating	11	high_cue	med_stim	40.13	Strong	40.13	Strong	0.45	1.45	task-social/outcomerating/task-vicarious_scale.png	n/a	n/a	n/a	n/a	n/a	n/a	n/a	n/a
369.61	0.98	vicarious	cue	12	high_cue	n/a	n/a	n/a	n/a	n/a	n/a	n/a	task-social/cue/runtype-vicarious/sch/h032.png	n/a	n/a	n/a	n/a	n/a	n/a	n/a	n/a
371.61	1.68	vicarious	expectrating	12	high_cue	n/a	63.33	Strong	63.33	Strong	0.12	1.57	task-social/cue/runtype-vicarious/sch/h032.png	n/a	n/a	n/a	n/a	n/a	n/a	n/a	n/a
384.59	5.0	vicarious	stimulus	12	high_cue	med_stim	n/a	n/a	n/a	n/a	n/a	n/a	task-social/stim/runtype-vicarious/ch092t2aaaff_M.mp4	n/a	n/a	n/a	n/a	n/a	n/a	n/a	n/a
394.81	1.8	vicarious	outcomerating	12	high_cue	med_stim	58.36	Strong	58.36	Strong	0.12	1.57	task-social/outcomerating/task-vicarious_scale.png	n/a	n/a	n/a	n/a	n/a	n/a	n/a	n/a
