onset	duration	run_type	trial_type	trial_index	cue	stimulusintensity	rating_value	rating_glmslabel	rating_value_fillna	rating_glmslabel_fillna	rating_mouseonset	rating_mousedur	stim_file_TODO	pain_onset_ttl1	pain_onset_ttl2	pain_onset_ttl3	pain_onset_ttl4	pain_stimulus_delivery_success	cognitive_correct_response	cognitive_participant_response	cognitive_response_accuracy
4.69	1.0	pain	cue	1	high_cue	n/a	n/a	n/a	n/a	n/a	n/a	n/a	task-social/cue/runtype-pain/sch/h014.png	n/a	n/a	n/a	n/a	n/a	n/a	n/a	n/a
7.11	1.25	pain	expectrating	1	high_cue	n/a	70.55	Very Strong	70.55	Very Strong	0.38	0.87	task-social/cue/runtype-pain/sch/h014.png	n/a	n/a	n/a	n/a	n/a	n/a	n/a	n/a
15.74	11.9	pain	stimulus	1	high_cue	low_stim	n/a	n/a	n/a	n/a	n/a	n/a	n/a	15.74	19.24	24.24	27.64	success	n/a	n/a	n/a
27.1	2.15	pain	outcomerating	1	high_cue	low_stim	70.25	Very Strong	70.25	Very Strong	0.38	0.87	task-social/outcomerating/task-pain_scale.png	n/a	n/a	n/a	n/a	success	n/a	n/a	n/a
32.99	1.0	pain	cue	2	low_cue	n/a	n/a	n/a	n/a	n/a	n/a	n/a	task-social/cue/runtype-pain/scl/l010.png	n/a	n/a	n/a	n/a	n/a	n/a	n/a	n/a
34.79	1.8	pain	expectrating	2	low_cue	n/a	29.14	Strong	29.14	Strong	0.43	1.37	task-social/cue/runtype-pain/scl/l010.png	n/a	n/a	n/a	n/a	n/a	n/a	n/a	n/a
39.91	11.900000000000006	pain	stimulus	2	low_cue	low_stim	n/a	n/a	n/a	n/a	n/a	n/a	n/a	39.91	43.41	48.41	51.81	success	n/a	n/a	n/a
53.09	2.84	pain	outcomerating	2	low_cue	low_stim	32.86	Strong	32.86	Strong	0.43	1.37	task-social/outcomerating/task-pain_scale.png	n/a	n/a	n/a	n/a	success	n/a	n/a	n/a
58.0	1.0	pain	cue	3	low_cue	n/a	n/a	n/a	n/a	n/a	n/a	n/a	task-social/cue/runtype-pain/scl/l053.png	n/a	n/a	n/a	n/a	n/a	n/a	n/a	n/a
60.1	1.29	pain	expectrating	3	low_cue	n/a	57.21	Strong	57.21	Strong	0.33	0.95	task-social/cue/runtype-pain/scl/l053.png	n/a	n/a	n/a	n/a	n/a	n/a	n/a	n/a
66.72	12.36	pain	stimulus	3	low_cue	med_stim	n/a	n/a	n/a	n/a	n/a	n/a	n/a	66.72	70.48	75.48	79.09	success	n/a	n/a	n/a
78.29	2.98	pain	outcomerating	3	low_cue	med_stim	49.87	Strong	49.87	Strong	0.33	0.95	task-social/outcomerating/task-pain_scale.png	n/a	n/a	n/a	n/a	success	n/a	n/a	n/a
83.39	1.0	pain	cue	4	low_cue	n/a	n/a	n/a	n/a	n/a	n/a	n/a	task-social/cue/runtype-pain/scl/l034.png	n/a	n/a	n/a	n/a	n/a	n/a	n/a	n/a
86.49	1.57	pain	expectrating	4	low_cue	n/a	9.95	Weak	9.95	Weak	0.4	1.17	task-social/cue/runtype-pain/scl/l034.png	n/a	n/a	n/a	n/a	n/a	n/a	n/a	n/a
99.92	12.819999999999993	pain	stimulus	4	low_cue	high_stim	n/a	n/a	n/a	n/a	n/a	n/a	n/a	99.92	103.93	108.93	112.74	success	n/a	n/a	n/a
111.2	2.39	pain	outcomerating	4	low_cue	high_stim	33.82	Strong	33.82	Strong	0.4	1.17	task-social/outcomerating/task-pain_scale.png	n/a	n/a	n/a	n/a	success	n/a	n/a	n/a
115.78	1.0	pain	cue	5	high_cue	n/a	n/a	n/a	n/a	n/a	n/a	n/a	task-social/cue/runtype-pain/sch/h053.png	n/a	n/a	n/a	n/a	n/a	n/a	n/a	n/a
118.2	1.77	pain	expectrating	5	high_cue	n/a	65.9	Very Strong	65.9	Very Strong	0.4	1.37	task-social/cue/runtype-pain/sch/h053.png	n/a	n/a	n/a	n/a	n/a	n/a	n/a	n/a
123.61	12.36999999999999	pain	stimulus	5	high_cue	med_stim	n/a	n/a	n/a	n/a	n/a	n/a	n/a	123.61	127.37	132.37	135.98	success	n/a	n/a	n/a
134.91	2.63	pain	outcomerating	5	high_cue	med_stim	54.46	Strong	54.46	Strong	0.4	1.37	task-social/outcomerating/task-pain_scale.png	n/a	n/a	n/a	n/a	success	n/a	n/a	n/a
139.59	1.0	pain	cue	6	high_cue	n/a	n/a	n/a	n/a	n/a	n/a	n/a	task-social/cue/runtype-pain/sch/h009.png	n/a	n/a	n/a	n/a	n/a	n/a	n/a	n/a
141.69	2.24	pain	expectrating	6	high_cue	n/a	57.26	Strong	57.26	Strong	0.48	1.76	task-social/cue/runtype-pain/sch/h009.png	n/a	n/a	n/a	n/a	n/a	n/a	n/a	n/a
151.22	12.819999999999993	pain	stimulus	6	high_cue	high_stim	n/a	n/a	n/a	n/a	n/a	n/a	n/a	151.22	155.23	160.23	164.04	success	n/a	n/a	n/a
161.6	3.77	pain	outcomerating	6	high_cue	high_stim	60.97	Strong	60.97	Strong	0.48	1.76	task-social/outcomerating/task-pain_scale.png	n/a	n/a	n/a	n/a	success	n/a	n/a	n/a
167.59	1.0	pain	cue	7	high_cue	n/a	n/a	n/a	n/a	n/a	n/a	n/a	task-social/cue/runtype-pain/sch/h001.png	n/a	n/a	n/a	n/a	n/a	n/a	n/a	n/a
169.69	2.52	pain	expectrating	7	high_cue	n/a	71.2	Very Strong	71.2	Very Strong	0.1	2.42	task-social/cue/runtype-pain/sch/h001.png	n/a	n/a	n/a	n/a	n/a	n/a	n/a	n/a
180.53	11.909999999999997	pain	stimulus	7	high_cue	low_stim	n/a	n/a	n/a	n/a	n/a	n/a	n/a	180.53	184.03	189.03	192.43	success	n/a	n/a	n/a
201.7	2.67	pain	outcomerating	7	high_cue	low_stim	53.41	Strong	53.41	Strong	0.1	2.42	task-social/outcomerating/task-pain_scale.png	n/a	n/a	n/a	n/a	success	n/a	n/a	n/a
213.39	1.0	pain	cue	8	high_cue	n/a	n/a	n/a	n/a	n/a	n/a	n/a	task-social/cue/runtype-pain/sch/h044.png	n/a	n/a	n/a	n/a	n/a	n/a	n/a	n/a
215.49	1.65	pain	expectrating	8	high_cue	n/a	77.25	Very Strong	77.25	Very Strong	0.3	1.35	task-social/cue/runtype-pain/sch/h044.png	n/a	n/a	n/a	n/a	n/a	n/a	n/a	n/a
224.63	12.819999999999993	pain	stimulus	8	high_cue	high_stim	n/a	n/a	n/a	n/a	n/a	n/a	n/a	224.63	228.64	233.64	237.45	success	n/a	n/a	n/a
239.2	2.4	pain	outcomerating	8	high_cue	high_stim	74.91	Very Strong	74.91	Very Strong	0.3	1.35	task-social/outcomerating/task-pain_scale.png	n/a	n/a	n/a	n/a	success	n/a	n/a	n/a
244.1	0.98	pain	cue	9	low_cue	n/a	n/a	n/a	n/a	n/a	n/a	n/a	task-social/cue/runtype-pain/scl/l051.png	n/a	n/a	n/a	n/a	n/a	n/a	n/a	n/a
247.2	1.45	pain	expectrating	9	low_cue	n/a	23.94	Moderate	23.94	Moderate	0.32	1.13	task-social/cue/runtype-pain/scl/l051.png	n/a	n/a	n/a	n/a	n/a	n/a	n/a	n/a
255.81	11.910000000000025	pain	stimulus	9	low_cue	low_stim	n/a	n/a	n/a	n/a	n/a	n/a	n/a	255.81	259.31	264.31	267.71	success	n/a	n/a	n/a
269.09	1.93	pain	outcomerating	9	low_cue	low_stim	32.22	Strong	32.22	Strong	0.32	1.13	task-social/outcomerating/task-pain_scale.png	n/a	n/a	n/a	n/a	success	n/a	n/a	n/a
275.09	1.0	pain	cue	10	low_cue	n/a	n/a	n/a	n/a	n/a	n/a	n/a	task-social/cue/runtype-pain/scl/l019.png	n/a	n/a	n/a	n/a	n/a	n/a	n/a	n/a
278.19	1.79	pain	expectrating	10	low_cue	n/a	16.17	Moderate	16.17	Moderate	0.38	1.41	task-social/cue/runtype-pain/scl/l019.png	n/a	n/a	n/a	n/a	n/a	n/a	n/a	n/a
283.31	12.370000000000005	pain	stimulus	10	low_cue	med_stim	n/a	n/a	n/a	n/a	n/a	n/a	n/a	283.31	287.07	292.07	295.68	success	n/a	n/a	n/a
296.5	1.87	pain	outcomerating	10	low_cue	med_stim	33.56	Strong	33.56	Strong	0.38	1.41	task-social/outcomerating/task-pain_scale.png	n/a	n/a	n/a	n/a	success	n/a	n/a	n/a
317.59	1.0	pain	cue	11	low_cue	n/a	n/a	n/a	n/a	n/a	n/a	n/a	task-social/cue/runtype-pain/scl/l052.png	n/a	n/a	n/a	n/a	n/a	n/a	n/a	n/a
319.99	2.81	pain	expectrating	11	low_cue	n/a	18.43	Moderate	18.43	Moderate	0.35	2.46	task-social/cue/runtype-pain/scl/l052.png	n/a	n/a	n/a	n/a	n/a	n/a	n/a	n/a
329.63	12.829999999999984	pain	stimulus	11	low_cue	high_stim	n/a	n/a	n/a	n/a	n/a	n/a	n/a	329.63	333.64	338.64	342.45	success	n/a	n/a	n/a
341.3	2.7	pain	outcomerating	11	low_cue	high_stim	26.46	Moderate	26.46	Moderate	0.35	2.46	task-social/outcomerating/task-pain_scale.png	n/a	n/a	n/a	n/a	success	n/a	n/a	n/a
362.29	1.0	pain	cue	12	high_cue	n/a	n/a	n/a	n/a	n/a	n/a	n/a	task-social/cue/runtype-pain/sch/h039.png	n/a	n/a	n/a	n/a	n/a	n/a	n/a	n/a
365.39	1.81	pain	expectrating	12	high_cue	n/a	80.76	Very Strong	80.76	Very Strong	0.48	1.32	task-social/cue/runtype-pain/sch/h039.png	n/a	n/a	n/a	n/a	n/a	n/a	n/a	n/a
375.53	12.360000000000014	pain	stimulus	12	high_cue	med_stim	n/a	n/a	n/a	n/a	n/a	n/a	n/a	375.53	379.29	384.29	387.9	success	n/a	n/a	n/a
394.09	3.33	pain	outcomerating	12	high_cue	med_stim	61.06	Strong	61.06	Strong	0.48	1.32	task-social/outcomerating/task-pain_scale.png	n/a	n/a	n/a	n/a	success	n/a	n/a	n/a
