onset	duration	trial_type	response_x	response_y	situation	context	modality	stim_file
7.827	15.343	narrative_presentation	n/a	n/a	Necessity of sacrificing loved ones	town	Audio	task-narratives/Narrative8Situation1.mp3
23.17	3.4	rating_feeling	891	490	Necessity of sacrificing loved ones	town	Audio	n/a
24.637	1.933	feeling_mouse_trajectory	891	490	Necessity of sacrificing loved ones	town	Audio	n/a
27.221	0.123	rating_expectation	960	707	Necessity of sacrificing loved ones	town	Audio	n/a
27.371	-0.027	expectation_mouse_trajectory	960	707	Necessity of sacrificing loved ones	town	Audio	n/a
34.54	8.775	narrative_presentation	n/a	n/a	Abduction	town	Audio	task-narratives/Narrative8Situation2.mp3
43.314	1.651	rating_feeling	745	529	Abduction	town	Audio	n/a
43.764	1.201	feeling_mouse_trajectory	745	529	Abduction	town	Audio	n/a
47.355	2.401	rating_expectation	698	510	Abduction	town	Audio	n/a
47.821	1.935	expectation_mouse_trajectory	698	510	Abduction	town	Audio	n/a
55.444	22.166	narrative_presentation	n/a	n/a	Adultery	town	Audio	task-narratives/Narrative8Situation3.mp3
77.609	2.871	rating_feeling	729	479	Adultery	town	Audio	n/a
78.042	2.437	feeling_mouse_trajectory	729	479	Adultery	town	Audio	n/a
81.654	2.42	rating_expectation	710	483	Adultery	town	Audio	n/a
82.054	2.02	expectation_mouse_trajectory	710	483	Adultery	town	Audio	n/a
88.756	12.622	narrative_presentation	n/a	n/a	Obtaining	city	Audio	task-narratives/Narrative8Situation4.mp3
101.378	2.052	rating_feeling	729	500	Obtaining	city	Audio	n/a
102.045	1.385	feeling_mouse_trajectory	729	500	Obtaining	city	Audio	n/a
105.41	1.651	rating_expectation	706	477	Obtaining	city	Audio	n/a
105.693	1.368	expectation_mouse_trajectory	706	477	Obtaining	city	Audio	n/a
111.526	6.631	narrative_presentation	n/a	n/a	Supplication	city	Audio	task-narratives/Narrative8Situation5.mp3
118.157	2.256	rating_feeling	737	514	Supplication	city	Audio	n/a
118.707	1.706	feeling_mouse_trajectory	737	514	Supplication	city	Audio	n/a
122.205	2.421	rating_expectation	715	494	Supplication	city	Audio	n/a
122.538	2.088	expectation_mouse_trajectory	715	494	Supplication	city	Audio	n/a
128.339	6.013	narrative_presentation	n/a	n/a	Rivalry of kin	city	Audio	task-narratives/Narrative8Situation6.mp3
134.352	2.651	rating_feeling	737	515	Rivalry of kin	city	Audio	n/a
134.835	2.168	feeling_mouse_trajectory	737	515	Rivalry of kin	city	Audio	n/a
138.389	2.835	rating_expectation	736	513	Rivalry of kin	city	Audio	n/a
138.706	2.518	expectation_mouse_trajectory	736	513	Rivalry of kin	city	Audio	n/a
145.46	10.787	narrative_presentation	n/a	n/a	Recovery of a lost one	beach	Audio	task-narratives/Narrative8Situation7.mp3
156.247	3.058	rating_feeling	708	476	Recovery of a lost one	beach	Audio	n/a
156.63	2.675	feeling_mouse_trajectory	708	476	Recovery of a lost one	beach	Audio	n/a
160.28	1.973	rating_expectation	678	464	Recovery of a lost one	beach	Audio	n/a
160.663	1.59	expectation_mouse_trajectory	678	464	Recovery of a lost one	beach	Audio	n/a
167.351	11.278	narrative_presentation	n/a	n/a	Rivalry of superior versus inferior	beach	Audio	task-narratives/Narrative8Situation8.mp3
178.629	2.885	rating_feeling	723	474	Rivalry of superior versus inferior	beach	Audio	n/a
178.996	2.518	feeling_mouse_trajectory	723	474	Rivalry of superior versus inferior	beach	Audio	n/a
182.655	1.918	rating_expectation	682	487	Rivalry of superior versus inferior	beach	Audio	n/a
182.938	1.635	expectation_mouse_trajectory	682	487	Rivalry of superior versus inferior	beach	Audio	n/a
189.71	10.119	narrative_presentation	n/a	n/a	Slaying of kin unrecognized	beach	Audio	task-narratives/Narrative8Situation9.mp3
199.829	3.859	rating_feeling	1008	507	Slaying of kin unrecognized	beach	Audio	n/a
200.146	3.542	feeling_mouse_trajectory	1008	507	Slaying of kin unrecognized	beach	Audio	n/a
203.863	2.99	rating_expectation	1055	551	Slaying of kin unrecognized	beach	Audio	n/a
204.363	2.49	expectation_mouse_trajectory	1055	551	Slaying of kin unrecognized	beach	Audio	n/a
209.934	54.277	narrative_presentation	n/a	n/a	Deliverance	prison	Audio	task-narratives/Narrative7Situation1.mp3
264.211	2.618	rating_feeling	718	531	Deliverance	prison	Audio	n/a
264.928	1.901	feeling_mouse_trajectory	718	531	Deliverance	prison	Audio	n/a
268.237	2.151	rating_expectation	715	489	Deliverance	prison	Audio	n/a
268.604	1.785	expectation_mouse_trajectory	715	489	Deliverance	prison	Audio	n/a
275.292	5.955	narrative_presentation	n/a	n/a	Adultery	prison	Audio	task-narratives/Narrative7Situation2.mp3
281.247	2.985	rating_feeling	758	527	Adultery	prison	Audio	n/a
282.081	2.152	feeling_mouse_trajectory	758	527	Adultery	prison	Audio	n/a
285.276	1.801	rating_expectation	717	503	Adultery	prison	Audio	n/a
285.676	1.401	expectation_mouse_trajectory	717	503	Adultery	prison	Audio	n/a
297.334	7.445	narrative_presentation	n/a	n/a	Pursuit	prison	Audio	task-narratives/Narrative7Situation3.mp3
304.778	2.953	rating_feeling	1025	536	Pursuit	prison	Audio	n/a
305.395	2.336	feeling_mouse_trajectory	1025	536	Pursuit	prison	Audio	n/a
308.819	2.285	rating_expectation	1036	508	Pursuit	prison	Audio	n/a
309.336	1.768	expectation_mouse_trajectory	1036	508	Pursuit	prison	Audio	n/a
315.874	11.508	narrative_presentation	n/a	n/a	Conflict with a god	park	Audio	task-narratives/Narrative7Situation4.mp3
327.382	2.535	rating_feeling	1051	532	Conflict with a god	park	Audio	n/a
327.932	1.985	feeling_mouse_trajectory	1051	532	Conflict with a god	park	Audio	n/a
331.41	2.401	rating_expectation	1102	541	Conflict with a god	park	Audio	n/a
331.51	2.301	expectation_mouse_trajectory	1102	541	Conflict with a god	park	Audio	n/a
340.483	7.981	narrative_presentation	n/a	n/a	Recovery of a lost one	park	Audio	task-narratives/Narrative7Situation5.mp3
348.464	1.653	rating_feeling	787	595	Recovery of a lost one	park	Audio	n/a
348.731	1.386	feeling_mouse_trajectory	787	595	Recovery of a lost one	park	Audio	n/a
352.502	2.485	rating_expectation	823	574	Recovery of a lost one	park	Audio	n/a
352.619	2.368	expectation_mouse_trajectory	823	574	Recovery of a lost one	park	Audio	n/a
359.556	8.782	narrative_presentation	n/a	n/a	Supplication	park	Audio	task-narratives/Narrative7Situation6.mp3
368.338	2.368	rating_feeling	916	571	Supplication	park	Audio	n/a
368.905	1.801	feeling_mouse_trajectory	916	571	Supplication	park	Audio	n/a
372.376	1.968	rating_expectation	883	574	Supplication	park	Audio	n/a
372.759	1.585	expectation_mouse_trajectory	883	574	Supplication	park	Audio	n/a
381.431	16.656	narrative_presentation	n/a	n/a	Involuntary crimes of love	hospital	Audio	task-narratives/Narrative7Situation7.mp3
398.087	2.668	rating_feeling	855	543	Involuntary crimes of love	hospital	Audio	n/a
398.537	2.218	feeling_mouse_trajectory	855	543	Involuntary crimes of love	hospital	Audio	n/a
402.12	1.884	rating_expectation	796	595	Involuntary crimes of love	hospital	Audio	n/a
402.57	1.434	expectation_mouse_trajectory	796	595	Involuntary crimes of love	hospital	Audio	n/a
408.175	8.789	narrative_presentation	n/a	n/a	An enemy loved	hospital	Audio	task-narratives/Narrative7Situation8.mp3
416.964	1.701	rating_feeling	838	567	An enemy loved	hospital	Audio	n/a
417.38	1.284	feeling_mouse_trajectory	838	567	An enemy loved	hospital	Audio	n/a
420.994	1.327	rating_expectation	839	557	An enemy loved	hospital	Audio	n/a
421.327	0.993	expectation_mouse_trajectory	839	557	An enemy loved	hospital	Audio	n/a
427.049	7.982	narrative_presentation	n/a	n/a	Ambition	hospital	Audio	task-narratives/Narrative7Situation9.mp3
435.031	1.937	rating_feeling	876	587	Ambition	hospital	Audio	n/a
435.698	1.271	feeling_mouse_trajectory	876	587	Ambition	hospital	Audio	n/a
439.069	1.786	rating_expectation	849	559	Ambition	hospital	Audio	n/a
439.453	1.403	expectation_mouse_trajectory	849	559	Ambition	hospital	Audio	n/a
