onset	duration	trial_type	response_x	response_y	situation	context	modality	stim_file
4.859	22.446	narrative_presentation	n/a	n/a	Slaying of kin unrecognized	town	Text	task-narratives/Narrative4Situation1.txt
27.305	2.334	rating_feeling	889	573	Slaying of kin unrecognized	town	Text	task-narratives/Narrative4Situation1.txt
28.255	1.384	feeling_mouse_trajectory	889	573	Slaying of kin unrecognized	town	Text	task-narratives/Narrative4Situation1.txt
31.339	2.318	rating_expectation	861	602	Slaying of kin unrecognized	town	Text	task-narratives/Narrative4Situation1.txt
31.672	1.985	expectation_mouse_trajectory	861	602	Slaying of kin unrecognized	town	Text	task-narratives/Narrative4Situation1.txt
40.422	24.815	narrative_presentation	n/a	n/a	Adultery	swamp	Text	task-narratives/Narrative4Situation2.txt
65.237	2.151	rating_feeling	889	573	Adultery	swamp	Text	task-narratives/Narrative4Situation2.txt
65.971	1.418	feeling_mouse_trajectory	889	573	Adultery	swamp	Text	task-narratives/Narrative4Situation2.txt
69.269	2.385	rating_expectation	861	602	Adultery	swamp	Text	task-narratives/Narrative4Situation2.txt
69.569	2.085	expectation_mouse_trajectory	861	602	Adultery	swamp	Text	task-narratives/Narrative4Situation2.txt
75.335	21.112	narrative_presentation	n/a	n/a	Revolt	town	Text	task-narratives/Narrative4Situation3.txt
96.447	2.106	rating_feeling	889	573	Revolt	town	Text	task-narratives/Narrative4Situation3.txt
97.18	1.373	feeling_mouse_trajectory	889	573	Revolt	town	Text	task-narratives/Narrative4Situation3.txt
100.468	2.272	rating_expectation	861	602	Revolt	town	Text	task-narratives/Narrative4Situation3.txt
100.502	2.238	expectation_mouse_trajectory	861	602	Revolt	town	Text	task-narratives/Narrative4Situation3.txt
105.563	21.112	narrative_presentation	n/a	n/a	Fatal imprudence	hospital	Text	task-narratives/Narrative4Situation4.txt
126.675	2.468	rating_feeling	889	573	Fatal imprudence	hospital	Text	task-narratives/Narrative4Situation4.txt
127.425	1.718	feeling_mouse_trajectory	889	573	Fatal imprudence	hospital	Text	task-narratives/Narrative4Situation4.txt
130.692	2.301	rating_expectation	861	602	Fatal imprudence	hospital	Text	task-narratives/Narrative4Situation4.txt
131.192	1.801	expectation_mouse_trajectory	861	602	Fatal imprudence	hospital	Text	task-narratives/Narrative4Situation4.txt
135.774	25.8	narrative_presentation	n/a	n/a	Deliverance	city	Text	task-narratives/Narrative4Situation5.txt
161.575	2.935	rating_feeling	889	573	Deliverance	city	Text	task-narratives/Narrative4Situation5.txt
162.142	2.369	feeling_mouse_trajectory	889	573	Deliverance	city	Text	task-narratives/Narrative4Situation5.txt
165.605	2.018	rating_expectation	861	602	Deliverance	city	Text	task-narratives/Narrative4Situation5.txt
165.971	1.651	expectation_mouse_trajectory	861	602	Deliverance	city	Text	task-narratives/Narrative4Situation5.txt
170.671	23.451	narrative_presentation	n/a	n/a	Necessity of sacrificing loved ones	hospital	Text	task-narratives/Narrative4Situation6.txt
194.121	2.687	rating_feeling	889	573	Necessity of sacrificing loved ones	hospital	Text	task-narratives/Narrative4Situation6.txt
194.788	2.02	feeling_mouse_trajectory	889	573	Necessity of sacrificing loved ones	hospital	Text	task-narratives/Narrative4Situation6.txt
198.152	1.885	rating_expectation	861	602	Necessity of sacrificing loved ones	hospital	Text	task-narratives/Narrative4Situation6.txt
198.318	1.719	expectation_mouse_trajectory	861	602	Necessity of sacrificing loved ones	hospital	Text	task-narratives/Narrative4Situation6.txt
203.216	19.094	narrative_presentation	n/a	n/a	Loss of loved one	forest	Text	task-narratives/Narrative4Situation7.txt
222.31	2.31	rating_feeling	889	573	Loss of loved one	forest	Text	task-narratives/Narrative4Situation7.txt
223.044	1.576	feeling_mouse_trajectory	889	573	Loss of loved one	forest	Text	task-narratives/Narrative4Situation7.txt
226.327	1.958	rating_expectation	861	602	Loss of loved one	forest	Text	task-narratives/Narrative4Situation7.txt
226.694	1.592	expectation_mouse_trajectory	861	602	Loss of loved one	forest	Text	task-narratives/Narrative4Situation7.txt
231.41	38.534	narrative_presentation	n/a	n/a	Crimes of love	prison	Text	task-narratives/Narrative4Situation8.txt
269.944	2.792	rating_feeling	889	573	Crimes of love	prison	Text	task-narratives/Narrative4Situation8.txt
270.878	1.858	feeling_mouse_trajectory	889	573	Crimes of love	prison	Text	task-narratives/Narrative4Situation8.txt
273.962	1.957	rating_expectation	861	602	Crimes of love	prison	Text	task-narratives/Narrative4Situation8.txt
274.546	1.374	expectation_mouse_trajectory	861	602	Crimes of love	prison	Text	task-narratives/Narrative4Situation8.txt
283.046	12.391	narrative_presentation	n/a	n/a	Discovery of dishonour of loved one	forest	Text	task-narratives/Narrative4Situation9.txt
295.437	2.001	rating_feeling	889	573	Discovery of dishonour of loved one	forest	Text	task-narratives/Narrative4Situation9.txt
295.904	1.535	feeling_mouse_trajectory	889	573	Discovery of dishonour of loved one	forest	Text	task-narratives/Narrative4Situation9.txt
299.455	2.402	rating_expectation	861	602	Discovery of dishonour of loved one	forest	Text	task-narratives/Narrative4Situation9.txt
299.772	2.085	expectation_mouse_trajectory	861	602	Discovery of dishonour of loved one	forest	Text	task-narratives/Narrative4Situation9.txt
309.539	32.165	narrative_presentation	n/a	n/a	Slaying of kin unrecognized	town	Text	task-narratives/Narrative3Situation1.txt
341.704	1.734	rating_feeling	889	573	Slaying of kin unrecognized	town	Text	task-narratives/Narrative3Situation1.txt
342.304	1.134	feeling_mouse_trajectory	889	573	Slaying of kin unrecognized	town	Text	task-narratives/Narrative3Situation1.txt
345.722	2.301	rating_expectation	861	602	Slaying of kin unrecognized	town	Text	task-narratives/Narrative3Situation1.txt
345.989	2.035	expectation_mouse_trajectory	861	602	Slaying of kin unrecognized	town	Text	task-narratives/Narrative3Situation1.txt
353.789	17.094	narrative_presentation	n/a	n/a	Adultery	swamp	Text	task-narratives/Narrative3Situation2.txt
370.883	1.671	rating_feeling	889	573	Adultery	swamp	Text	task-narratives/Narrative3Situation2.txt
371.583	0.971	feeling_mouse_trajectory	889	573	Adultery	swamp	Text	task-narratives/Narrative3Situation2.txt
374.901	1.436	rating_expectation	861	602	Adultery	swamp	Text	task-narratives/Narrative3Situation2.txt
375.301	1.036	expectation_mouse_trajectory	861	602	Adultery	swamp	Text	task-narratives/Narrative3Situation2.txt
380.966	10.391	narrative_presentation	n/a	n/a	Revolt	town	Text	task-narratives/Narrative3Situation3.txt
391.357	1.468	rating_feeling	889	573	Revolt	town	Text	task-narratives/Narrative3Situation3.txt
391.823	1.001	feeling_mouse_trajectory	889	573	Revolt	town	Text	task-narratives/Narrative3Situation3.txt
395.374	1.834	rating_expectation	861	602	Revolt	town	Text	task-narratives/Narrative3Situation3.txt
395.807	1.401	expectation_mouse_trajectory	861	602	Revolt	town	Text	task-narratives/Narrative3Situation3.txt
400.44	28.147	narrative_presentation	n/a	n/a	Fatal imprudence	hospital	Text	task-narratives/Narrative3Situation4.txt
428.587	2.318	rating_feeling	889	573	Fatal imprudence	hospital	Text	task-narratives/Narrative3Situation4.txt
429.204	1.701	feeling_mouse_trajectory	889	573	Fatal imprudence	hospital	Text	task-narratives/Narrative3Situation4.txt
432.604	1.951	rating_expectation	861	602	Fatal imprudence	hospital	Text	task-narratives/Narrative3Situation4.txt
433.121	1.434	expectation_mouse_trajectory	861	602	Fatal imprudence	hospital	Text	task-narratives/Narrative3Situation4.txt
439.671	15.076	narrative_presentation	n/a	n/a	Deliverance	city	Text	task-narratives/Narrative3Situation5.txt
454.747	1.956	rating_feeling	889	573	Deliverance	city	Text	task-narratives/Narrative3Situation5.txt
455.263	1.439	feeling_mouse_trajectory	889	573	Deliverance	city	Text	task-narratives/Narrative3Situation5.txt
458.768	1.838	rating_expectation	861	602	Deliverance	city	Text	task-narratives/Narrative3Situation5.txt
459.135	1.471	expectation_mouse_trajectory	861	602	Deliverance	city	Text	task-narratives/Narrative3Situation5.txt
465.831	15.075	narrative_presentation	n/a	n/a	Necessity of sacrificing loved ones	hospital	Text	task-narratives/Narrative3Situation6.txt
480.906	1.784	rating_feeling	889	573	Necessity of sacrificing loved ones	hospital	Text	task-narratives/Narrative3Situation6.txt
481.723	0.967	feeling_mouse_trajectory	889	573	Necessity of sacrificing loved ones	hospital	Text	task-narratives/Narrative3Situation6.txt
484.924	1.895	rating_expectation	861	602	Necessity of sacrificing loved ones	hospital	Text	task-narratives/Narrative3Situation6.txt
485.24	1.578	expectation_mouse_trajectory	861	602	Necessity of sacrificing loved ones	hospital	Text	task-narratives/Narrative3Situation6.txt
492.991	36.85	narrative_presentation	n/a	n/a	Loss of loved one	forest	Text	task-narratives/Narrative3Situation7.txt
529.841	2.501	rating_feeling	889	573	Loss of loved one	forest	Text	task-narratives/Narrative3Situation7.txt
530.424	1.918	feeling_mouse_trajectory	889	573	Loss of loved one	forest	Text	task-narratives/Narrative3Situation7.txt
533.858	2.226	rating_expectation	861	602	Loss of loved one	forest	Text	task-narratives/Narrative3Situation7.txt
534.392	1.693	expectation_mouse_trajectory	861	602	Loss of loved one	forest	Text	task-narratives/Narrative3Situation7.txt
539.925	9.712	narrative_presentation	n/a	n/a	Crimes of love	prison	Text	task-narratives/Narrative3Situation8.txt
549.637	2.387	rating_feeling	889	573	Crimes of love	prison	Text	task-narratives/Narrative3Situation8.txt
550.337	1.687	feeling_mouse_trajectory	889	573	Crimes of love	prison	Text	task-narratives/Narrative3Situation8.txt
553.668	2.536	rating_expectation	861	602	Crimes of love	prison	Text	task-narratives/Narrative3Situation8.txt
554.018	2.186	expectation_mouse_trajectory	861	602	Crimes of love	prison	Text	task-narratives/Narrative3Situation8.txt
558.732	27.481	narrative_presentation	n/a	n/a	Discovery of dishonour of loved one	forest	Text	task-narratives/Narrative3Situation9.txt
586.213	1.874	rating_feeling	889	573	Discovery of dishonour of loved one	forest	Text	task-narratives/Narrative3Situation9.txt
586.746	1.34	feeling_mouse_trajectory	889	573	Discovery of dishonour of loved one	forest	Text	task-narratives/Narrative3Situation9.txt
590.235	2.672	rating_expectation	861	602	Discovery of dishonour of loved one	forest	Text	task-narratives/Narrative3Situation9.txt
590.618	2.289	expectation_mouse_trajectory	861	602	Discovery of dishonour of loved one	forest	Text	task-narratives/Narrative3Situation9.txt
