onset	duration	run_type	trial_type	trial_index	cue	stimulusintensity	rating_value	rating_glmslabel	rating_value_fillna	rating_glmslabel_fillna	rating_mouseonset	rating_mousedur	stim_file_TODO	pain_onset_ttl1	pain_onset_ttl2	pain_onset_ttl3	pain_onset_ttl4	pain_stimulus_delivery_success	cognitive_correct_response	cognitive_participant_response	cognitive_response_accuracy
4.69	1.48	pain	cue	1	high_cue	n/a	n/a	n/a	n/a	n/a	n/a	n/a	task-social/cue/runtype-pain/sch/h027.png	n/a	n/a	n/a	n/a	n/a	n/a	n/a	n/a
7.12	1.46	pain	expectrating	1	high_cue	n/a	40.13	Strong	40.13	Strong	0.05	1.41	task-social/cue/runtype-pain/sch/h027.png	n/a	n/a	n/a	n/a	n/a	n/a	n/a	n/a
19.95	11.91	pain	stimulus	1	high_cue	low_stim	n/a	n/a	n/a	n/a	n/a	n/a	n/a	19.95	23.45	28.45	31.85	success	n/a	n/a	n/a
31.3	2.0	pain	outcomerating	1	high_cue	low_stim	43.83	Strong	43.83	Strong	0.05	1.41	task-social/outcomerating/task-pain_scale.png	n/a	n/a	n/a	n/a	success	n/a	n/a	n/a
37.2	1.45	pain	cue	2	low_cue	n/a	n/a	n/a	n/a	n/a	n/a	n/a	task-social/cue/runtype-pain/scl/l029.png	n/a	n/a	n/a	n/a	n/a	n/a	n/a	n/a
39.0	2.8	pain	expectrating	2	low_cue	n/a	45.33	Strong	45.33	Strong	0.63	2.17	task-social/cue/runtype-pain/scl/l029.png	n/a	n/a	n/a	n/a	n/a	n/a	n/a	n/a
44.13	11.909999999999997	pain	stimulus	2	low_cue	low_stim	n/a	n/a	n/a	n/a	n/a	n/a	n/a	44.13	47.63	52.63	56.03	success	n/a	n/a	n/a
57.29	1.95	pain	outcomerating	2	low_cue	low_stim	37.51	Strong	37.51	Strong	0.63	2.17	task-social/outcomerating/task-pain_scale.png	n/a	n/a	n/a	n/a	success	n/a	n/a	n/a
62.19	1.6	pain	cue	3	low_cue	n/a	n/a	n/a	n/a	n/a	n/a	n/a	task-social/cue/runtype-pain/scl/l055.png	n/a	n/a	n/a	n/a	n/a	n/a	n/a	n/a
64.29	2.72	pain	expectrating	3	low_cue	n/a	52.94	Strong	52.94	Strong	0.47	2.25	task-social/cue/runtype-pain/scl/l055.png	n/a	n/a	n/a	n/a	n/a	n/a	n/a	n/a
75.14	12.370000000000005	pain	stimulus	3	low_cue	med_stim	n/a	n/a	n/a	n/a	n/a	n/a	n/a	75.14	78.9	83.9	87.51	success	n/a	n/a	n/a
86.7	1.82	pain	outcomerating	3	low_cue	med_stim	55.12	Strong	55.12	Strong	0.47	2.25	task-social/outcomerating/task-pain_scale.png	n/a	n/a	n/a	n/a	success	n/a	n/a	n/a
91.79	1.0	pain	cue	4	low_cue	n/a	n/a	n/a	n/a	n/a	n/a	n/a	task-social/cue/runtype-pain/scl/l048.png	n/a	n/a	n/a	n/a	n/a	n/a	n/a	n/a
94.9	2.67	pain	expectrating	4	low_cue	n/a	57.26	Strong	57.26	Strong	0.05	2.62	task-social/cue/runtype-pain/scl/l048.png	n/a	n/a	n/a	n/a	n/a	n/a	n/a	n/a
104.15	12.819999999999993	pain	stimulus	4	low_cue	high_stim	n/a	n/a	n/a	n/a	n/a	n/a	n/a	104.15	108.16	113.16	116.97	success	n/a	n/a	n/a
115.39	2.85	pain	outcomerating	4	low_cue	high_stim	42.06	Strong	42.06	Strong	0.05	2.62	task-social/outcomerating/task-pain_scale.png	n/a	n/a	n/a	n/a	success	n/a	n/a	n/a
120.1	1.6	pain	cue	5	high_cue	n/a	n/a	n/a	n/a	n/a	n/a	n/a	task-social/cue/runtype-pain/sch/h011.png	n/a	n/a	n/a	n/a	n/a	n/a	n/a	n/a
122.5	1.62	pain	expectrating	5	high_cue	n/a	73.74	Very Strong	73.74	Very Strong	0.12	1.5	task-social/cue/runtype-pain/sch/h011.png	n/a	n/a	n/a	n/a	n/a	n/a	n/a	n/a
132.14	12.370000000000005	pain	stimulus	5	high_cue	med_stim	n/a	n/a	n/a	n/a	n/a	n/a	n/a	132.14	135.9	140.9	144.51	success	n/a	n/a	n/a
144.69	1.97	pain	outcomerating	5	high_cue	med_stim	55.1	Strong	55.1	Strong	0.12	1.5	task-social/outcomerating/task-pain_scale.png	n/a	n/a	n/a	n/a	success	n/a	n/a	n/a
149.29	1.55	pain	cue	6	high_cue	n/a	n/a	n/a	n/a	n/a	n/a	n/a	task-social/cue/runtype-pain/sch/h041.png	n/a	n/a	n/a	n/a	n/a	n/a	n/a	n/a
151.39	2.39	pain	expectrating	6	high_cue	n/a	61.64	Strong	61.64	Strong	0.98	1.4	task-social/cue/runtype-pain/sch/h041.png	n/a	n/a	n/a	n/a	n/a	n/a	n/a	n/a
160.95	12.820000000000022	pain	stimulus	6	high_cue	high_stim	n/a	n/a	n/a	n/a	n/a	n/a	n/a	160.95	164.96	169.96	173.77	success	n/a	n/a	n/a
172.6	2.54	pain	outcomerating	6	high_cue	high_stim	58.09	Strong	58.09	Strong	0.98	1.4	task-social/outcomerating/task-pain_scale.png	n/a	n/a	n/a	n/a	success	n/a	n/a	n/a
178.59	1.6	pain	cue	7	high_cue	n/a	n/a	n/a	n/a	n/a	n/a	n/a	task-social/cue/runtype-pain/sch/h022.png	n/a	n/a	n/a	n/a	n/a	n/a	n/a	n/a
180.7	2.42	pain	expectrating	7	high_cue	n/a	84.15	Very Strong	84.15	Very Strong	0.17	2.26	task-social/cue/runtype-pain/sch/h022.png	n/a	n/a	n/a	n/a	n/a	n/a	n/a	n/a
187.34	11.900000000000006	pain	stimulus	7	high_cue	low_stim	n/a	n/a	n/a	n/a	n/a	n/a	n/a	187.34	190.84	195.84	199.24	success	n/a	n/a	n/a
207.2	2.87	pain	outcomerating	7	high_cue	low_stim	51.2	Strong	51.2	Strong	0.17	2.26	task-social/outcomerating/task-pain_scale.png	n/a	n/a	n/a	n/a	success	n/a	n/a	n/a
218.98	1.17	pain	cue	8	high_cue	n/a	n/a	n/a	n/a	n/a	n/a	n/a	task-social/cue/runtype-pain/sch/h001.png	n/a	n/a	n/a	n/a	n/a	n/a	n/a	n/a
221.1	2.47	pain	expectrating	8	high_cue	n/a	77.52	Very Strong	77.52	Very Strong	0.05	2.42	task-social/cue/runtype-pain/sch/h001.png	n/a	n/a	n/a	n/a	n/a	n/a	n/a	n/a
226.01	12.820000000000022	pain	stimulus	8	high_cue	high_stim	n/a	n/a	n/a	n/a	n/a	n/a	n/a	226.01	230.02	235.02	238.83	success	n/a	n/a	n/a
240.59	1.98	pain	outcomerating	8	high_cue	high_stim	59.94	Strong	59.94	Strong	0.05	2.42	task-social/outcomerating/task-pain_scale.png	n/a	n/a	n/a	n/a	success	n/a	n/a	n/a
245.49	1.4	pain	cue	9	low_cue	n/a	n/a	n/a	n/a	n/a	n/a	n/a	task-social/cue/runtype-pain/scl/l039.png	n/a	n/a	n/a	n/a	n/a	n/a	n/a	n/a
248.59	2.99	pain	expectrating	9	low_cue	n/a	51.56	Strong	51.56	Strong	1.58	1.4	task-social/cue/runtype-pain/scl/l039.png	n/a	n/a	n/a	n/a	n/a	n/a	n/a	n/a
257.24	11.909999999999968	pain	stimulus	9	low_cue	low_stim	n/a	n/a	n/a	n/a	n/a	n/a	n/a	257.24	260.74	265.74	269.14	success	n/a	n/a	n/a
270.5	2.89	pain	outcomerating	9	low_cue	low_stim	37.83	Strong	37.83	Strong	1.58	1.4	task-social/outcomerating/task-pain_scale.png	n/a	n/a	n/a	n/a	success	n/a	n/a	n/a
276.39	1.58	pain	cue	10	low_cue	n/a	n/a	n/a	n/a	n/a	n/a	n/a	task-social/cue/runtype-pain/scl/l053.png	n/a	n/a	n/a	n/a	n/a	n/a	n/a	n/a
279.49	2.32	pain	expectrating	10	low_cue	n/a	57.14	Strong	57.14	Strong	0.18	2.14	task-social/cue/runtype-pain/scl/l053.png	n/a	n/a	n/a	n/a	n/a	n/a	n/a	n/a
288.83	12.360000000000014	pain	stimulus	10	low_cue	med_stim	n/a	n/a	n/a	n/a	n/a	n/a	n/a	288.83	292.59	297.59	301.2	success	n/a	n/a	n/a
302.0	1.83	pain	outcomerating	10	low_cue	med_stim	60.31	Strong	60.31	Strong	0.18	2.14	task-social/outcomerating/task-pain_scale.png	n/a	n/a	n/a	n/a	success	n/a	n/a	n/a
322.99	1.0	pain	cue	11	low_cue	n/a	n/a	n/a	n/a	n/a	n/a	n/a	task-social/cue/runtype-pain/scl/l028.png	n/a	n/a	n/a	n/a	n/a	n/a	n/a	n/a
325.39	1.9	pain	expectrating	11	low_cue	n/a	45.16	Strong	45.16	Strong	0.05	1.85	task-social/cue/runtype-pain/scl/l028.png	n/a	n/a	n/a	n/a	n/a	n/a	n/a	n/a
330.84	12.82000000000005	pain	stimulus	11	low_cue	high_stim	n/a	n/a	n/a	n/a	n/a	n/a	n/a	330.84	334.85	339.85	343.66	success	n/a	n/a	n/a
341.2	2.13	pain	outcomerating	11	low_cue	high_stim	55.85	Strong	55.85	Strong	0.05	1.85	task-social/outcomerating/task-pain_scale.png	n/a	n/a	n/a	n/a	success	n/a	n/a	n/a
362.29	1.45	pain	cue	12	high_cue	n/a	n/a	n/a	n/a	n/a	n/a	n/a	task-social/cue/runtype-pain/sch/h031.png	n/a	n/a	n/a	n/a	n/a	n/a	n/a	n/a
365.4	1.76	pain	expectrating	12	high_cue	n/a	72.59	Very Strong	72.59	Very Strong	0.05	1.71	task-social/cue/runtype-pain/sch/h031.png	n/a	n/a	n/a	n/a	n/a	n/a	n/a	n/a
375.52	12.370000000000005	pain	stimulus	12	high_cue	med_stim	n/a	n/a	n/a	n/a	n/a	n/a	n/a	375.52	379.28	384.28	387.89	success	n/a	n/a	n/a
394.1	1.82	pain	outcomerating	12	high_cue	med_stim	51.34	Strong	51.34	Strong	0.05	1.71	task-social/outcomerating/task-pain_scale.png	n/a	n/a	n/a	n/a	success	n/a	n/a	n/a
