onset	duration	run_type	trial_type	trial_index	cue	stimulusintensity	rating_value	rating_glmslabel	rating_value_fillna	rating_glmslabel_fillna	rating_mouseonset	rating_mousedur	stim_file	pain_onset_ttl1	pain_onset_ttl2	pain_onset_ttl3	pain_onset_ttl4	pain_stimulus_delivery_success	cognitive_correct_response	cognitive_participant_response	cognitive_response_accuracy
11.58	0.99	cognitive	cue	1	low_cue	n/a	n/a	n/a	n/a	n/a	n/a	n/a	task-social/cue/runtype-cognitive/scl/l042.png	n/a	n/a	n/a	n/a	n/a	n/a	n/a	n/a
14.8	1.97	cognitive	expectrating	1	low_cue	n/a	34.72	Strong	34.72	Strong	0.63	1.33	task-social/cue/runtype-cognitive/scl/l042.png	n/a	n/a	n/a	n/a	n/a	n/a	n/a	n/a
21.5	5.0	cognitive	stimulus	1	low_cue	low_stim	n/a	n/a	n/a	n/a	n/a	n/a	task-social/stim/runtype-cognitive/24_50.jpg	n/a	n/a	n/a	n/a	n/a	same	same	True
36.89	2.41	cognitive	outcomerating	1	low_cue	low_stim	36.82	Strong	36.82	Strong	0.63	1.33	task-social/outcomerating/task-cognitive_scale.png	n/a	n/a	n/a	n/a	n/a	n/a	n/a	n/a
42.39	0.98	cognitive	cue	2	high_cue	n/a	n/a	n/a	n/a	n/a	n/a	n/a	task-social/cue/runtype-cognitive/sch/h029.png	n/a	n/a	n/a	n/a	n/a	n/a	n/a	n/a
44.19	1.52	cognitive	expectrating	2	high_cue	n/a	45.16	Strong	45.16	Strong	0.57	0.95	task-social/cue/runtype-cognitive/sch/h029.png	n/a	n/a	n/a	n/a	n/a	n/a	n/a	n/a
57.5	5.0	cognitive	stimulus	2	high_cue	med_stim	n/a	n/a	n/a	n/a	n/a	n/a	task-social/stim/runtype-cognitive/19_100_R.jpg	n/a	n/a	n/a	n/a	n/a	diff	same	False
67.49	2.83	cognitive	outcomerating	2	high_cue	med_stim	56.11	Strong	56.11	Strong	0.57	0.95	task-social/outcomerating/task-cognitive_scale.png	n/a	n/a	n/a	n/a	n/a	n/a	n/a	n/a
74.19	0.99	cognitive	cue	3	high_cue	n/a	n/a	n/a	n/a	n/a	n/a	n/a	task-social/cue/runtype-cognitive/sch/h025.png	n/a	n/a	n/a	n/a	n/a	n/a	n/a	n/a
77.39	2.01	cognitive	expectrating	3	high_cue	n/a	38.62	Strong	38.62	Strong	0.42	1.59	task-social/cue/runtype-cognitive/sch/h025.png	n/a	n/a	n/a	n/a	n/a	n/a	n/a	n/a
85.09	5.0	cognitive	stimulus	3	high_cue	low_stim	n/a	n/a	n/a	n/a	n/a	n/a	task-social/stim/runtype-cognitive/35_50_R.jpg	n/a	n/a	n/a	n/a	n/a	diff	diff	True
96.6	3.17	cognitive	outcomerating	3	high_cue	low_stim	20.26	Moderate	20.26	Moderate	0.42	1.59	task-social/outcomerating/task-cognitive_scale.png	n/a	n/a	n/a	n/a	n/a	n/a	n/a	n/a
110.59	0.99	cognitive	cue	4	high_cue	n/a	n/a	n/a	n/a	n/a	n/a	n/a	task-social/cue/runtype-cognitive/sch/h024.png	n/a	n/a	n/a	n/a	n/a	n/a	n/a	n/a
113.29	1.65	cognitive	expectrating	4	high_cue	n/a	41.56	Strong	41.56	Strong	0.48	1.17	task-social/cue/runtype-cognitive/sch/h024.png	n/a	n/a	n/a	n/a	n/a	n/a	n/a	n/a
119.99	5.0	cognitive	stimulus	4	high_cue	high_stim	n/a	n/a	n/a	n/a	n/a	n/a	task-social/stim/runtype-cognitive/19_150_R.jpg	n/a	n/a	n/a	n/a	n/a	diff	diff	True
133.19	2.8	cognitive	outcomerating	4	high_cue	high_stim	19.75	Moderate	19.75	Moderate	0.48	1.17	task-social/outcomerating/task-cognitive_scale.png	n/a	n/a	n/a	n/a	n/a	n/a	n/a	n/a
139.9	0.98	cognitive	cue	5	low_cue	n/a	n/a	n/a	n/a	n/a	n/a	n/a	task-social/cue/runtype-cognitive/scl/l040.png	n/a	n/a	n/a	n/a	n/a	n/a	n/a	n/a
143.1	2.35	cognitive	expectrating	5	low_cue	n/a	10.41	Moderate	10.41	Moderate	0.42	1.93	task-social/cue/runtype-cognitive/scl/l040.png	n/a	n/a	n/a	n/a	n/a	n/a	n/a	n/a
156.8	5.0	cognitive	stimulus	5	low_cue	med_stim	n/a	n/a	n/a	n/a	n/a	n/a	task-social/stim/runtype-cognitive/44_100.jpg	n/a	n/a	n/a	n/a	n/a	same	same	True
165.69	2.41	cognitive	outcomerating	5	low_cue	med_stim	39.75	Strong	39.75	Strong	0.42	1.93	task-social/outcomerating/task-cognitive_scale.png	n/a	n/a	n/a	n/a	n/a	n/a	n/a	n/a
181.29	0.98	cognitive	cue	6	low_cue	n/a	n/a	n/a	n/a	n/a	n/a	n/a	task-social/cue/runtype-cognitive/scl/l050.png	n/a	n/a	n/a	n/a	n/a	n/a	n/a	n/a
183.7	2.15	cognitive	expectrating	6	low_cue	n/a	8.1	Weak	8.1	Weak	0.57	1.59	task-social/cue/runtype-cognitive/scl/l050.png	n/a	n/a	n/a	n/a	n/a	n/a	n/a	n/a
196.78	5.0	cognitive	stimulus	6	low_cue	high_stim	n/a	n/a	n/a	n/a	n/a	n/a	task-social/stim/runtype-cognitive/20_150_R.jpg	n/a	n/a	n/a	n/a	n/a	diff	diff	True
210.39	3.63	cognitive	outcomerating	6	low_cue	high_stim	15.09	Moderate	15.09	Moderate	0.57	1.59	task-social/outcomerating/task-cognitive_scale.png	n/a	n/a	n/a	n/a	n/a	n/a	n/a	n/a
216.09	0.98	cognitive	cue	7	low_cue	n/a	n/a	n/a	n/a	n/a	n/a	n/a	task-social/cue/runtype-cognitive/scl/l032.png	n/a	n/a	n/a	n/a	n/a	n/a	n/a	n/a
218.69	2.32	cognitive	expectrating	7	low_cue	n/a	19.25	Moderate	19.25	Moderate	1.07	1.26	task-social/cue/runtype-cognitive/scl/l032.png	n/a	n/a	n/a	n/a	n/a	n/a	n/a	n/a
235.8	5.0	cognitive	stimulus	7	low_cue	med_stim	n/a	n/a	n/a	n/a	n/a	n/a	task-social/stim/runtype-cognitive/14_100_R.jpg	n/a	n/a	n/a	n/a	n/a	diff	diff	True
244.49	2.82	cognitive	outcomerating	7	low_cue	med_stim	10.41	Moderate	10.41	Moderate	1.07	1.26	task-social/outcomerating/task-cognitive_scale.png	n/a	n/a	n/a	n/a	n/a	n/a	n/a	n/a
250.39	0.99	cognitive	cue	8	low_cue	n/a	n/a	n/a	n/a	n/a	n/a	n/a	task-social/cue/runtype-cognitive/scl/l026.png	n/a	n/a	n/a	n/a	n/a	n/a	n/a	n/a
253.11	2.15	cognitive	expectrating	8	low_cue	n/a	12.75	Moderate	12.75	Moderate	0.6	1.55	task-social/cue/runtype-cognitive/scl/l026.png	n/a	n/a	n/a	n/a	n/a	n/a	n/a	n/a
265.79	5.0	cognitive	stimulus	8	low_cue	high_stim	n/a	n/a	n/a	n/a	n/a	n/a	task-social/stim/runtype-cognitive/24_150.jpg	n/a	n/a	n/a	n/a	n/a	same	same	True
282.7	2.08	cognitive	outcomerating	8	low_cue	high_stim	26.05	Moderate	26.05	Moderate	0.6	1.55	task-social/outcomerating/task-cognitive_scale.png	n/a	n/a	n/a	n/a	n/a	n/a	n/a	n/a
287.68	0.99	cognitive	cue	9	high_cue	n/a	n/a	n/a	n/a	n/a	n/a	n/a	task-social/cue/runtype-cognitive/sch/h053.png	n/a	n/a	n/a	n/a	n/a	n/a	n/a	n/a
289.49	3.13	cognitive	expectrating	9	high_cue	n/a	58.36	Strong	58.36	Strong	0.63	2.5	task-social/cue/runtype-cognitive/sch/h053.png	n/a	n/a	n/a	n/a	n/a	n/a	n/a	n/a
297.09	5.0	cognitive	stimulus	9	high_cue	low_stim	n/a	n/a	n/a	n/a	n/a	n/a	task-social/stim/runtype-cognitive/26_50.jpg	n/a	n/a	n/a	n/a	n/a	same	same	True
308.19	1.69	cognitive	outcomerating	9	high_cue	low_stim	28.54	Moderate	28.54	Moderate	0.63	2.5	task-social/outcomerating/task-cognitive_scale.png	n/a	n/a	n/a	n/a	n/a	n/a	n/a	n/a
318.0	0.98	cognitive	cue	10	high_cue	n/a	n/a	n/a	n/a	n/a	n/a	n/a	task-social/cue/runtype-cognitive/sch/h048.png	n/a	n/a	n/a	n/a	n/a	n/a	n/a	n/a
320.6	1.72	cognitive	expectrating	10	high_cue	n/a	48.77	Strong	48.77	Strong	0.68	1.03	task-social/cue/runtype-cognitive/sch/h048.png	n/a	n/a	n/a	n/a	n/a	n/a	n/a	n/a
328.18	5.0	cognitive	stimulus	10	high_cue	high_stim	n/a	n/a	n/a	n/a	n/a	n/a	task-social/stim/runtype-cognitive/44_150_R.jpg	n/a	n/a	n/a	n/a	n/a	diff	diff	True
337.49	3.32	cognitive	outcomerating	10	high_cue	high_stim	30.0	Strong	30.0	Strong	0.68	1.03	task-social/outcomerating/task-cognitive_scale.png	n/a	n/a	n/a	n/a	n/a	n/a	n/a	n/a
343.89	0.99	cognitive	cue	11	high_cue	n/a	n/a	n/a	n/a	n/a	n/a	n/a	task-social/cue/runtype-cognitive/sch/h056.png	n/a	n/a	n/a	n/a	n/a	n/a	n/a	n/a
345.69	1.79	cognitive	expectrating	11	high_cue	n/a	42.23	Strong	42.23	Strong	0.45	1.34	task-social/cue/runtype-cognitive/sch/h056.png	n/a	n/a	n/a	n/a	n/a	n/a	n/a	n/a
357.79	5.0	cognitive	stimulus	11	high_cue	med_stim	n/a	n/a	n/a	n/a	n/a	n/a	task-social/stim/runtype-cognitive/35_100_R.jpg	n/a	n/a	n/a	n/a	n/a	diff	diff	True
366.7	2.08	cognitive	outcomerating	11	high_cue	med_stim	34.97	Strong	34.97	Strong	0.45	1.34	task-social/outcomerating/task-cognitive_scale.png	n/a	n/a	n/a	n/a	n/a	n/a	n/a	n/a
374.78	0.99	cognitive	cue	12	low_cue	n/a	n/a	n/a	n/a	n/a	n/a	n/a	task-social/cue/runtype-cognitive/scl/l021.png	n/a	n/a	n/a	n/a	n/a	n/a	n/a	n/a
376.68	1.67	cognitive	expectrating	12	low_cue	n/a	13.25	Moderate	13.25	Moderate	0.5	1.17	task-social/cue/runtype-cognitive/scl/l021.png	n/a	n/a	n/a	n/a	n/a	n/a	n/a	n/a
384.29	5.0	cognitive	stimulus	12	low_cue	low_stim	n/a	n/a	n/a	n/a	n/a	n/a	task-social/stim/runtype-cognitive/20_50_R.jpg	n/a	n/a	n/a	n/a	n/a	diff	diff	True
394.79	3.21	cognitive	outcomerating	12	low_cue	low_stim	16.1	Moderate	16.1	Moderate	0.5	1.17	task-social/outcomerating/task-cognitive_scale.png	n/a	n/a	n/a	n/a	n/a	n/a	n/a	n/a
