onset	duration	run_type	trial_type	trial_index	cue	stimulusintensity	rating_value	rating_glmslabel	rating_value_fillna	rating_glmslabel_fillna	rating_mouseonset	rating_mousedur	stim_file	pain_onset_ttl1	pain_onset_ttl2	pain_onset_ttl3	pain_onset_ttl4	pain_stimulus_delivery_success	cognitive_correct_response	cognitive_participant_response	cognitive_response_accuracy
4.1	1.58	pain	cue	1	high_cue	n/a	n/a	n/a	n/a	n/a	n/a	n/a	task-social/cue/runtype-pain/sch/h010.png	n/a	n/a	n/a	n/a	n/a	n/a	n/a	n/a
7.2	1.5	pain	expectrating	1	high_cue	n/a	133.36	Strongest sensation of any kind	133.36	Strongest sensation of any kind	0.28	1.22	task-social/cue/runtype-pain/sch/h010.png	n/a	n/a	n/a	n/a	n/a	n/a	n/a	n/a
12.52	12.370000000000001	pain	stimulus	1	high_cue	med_stim	n/a	n/a	n/a	n/a	n/a	n/a	n/a	12.52	16.28	21.28	24.89	success	n/a	n/a	n/a
23.69	1.73	pain	outcomerating	1	high_cue	med_stim	111.63	Strongest sensation of any kind	111.63	Strongest sensation of any kind	0.67	1.07	task-social/outcomerating/task-pain_scale.png	n/a	n/a	n/a	n/a	success	n/a	n/a	n/a
33.49	1.0	pain	cue	2	low_cue	n/a	n/a	n/a	n/a	n/a	n/a	n/a	task-social/cue/runtype-pain/scl/l047.png	n/a	n/a	n/a	n/a	n/a	n/a	n/a	n/a
36.59	1.34	pain	expectrating	2	low_cue	n/a	123.11	Strongest sensation of any kind	123.11	Strongest sensation of any kind	0.37	0.98	task-social/cue/runtype-pain/scl/l047.png	n/a	n/a	n/a	n/a	n/a	n/a	n/a	n/a
47.52	11.899999999999999	pain	stimulus	2	low_cue	low_stim	n/a	n/a	n/a	n/a	n/a	n/a	n/a	47.52	51.02	56.02	59.42	success	n/a	n/a	n/a
62.4	1.95	pain	outcomerating	2	low_cue	low_stim	44.35	Strong	44.35	Strong	0.48	1.47	task-social/outcomerating/task-pain_scale.png	n/a	n/a	n/a	n/a	success	n/a	n/a	n/a
71.59	1.33	pain	cue	3	high_cue	n/a	n/a	n/a	n/a	n/a	n/a	n/a	task-social/cue/runtype-pain/sch/h036.png	n/a	n/a	n/a	n/a	n/a	n/a	n/a	n/a
73.59	1.52	pain	expectrating	3	high_cue	n/a	150.62	Strongest sensation of any kind	150.62	Strongest sensation of any kind	0.53	0.98	task-social/cue/runtype-pain/sch/h036.png	n/a	n/a	n/a	n/a	n/a	n/a	n/a	n/a
84.52	11.91000000000001	pain	stimulus	3	high_cue	low_stim	n/a	n/a	n/a	n/a	n/a	n/a	n/a	84.52	88.02	93.02	96.42	success	n/a	n/a	n/a
97.1	1.67	pain	outcomerating	3	high_cue	low_stim	24.81	Moderate	24.81	Moderate	0.75	0.92	task-social/outcomerating/task-pain_scale.png	n/a	n/a	n/a	n/a	success	n/a	n/a	n/a
105.59	1.45	pain	cue	4	high_cue	n/a	n/a	n/a	n/a	n/a	n/a	n/a	task-social/cue/runtype-pain/sch/h026.png	n/a	n/a	n/a	n/a	n/a	n/a	n/a	n/a
108.7	2.65	pain	expectrating	4	high_cue	n/a	142.37	Strongest sensation of any kind	142.37	Strongest sensation of any kind	0.53	2.12	task-social/cue/runtype-pain/sch/h026.png	n/a	n/a	n/a	n/a	n/a	n/a	n/a	n/a
117.94	12.819999999999993	pain	stimulus	4	high_cue	high_stim	n/a	n/a	n/a	n/a	n/a	n/a	n/a	117.94	121.95	126.95	130.76	success	n/a	n/a	n/a
127.49	1.86	pain	outcomerating	4	high_cue	high_stim	106.98	Strongest sensation of any kind	106.98	Strongest sensation of any kind	0.82	1.04	task-social/outcomerating/task-pain_scale.png	n/a	n/a	n/a	n/a	success	n/a	n/a	n/a
132.8	1.0	pain	cue	5	high_cue	n/a	n/a	n/a	n/a	n/a	n/a	n/a	task-social/cue/runtype-pain/sch/h038.png	n/a	n/a	n/a	n/a	n/a	n/a	n/a	n/a
135.9	0.87	pain	expectrating	5	high_cue	n/a	142.5	Strongest sensation of any kind	142.5	Strongest sensation of any kind	0.33	0.54	task-social/cue/runtype-pain/sch/h038.png	n/a	n/a	n/a	n/a	n/a	n/a	n/a	n/a
141.2	11.900000000000006	pain	stimulus	5	high_cue	low_stim	n/a	n/a	n/a	n/a	n/a	n/a	n/a	141.2	144.7	149.7	153.1	fail	n/a	n/a	n/a
152.4	2.72	pain	outcomerating	5	high_cue	low_stim	0.0	n/a	0.0	n/a	1.25	1.47	task-social/outcomerating/task-pain_scale.png	n/a	n/a	n/a	n/a	fail	n/a	n/a	n/a
163.29	1.0	pain	cue	6	high_cue	n/a	n/a	n/a	n/a	n/a	n/a	n/a	task-social/cue/runtype-pain/sch/h037.png	n/a	n/a	n/a	n/a	n/a	n/a	n/a	n/a
165.29	0.88	pain	expectrating	6	high_cue	n/a	147.77	Strongest sensation of any kind	147.77	Strongest sensation of any kind	0.37	0.51	task-social/cue/runtype-pain/sch/h037.png	n/a	n/a	n/a	n/a	n/a	n/a	n/a	n/a
174.49	12.370000000000005	pain	stimulus	6	high_cue	med_stim	n/a	n/a	n/a	n/a	n/a	n/a	n/a	174.49	178.25	183.25	186.86	fail	n/a	n/a	n/a
184.5	2.1	pain	outcomerating	6	high_cue	med_stim	0.0	n/a	0.0	n/a	0.53	1.57	task-social/outcomerating/task-pain_scale.png	n/a	n/a	n/a	n/a	fail	n/a	n/a	n/a
196.89	1.0	pain	cue	7	low_cue	n/a	n/a	n/a	n/a	n/a	n/a	n/a	task-social/cue/runtype-pain/scl/l030.png	n/a	n/a	n/a	n/a	n/a	n/a	n/a	n/a
199.29	0.65	pain	expectrating	7	low_cue	n/a	137.79	Strongest sensation of any kind	137.79	Strongest sensation of any kind	0.13	0.52	task-social/cue/runtype-pain/scl/l030.png	n/a	n/a	n/a	n/a	n/a	n/a	n/a	n/a
205.89	12.830000000000013	pain	stimulus	7	low_cue	high_stim	n/a	n/a	n/a	n/a	n/a	n/a	n/a	205.89	209.9	214.9	218.71	fail	n/a	n/a	n/a
224.4	2.06	pain	outcomerating	7	low_cue	high_stim	3.23	Weak	3.23	Weak	0.43	1.62	task-social/outcomerating/task-pain_scale.png	n/a	n/a	n/a	n/a	fail	n/a	n/a	n/a
231.4	0.98	pain	cue	8	low_cue	n/a	n/a	n/a	n/a	n/a	n/a	n/a	task-social/cue/runtype-pain/scl/l045.png	n/a	n/a	n/a	n/a	n/a	n/a	n/a	n/a
234.3	1.47	pain	expectrating	8	low_cue	n/a	120.81	Strongest sensation of any kind	120.81	Strongest sensation of any kind	0.42	1.05	task-social/cue/runtype-pain/scl/l045.png	n/a	n/a	n/a	n/a	n/a	n/a	n/a	n/a
240.9	12.359999999999985	pain	stimulus	8	low_cue	med_stim	n/a	n/a	n/a	n/a	n/a	n/a	n/a	240.9	244.66	249.66	253.27	fail	n/a	n/a	n/a
256.99	1.19	pain	outcomerating	8	low_cue	med_stim	1.86	Barely detectable	1.86	Barely detectable	0.52	0.68	task-social/outcomerating/task-pain_scale.png	n/a	n/a	n/a	n/a	fail	n/a	n/a	n/a
270.4	1.0	pain	cue	9	high_cue	n/a	n/a	n/a	n/a	n/a	n/a	n/a	task-social/cue/runtype-pain/sch/h004.png	n/a	n/a	n/a	n/a	n/a	n/a	n/a	n/a
272.2	1.02	pain	expectrating	9	high_cue	n/a	127.85	Strongest sensation of any kind	127.85	Strongest sensation of any kind	0.47	0.55	task-social/cue/runtype-pain/sch/h004.png	n/a	n/a	n/a	n/a	n/a	n/a	n/a	n/a
278.8	12.819999999999993	pain	stimulus	9	high_cue	high_stim	n/a	n/a	n/a	n/a	n/a	n/a	n/a	278.8	282.81	287.81	291.62	fail	n/a	n/a	n/a
292.39	1.13	pain	outcomerating	9	high_cue	high_stim	0.0	n/a	0.0	n/a	0.55	0.58	task-social/outcomerating/task-pain_scale.png	n/a	n/a	n/a	n/a	fail	n/a	n/a	n/a
297.69	1.0	pain	cue	10	low_cue	n/a	n/a	n/a	n/a	n/a	n/a	n/a	task-social/cue/runtype-pain/scl/l009.png	n/a	n/a	n/a	n/a	n/a	n/a	n/a	n/a
300.19	1.36	pain	expectrating	10	low_cue	n/a	127.79	Strongest sensation of any kind	127.79	Strongest sensation of any kind	0.47	0.89	task-social/cue/runtype-pain/scl/l009.png	n/a	n/a	n/a	n/a	n/a	n/a	n/a	n/a
306.3	12.360000000000014	pain	stimulus	10	low_cue	med_stim	n/a	n/a	n/a	n/a	n/a	n/a	n/a	306.3	310.06	315.06	318.67	fail	n/a	n/a	n/a
318.0	1.22	pain	outcomerating	10	low_cue	med_stim	0.0	n/a	0.0	n/a	0.58	0.64	task-social/outcomerating/task-pain_scale.png	n/a	n/a	n/a	n/a	fail	n/a	n/a	n/a
327.19	1.0	pain	cue	11	low_cue	n/a	n/a	n/a	n/a	n/a	n/a	n/a	task-social/cue/runtype-pain/scl/l049.png	n/a	n/a	n/a	n/a	n/a	n/a	n/a	n/a
329.1	1.52	pain	expectrating	11	low_cue	n/a	121.17	Strongest sensation of any kind	121.17	Strongest sensation of any kind	0.37	1.15	task-social/cue/runtype-pain/scl/l049.png	n/a	n/a	n/a	n/a	n/a	n/a	n/a	n/a
344.6	11.909999999999968	pain	stimulus	11	low_cue	low_stim	n/a	n/a	n/a	n/a	n/a	n/a	n/a	344.6	348.1	353.1	356.5	fail	n/a	n/a	n/a
367.0	1.25	pain	outcomerating	11	low_cue	low_stim	0.0	n/a	0.0	n/a	0.63	0.62	task-social/outcomerating/task-pain_scale.png	n/a	n/a	n/a	n/a	fail	n/a	n/a	n/a
372.59	1.0	pain	cue	12	low_cue	n/a	n/a	n/a	n/a	n/a	n/a	n/a	task-social/cue/runtype-pain/scl/l026.png	n/a	n/a	n/a	n/a	n/a	n/a	n/a	n/a
374.6	0.97	pain	expectrating	12	low_cue	n/a	117.49	Strongest sensation of any kind	117.49	Strongest sensation of any kind	0.33	0.63	task-social/cue/runtype-pain/scl/l026.png	n/a	n/a	n/a	n/a	n/a	n/a	n/a	n/a
384.4	12.82000000000005	pain	stimulus	12	low_cue	high_stim	n/a	n/a	n/a	n/a	n/a	n/a	n/a	384.4	388.41	393.41	397.22	fail	n/a	n/a	n/a
394.39	1.28	pain	outcomerating	12	low_cue	high_stim	0.0	n/a	0.0	n/a	0.7	0.58	task-social/outcomerating/task-pain_scale.png	n/a	n/a	n/a	n/a	fail	n/a	n/a	n/a
