onset	duration	run_type	trial_type	trial_index	cue	stimulusintensity	rating_value	rating_glmslabel	rating_value_fillna	rating_glmslabel_fillna	rating_mouseonset	rating_mousedur	stim_file_TODO	pain_onset_ttl1	pain_onset_ttl2	pain_onset_ttl3	pain_onset_ttl4	pain_stimulus_delivery_success	cognitive_correct_response	cognitive_participant_response	cognitive_response_accuracy
11.59	0.99	vicarious	cue	1	low_cue	n/a	n/a	n/a	n/a	n/a	n/a	n/a	task-social/cue/runtype-vicarious/scl/l019.png	n/a	n/a	n/a	n/a	n/a	n/a	n/a	n/a
14.81	1.95	vicarious	expectrating	1	low_cue	n/a	25.81	Moderate	25.81	Moderate	1.15	0.8	task-social/cue/runtype-vicarious/scl/l019.png	n/a	n/a	n/a	n/a	n/a	n/a	n/a	n/a
21.48	5.0	vicarious	stimulus	1	low_cue	low_stim	n/a	n/a	n/a	n/a	n/a	n/a	task-social/stim/runtype-vicarious/nm106t1aaunaff_L.mp4	n/a	n/a	n/a	n/a	n/a	n/a	n/a	n/a
36.9	1.44	vicarious	outcomerating	1	low_cue	low_stim	42.92	Strong	42.92	Strong	1.15	0.8	task-social/outcomerating/task-vicarious_scale.png	n/a	n/a	n/a	n/a	n/a	n/a	n/a	n/a
42.4	0.98	vicarious	cue	2	high_cue	n/a	n/a	n/a	n/a	n/a	n/a	n/a	task-social/cue/runtype-vicarious/sch/h053.png	n/a	n/a	n/a	n/a	n/a	n/a	n/a	n/a
44.2	2.44	vicarious	expectrating	2	high_cue	n/a	58.8	Strong	58.8	Strong	0.58	1.85	task-social/cue/runtype-vicarious/sch/h053.png	n/a	n/a	n/a	n/a	n/a	n/a	n/a	n/a
57.48	5.0	vicarious	stimulus	2	high_cue	med_stim	n/a	n/a	n/a	n/a	n/a	n/a	task-social/stim/runtype-vicarious/bn080t1aeaff_M.mp4	n/a	n/a	n/a	n/a	n/a	n/a	n/a	n/a
67.51	1.23	vicarious	outcomerating	2	high_cue	med_stim	150.62	Strongest sensation of any kind	150.62	Strongest sensation of any kind	0.58	1.85	task-social/outcomerating/task-vicarious_scale.png	n/a	n/a	n/a	n/a	n/a	n/a	n/a	n/a
74.19	0.99	vicarious	cue	3	high_cue	n/a	n/a	n/a	n/a	n/a	n/a	n/a	task-social/cue/runtype-vicarious/sch/h004.png	n/a	n/a	n/a	n/a	n/a	n/a	n/a	n/a
77.4	1.81	vicarious	expectrating	3	high_cue	n/a	142.81	Strongest sensation of any kind	142.81	Strongest sensation of any kind	0.55	1.26	task-social/cue/runtype-vicarious/sch/h004.png	n/a	n/a	n/a	n/a	n/a	n/a	n/a	n/a
85.08	5.0	vicarious	stimulus	3	high_cue	low_stim	n/a	n/a	n/a	n/a	n/a	n/a	task-social/stim/runtype-vicarious/mg101t2afunaff_L.mp4	n/a	n/a	n/a	n/a	n/a	n/a	n/a	n/a
96.6	1.57	vicarious	outcomerating	3	high_cue	low_stim	53.31	Strong	53.31	Strong	0.55	1.26	task-social/outcomerating/task-vicarious_scale.png	n/a	n/a	n/a	n/a	n/a	n/a	n/a	n/a
110.59	0.99	vicarious	cue	4	high_cue	n/a	n/a	n/a	n/a	n/a	n/a	n/a	task-social/cue/runtype-vicarious/sch/h001.png	n/a	n/a	n/a	n/a	n/a	n/a	n/a	n/a
113.29	2.09	vicarious	expectrating	4	high_cue	n/a	119.42	Strongest sensation of any kind	119.42	Strongest sensation of any kind	0.73	1.36	task-social/cue/runtype-vicarious/sch/h001.png	n/a	n/a	n/a	n/a	n/a	n/a	n/a	n/a
119.98	5.0	vicarious	stimulus	4	high_cue	high_stim	n/a	n/a	n/a	n/a	n/a	n/a	task-social/stim/runtype-vicarious/nm106t1afaff_H.mp4	n/a	n/a	n/a	n/a	n/a	n/a	n/a	n/a
133.2	1.17	vicarious	outcomerating	4	high_cue	high_stim	146.12	Strongest sensation of any kind	146.12	Strongest sensation of any kind	0.73	1.36	task-social/outcomerating/task-vicarious_scale.png	n/a	n/a	n/a	n/a	n/a	n/a	n/a	n/a
139.88	1.0	vicarious	cue	5	low_cue	n/a	n/a	n/a	n/a	n/a	n/a	n/a	task-social/cue/runtype-vicarious/scl/l036.png	n/a	n/a	n/a	n/a	n/a	n/a	n/a	n/a
143.1	1.82	vicarious	expectrating	5	low_cue	n/a	79.32	Very Strong	79.32	Very Strong	0.62	1.2	task-social/cue/runtype-vicarious/scl/l036.png	n/a	n/a	n/a	n/a	n/a	n/a	n/a	n/a
156.78	5.0	vicarious	stimulus	5	low_cue	med_stim	n/a	n/a	n/a	n/a	n/a	n/a	task-social/stim/runtype-vicarious/bg096t2aaaff_M.mp4	n/a	n/a	n/a	n/a	n/a	n/a	n/a	n/a
165.69	2.17	vicarious	outcomerating	5	low_cue	med_stim	155.39	Strongest sensation of any kind	155.39	Strongest sensation of any kind	0.62	1.2	task-social/outcomerating/task-vicarious_scale.png	n/a	n/a	n/a	n/a	n/a	n/a	n/a	n/a
181.3	0.98	vicarious	cue	6	low_cue	n/a	n/a	n/a	n/a	n/a	n/a	n/a	task-social/cue/runtype-vicarious/scl/l046.png	n/a	n/a	n/a	n/a	n/a	n/a	n/a	n/a
183.7	2.03	vicarious	expectrating	6	low_cue	n/a	86.19	Very Strong	86.19	Very Strong	0.47	1.57	task-social/cue/runtype-vicarious/scl/l046.png	n/a	n/a	n/a	n/a	n/a	n/a	n/a	n/a
196.78	5.0	vicarious	stimulus	6	low_cue	high_stim	n/a	n/a	n/a	n/a	n/a	n/a	task-social/stim/runtype-vicarious/bn080t1afaff_H.mp4	n/a	n/a	n/a	n/a	n/a	n/a	n/a	n/a
210.39	1.77	vicarious	outcomerating	6	low_cue	high_stim	157.77	Strongest sensation of any kind	157.77	Strongest sensation of any kind	0.47	1.57	task-social/outcomerating/task-vicarious_scale.png	n/a	n/a	n/a	n/a	n/a	n/a	n/a	n/a
216.1	0.98	vicarious	cue	7	low_cue	n/a	n/a	n/a	n/a	n/a	n/a	n/a	task-social/cue/runtype-vicarious/scl/l011.png	n/a	n/a	n/a	n/a	n/a	n/a	n/a	n/a
218.7	1.79	vicarious	expectrating	7	low_cue	n/a	45.0	Strong	45.0	Strong	0.5	1.29	task-social/cue/runtype-vicarious/scl/l011.png	n/a	n/a	n/a	n/a	n/a	n/a	n/a	n/a
235.78	5.0	vicarious	stimulus	7	low_cue	med_stim	n/a	n/a	n/a	n/a	n/a	n/a	task-social/stim/runtype-vicarious/bm049t2aeaff_M.mp4	n/a	n/a	n/a	n/a	n/a	n/a	n/a	n/a
244.51	1.23	vicarious	outcomerating	7	low_cue	med_stim	74.44	Very Strong	74.44	Very Strong	0.5	1.29	task-social/outcomerating/task-vicarious_scale.png	n/a	n/a	n/a	n/a	n/a	n/a	n/a	n/a
250.39	0.99	vicarious	cue	8	low_cue	n/a	n/a	n/a	n/a	n/a	n/a	n/a	task-social/cue/runtype-vicarious/scl/l016.png	n/a	n/a	n/a	n/a	n/a	n/a	n/a	n/a
253.09	1.01	vicarious	expectrating	8	low_cue	n/a	40.37	Strong	40.37	Strong	0.38	0.62	task-social/cue/runtype-vicarious/scl/l016.png	n/a	n/a	n/a	n/a	n/a	n/a	n/a	n/a
265.78	5.0	vicarious	stimulus	8	low_cue	high_stim	n/a	n/a	n/a	n/a	n/a	n/a	task-social/stim/runtype-vicarious/ib109t1aiaff_H.mp4	n/a	n/a	n/a	n/a	n/a	n/a	n/a	n/a
282.7	1.5	vicarious	outcomerating	8	low_cue	high_stim	144.79	Strongest sensation of any kind	144.79	Strongest sensation of any kind	0.38	0.62	task-social/outcomerating/task-vicarious_scale.png	n/a	n/a	n/a	n/a	n/a	n/a	n/a	n/a
287.69	0.99	vicarious	cue	9	high_cue	n/a	n/a	n/a	n/a	n/a	n/a	n/a	task-social/cue/runtype-vicarious/sch/h041.png	n/a	n/a	n/a	n/a	n/a	n/a	n/a	n/a
289.49	1.2	vicarious	expectrating	9	high_cue	n/a	142.31	Strongest sensation of any kind	142.31	Strongest sensation of any kind	0.5	0.7	task-social/cue/runtype-vicarious/sch/h041.png	n/a	n/a	n/a	n/a	n/a	n/a	n/a	n/a
297.08	5.0	vicarious	stimulus	9	high_cue	low_stim	n/a	n/a	n/a	n/a	n/a	n/a	task-social/stim/runtype-vicarious/tv095t2aeunaff_L.mp4	n/a	n/a	n/a	n/a	n/a	n/a	n/a	n/a
308.2	1.14	vicarious	outcomerating	9	high_cue	low_stim	92.44	Very Strong	92.44	Very Strong	0.5	0.7	task-social/outcomerating/task-vicarious_scale.png	n/a	n/a	n/a	n/a	n/a	n/a	n/a	n/a
318.0	0.98	vicarious	cue	10	high_cue	n/a	n/a	n/a	n/a	n/a	n/a	n/a	task-social/cue/runtype-vicarious/sch/h014.png	n/a	n/a	n/a	n/a	n/a	n/a	n/a	n/a
320.6	1.35	vicarious	expectrating	10	high_cue	n/a	132.0	Strongest sensation of any kind	132.0	Strongest sensation of any kind	0.4	0.95	task-social/cue/runtype-vicarious/sch/h014.png	n/a	n/a	n/a	n/a	n/a	n/a	n/a	n/a
328.18	5.0	vicarious	stimulus	10	high_cue	high_stim	n/a	n/a	n/a	n/a	n/a	n/a	task-social/stim/runtype-vicarious/dr052t1aiaff_H.mp4	n/a	n/a	n/a	n/a	n/a	n/a	n/a	n/a
337.51	1.48	vicarious	outcomerating	10	high_cue	high_stim	168.6	Strongest sensation of any kind	168.6	Strongest sensation of any kind	0.4	0.95	task-social/outcomerating/task-vicarious_scale.png	n/a	n/a	n/a	n/a	n/a	n/a	n/a	n/a
343.89	0.99	vicarious	cue	11	high_cue	n/a	n/a	n/a	n/a	n/a	n/a	n/a	task-social/cue/runtype-vicarious/sch/h051.png	n/a	n/a	n/a	n/a	n/a	n/a	n/a	n/a
345.69	1.57	vicarious	expectrating	11	high_cue	n/a	140.79	Strongest sensation of any kind	140.79	Strongest sensation of any kind	0.55	1.02	task-social/cue/runtype-vicarious/sch/h051.png	n/a	n/a	n/a	n/a	n/a	n/a	n/a	n/a
357.78	5.0	vicarious	stimulus	11	high_cue	med_stim	n/a	n/a	n/a	n/a	n/a	n/a	task-social/stim/runtype-vicarious/nm106t2aaunaff_M.mp4	n/a	n/a	n/a	n/a	n/a	n/a	n/a	n/a
366.7	2.1	vicarious	outcomerating	11	high_cue	med_stim	62.71	Strong	62.71	Strong	0.55	1.02	task-social/outcomerating/task-vicarious_scale.png	n/a	n/a	n/a	n/a	n/a	n/a	n/a	n/a
374.79	0.99	vicarious	cue	12	low_cue	n/a	n/a	n/a	n/a	n/a	n/a	n/a	task-social/cue/runtype-vicarious/scl/l025.png	n/a	n/a	n/a	n/a	n/a	n/a	n/a	n/a
376.69	1.57	vicarious	expectrating	12	low_cue	n/a	61.88	Strong	61.88	Strong	0.43	1.13	task-social/cue/runtype-vicarious/scl/l025.png	n/a	n/a	n/a	n/a	n/a	n/a	n/a	n/a
384.28	5.0	vicarious	stimulus	12	low_cue	low_stim	n/a	n/a	n/a	n/a	n/a	n/a	task-social/stim/runtype-vicarious/dr052t1aeunaff_L.mp4	n/a	n/a	n/a	n/a	n/a	n/a	n/a	n/a
394.8	1.59	vicarious	outcomerating	12	low_cue	low_stim	27.21	Moderate	27.21	Moderate	0.43	1.13	task-social/outcomerating/task-vicarious_scale.png	n/a	n/a	n/a	n/a	n/a	n/a	n/a	n/a
