onset	duration	run_type	trial_type	trial_index	cue	stimulusintensity	rating_value	rating_glmslabel	rating_value_fillna	rating_glmslabel_fillna	rating_mouseonset	rating_mousedur	stim_file	pain_onset_ttl1	pain_onset_ttl2	pain_onset_ttl3	pain_onset_ttl4	pain_stimulus_delivery_success	cognitive_correct_response	cognitive_participant_response	cognitive_response_accuracy
5.51	0.98	cognitive	cue	1	low_cue	n/a	n/a	n/a	n/a	n/a	n/a	n/a	n/a	n/a	n/a	n/a	n/a	n/a	n/a	n/a	n/a
7.51	2.11	cognitive	expectrating	1	low_cue	n/a	11.13	Moderate	11.13	Moderate	0.83	1.27	task-social/cue/runtype-cognitive/scl/l029.png	n/a	n/a	n/a	n/a	n/a	n/a	n/a	n/a
18.21	5.0	cognitive	stimulus	1	low_cue	med_stim	n/a	n/a	n/a	n/a	n/a	n/a	task-social/stim/runtype-cognitive/43_100_R.jpg	n/a	n/a	n/a	n/a	n/a	diff	same	False
28.1	3.7	cognitive	outcomerating	1	low_cue	med_stim	15.82	Moderate	15.82	Moderate	1.37	2.33	task-social/outcomerating/task-cognitive_scale.png	n/a	n/a	n/a	n/a	n/a	n/a	n/a	n/a
33.8	0.99	cognitive	cue	2	low_cue	n/a	n/a	n/a	n/a	n/a	n/a	n/a	n/a	n/a	n/a	n/a	n/a	n/a	n/a	n/a	n/a
36.1	2.13	cognitive	expectrating	2	low_cue	n/a	13.19	Moderate	13.19	Moderate	0.25	1.88	task-social/cue/runtype-cognitive/scl/l025.png	n/a	n/a	n/a	n/a	n/a	n/a	n/a	n/a
49.61	5.0	cognitive	stimulus	2	low_cue	low_stim	n/a	n/a	n/a	n/a	n/a	n/a	task-social/stim/runtype-cognitive/48_50_R.jpg	n/a	n/a	n/a	n/a	n/a	diff	diff	True
58.51	2.22	cognitive	outcomerating	2	low_cue	low_stim	17.84	Moderate	17.84	Moderate	0.07	2.15	task-social/outcomerating/task-cognitive_scale.png	n/a	n/a	n/a	n/a	n/a	n/a	n/a	n/a
74.2	0.99	cognitive	cue	3	low_cue	n/a	n/a	n/a	n/a	n/a	n/a	n/a	n/a	n/a	n/a	n/a	n/a	n/a	n/a	n/a	n/a
76.5	2.53	cognitive	expectrating	3	low_cue	n/a	11.31	Moderate	11.31	Moderate	0.8	1.73	task-social/cue/runtype-cognitive/scl/l039.png	n/a	n/a	n/a	n/a	n/a	n/a	n/a	n/a
87.3	5.0	cognitive	stimulus	3	low_cue	high_stim	n/a	n/a	n/a	n/a	n/a	n/a	task-social/stim/runtype-cognitive/33_150.jpg	n/a	n/a	n/a	n/a	n/a	same	diff	False
96.41	2.52	cognitive	outcomerating	3	low_cue	high_stim	19.69	Moderate	19.69	Moderate	0.97	1.56	task-social/outcomerating/task-cognitive_scale.png	n/a	n/a	n/a	n/a	n/a	n/a	n/a	n/a
103.79	0.99	cognitive	cue	4	high_cue	n/a	n/a	n/a	n/a	n/a	n/a	n/a	n/a	n/a	n/a	n/a	n/a	n/a	n/a	n/a	n/a
106.59	2.74	cognitive	expectrating	4	high_cue	n/a	46.04	Strong	46.04	Strong	1.07	1.67	task-social/cue/runtype-cognitive/sch/h038.png	n/a	n/a	n/a	n/a	n/a	n/a	n/a	n/a
115.2	5.0	cognitive	stimulus	4	high_cue	low_stim	n/a	n/a	n/a	n/a	n/a	n/a	task-social/stim/runtype-cognitive/33_50_R.jpg	n/a	n/a	n/a	n/a	n/a	diff	diff	True
127.4	2.45	cognitive	outcomerating	4	high_cue	low_stim	25.13	Moderate	25.13	Moderate	0.23	2.22	task-social/outcomerating/task-cognitive_scale.png	n/a	n/a	n/a	n/a	n/a	n/a	n/a	n/a
138.3	0.98	cognitive	cue	5	high_cue	n/a	n/a	n/a	n/a	n/a	n/a	n/a	n/a	n/a	n/a	n/a	n/a	n/a	n/a	n/a	n/a
140.01	2.36	cognitive	expectrating	5	high_cue	n/a	28.43	Moderate	28.43	Moderate	0.75	1.61	task-social/cue/runtype-cognitive/sch/h021.png	n/a	n/a	n/a	n/a	n/a	n/a	n/a	n/a
155.01	5.0	cognitive	stimulus	5	high_cue	med_stim	n/a	n/a	n/a	n/a	n/a	n/a	task-social/stim/runtype-cognitive/22_100_R.jpg	n/a	n/a	n/a	n/a	n/a	diff	diff	True
167.2	2.6	cognitive	outcomerating	5	high_cue	med_stim	18.58	Moderate	18.58	Moderate	0.68	1.92	task-social/outcomerating/task-cognitive_scale.png	n/a	n/a	n/a	n/a	n/a	n/a	n/a	n/a
178.1	0.98	cognitive	cue	6	high_cue	n/a	n/a	n/a	n/a	n/a	n/a	n/a	n/a	n/a	n/a	n/a	n/a	n/a	n/a	n/a	n/a
179.9	1.6	cognitive	expectrating	6	high_cue	n/a	29.12	Strong	29.12	Strong	0.05	1.55	task-social/cue/runtype-cognitive/sch/h045.png	n/a	n/a	n/a	n/a	n/a	n/a	n/a	n/a
188.49	5.0	cognitive	stimulus	6	high_cue	high_stim	n/a	n/a	n/a	n/a	n/a	n/a	task-social/stim/runtype-cognitive/45_150.jpg	n/a	n/a	n/a	n/a	n/a	same	same	True
200.69	2.17	cognitive	outcomerating	6	high_cue	high_stim	22.32	Moderate	22.32	Moderate	0.65	1.52	task-social/outcomerating/task-cognitive_scale.png	n/a	n/a	n/a	n/a	n/a	n/a	n/a	n/a
206.7	0.99	cognitive	cue	7	high_cue	n/a	n/a	n/a	n/a	n/a	n/a	n/a	n/a	n/a	n/a	n/a	n/a	n/a	n/a	n/a	n/a
209.7	2.85	cognitive	expectrating	7	high_cue	n/a	25.83	Moderate	25.83	Moderate	0.25	2.6	task-social/cue/runtype-cognitive/sch/h012.png	n/a	n/a	n/a	n/a	n/a	n/a	n/a	n/a
219.3	5.0	cognitive	stimulus	7	high_cue	low_stim	n/a	n/a	n/a	n/a	n/a	n/a	task-social/stim/runtype-cognitive/34_50_R.jpg	n/a	n/a	n/a	n/a	n/a	diff	diff	True
235.79	2.24	cognitive	outcomerating	7	high_cue	low_stim	18.22	Moderate	18.22	Moderate	0.3	1.94	task-social/outcomerating/task-cognitive_scale.png	n/a	n/a	n/a	n/a	n/a	n/a	n/a	n/a
241.99	0.99	cognitive	cue	8	low_cue	n/a	n/a	n/a	n/a	n/a	n/a	n/a	n/a	n/a	n/a	n/a	n/a	n/a	n/a	n/a	n/a
244.69	2.3	cognitive	expectrating	8	low_cue	n/a	5.62	Weak	5.62	Weak	0.05	2.25	task-social/cue/runtype-cognitive/scl/l045.png	n/a	n/a	n/a	n/a	n/a	n/a	n/a	n/a
253.6	5.0	cognitive	stimulus	8	low_cue	high_stim	n/a	n/a	n/a	n/a	n/a	n/a	task-social/stim/runtype-cognitive/17_150.jpg	n/a	n/a	n/a	n/a	n/a	same	same	True
261.6	2.9	cognitive	outcomerating	8	low_cue	high_stim	14.15	Moderate	14.15	Moderate	0.52	2.39	task-social/outcomerating/task-cognitive_scale.png	n/a	n/a	n/a	n/a	n/a	n/a	n/a	n/a
270.8	0.98	cognitive	cue	9	high_cue	n/a	n/a	n/a	n/a	n/a	n/a	n/a	n/a	n/a	n/a	n/a	n/a	n/a	n/a	n/a	n/a
273.81	2.16	cognitive	expectrating	9	high_cue	n/a	22.45	Moderate	22.45	Moderate	0.37	1.79	task-social/cue/runtype-cognitive/sch/h029.png	n/a	n/a	n/a	n/a	n/a	n/a	n/a	n/a
281.69	5.0	cognitive	stimulus	9	high_cue	high_stim	n/a	n/a	n/a	n/a	n/a	n/a	task-social/stim/runtype-cognitive/43_150.jpg	n/a	n/a	n/a	n/a	n/a	same	same	True
300.5	3.13	cognitive	outcomerating	9	high_cue	high_stim	17.71	Moderate	17.71	Moderate	0.62	2.52	task-social/outcomerating/task-cognitive_scale.png	n/a	n/a	n/a	n/a	n/a	n/a	n/a	n/a
306.5	0.98	cognitive	cue	10	low_cue	n/a	n/a	n/a	n/a	n/a	n/a	n/a	n/a	n/a	n/a	n/a	n/a	n/a	n/a	n/a	n/a
308.8	2.17	cognitive	expectrating	10	low_cue	n/a	4.31	Weak	4.31	Weak	0.03	2.13	task-social/cue/runtype-cognitive/scl/l001.png	n/a	n/a	n/a	n/a	n/a	n/a	n/a	n/a
318.41	5.0	cognitive	stimulus	10	low_cue	med_stim	n/a	n/a	n/a	n/a	n/a	n/a	task-social/stim/runtype-cognitive/44_100.jpg	n/a	n/a	n/a	n/a	n/a	same	same	True
327.29	2.8	cognitive	outcomerating	10	low_cue	med_stim	8.33	Weak	8.33	Weak	0.45	2.35	task-social/outcomerating/task-cognitive_scale.png	n/a	n/a	n/a	n/a	n/a	n/a	n/a	n/a
333.49	0.99	cognitive	cue	11	high_cue	n/a	n/a	n/a	n/a	n/a	n/a	n/a	n/a	n/a	n/a	n/a	n/a	n/a	n/a	n/a	n/a
336.51	3.15	cognitive	expectrating	11	high_cue	n/a	40.9	Strong	40.9	Strong	0.12	3.03	task-social/cue/runtype-cognitive/sch/h036.png	n/a	n/a	n/a	n/a	n/a	n/a	n/a	n/a
348.8	5.0	cognitive	stimulus	11	high_cue	med_stim	n/a	n/a	n/a	n/a	n/a	n/a	task-social/stim/runtype-cognitive/44_100_R.jpg	n/a	n/a	n/a	n/a	n/a	diff	diff	True
361.2	1.83	cognitive	outcomerating	11	high_cue	med_stim	5.09	Weak	5.09	Weak	0.6	1.23	task-social/outcomerating/task-cognitive_scale.png	n/a	n/a	n/a	n/a	n/a	n/a	n/a	n/a
372.09	0.99	cognitive	cue	12	low_cue	n/a	n/a	n/a	n/a	n/a	n/a	n/a	n/a	n/a	n/a	n/a	n/a	n/a	n/a	n/a	n/a
375.09	2.45	cognitive	expectrating	12	low_cue	n/a	6.39	Weak	6.39	Weak	0.15	2.3	task-social/cue/runtype-cognitive/scl/l051.png	n/a	n/a	n/a	n/a	n/a	n/a	n/a	n/a
385.7	5.0	cognitive	stimulus	12	low_cue	low_stim	n/a	n/a	n/a	n/a	n/a	n/a	task-social/stim/runtype-cognitive/43_50_R.jpg	n/a	n/a	n/a	n/a	n/a	diff	diff	True
394.7	2.57	cognitive	outcomerating	12	low_cue	low_stim	3.22	Weak	3.22	Weak	0.5	2.07	task-social/outcomerating/task-cognitive_scale.png	n/a	n/a	n/a	n/a	n/a	n/a	n/a	n/a
