onset	duration	trial_type	response_angle	response_label	block_condition	mentalizing_level	stim_file_TODO
2.811	3.114	cue	n/a	n/a	mentalizing	angry	n/a
5.925	5.227	video	n/a	n/a	mentalizing	angry	task-shortvideo/ses-03_run-01_order-10_content-captureflag.mp4
11.248	2.655	rating	14.21	Moderate	mentalizing	angry	n/a
12.281	1.622	rating_mouse_trajectory	14.21	Moderate	mentalizing	angry	n/a
16.351	5.568	video	n/a	n/a	mentalizing	angry	task-shortvideo/ses-03_run-01_order-11_content-menrunning.mp4
21.985	2.168	rating	12.03	Moderate	mentalizing	angry	n/a
22.885	1.268	rating_mouse_trajectory	12.03	Moderate	mentalizing	angry	n/a
27.059	5.51	video	n/a	n/a	mentalizing	angry	task-shortvideo/ses-03_run-01_order-15_content-giving.mp4
32.639	2.685	rating	12.48	Moderate	mentalizing	angry	n/a
33.822	1.501	rating_mouse_trajectory	12.48	Moderate	mentalizing	angry	n/a
37.674	3.14	cue	n/a	n/a	likeability	n/a	n/a
40.814	6.848	video	n/a	n/a	likeability	n/a	task-shortvideo/ses-03_run-01_order-04_content-unefille.mp4
47.728	2.425	rating	43.34	Strong	likeability	n/a	n/a
48.145	2.008	rating_mouse_trajectory	43.34	Strong	likeability	n/a	n/a
52.799	5.8	video	n/a	n/a	likeability	n/a	task-shortvideo/ses-03_run-01_order-16_content-huggingpets.mp4
58.682	2.271	rating	52.58	Strong	likeability	n/a	n/a
59.082	1.871	rating_mouse_trajectory	52.58	Strong	likeability	n/a	n/a
63.78	5.173	video	n/a	n/a	likeability	n/a	task-shortvideo/ses-03_run-01_order-09_content-knifegame.mp4
69.019	2.135	rating	2.8	Barely detectable	likeability	n/a	n/a
69.653	1.502	rating_mouse_trajectory	2.8	Barely detectable	likeability	n/a	n/a
74.038	3.169	cue	n/a	n/a	similarity	n/a	n/a
77.206	5.113	video	n/a	n/a	similarity	n/a	task-shortvideo/ses-03_run-01_order-06_content-war.mp4
82.391	1.201	rating	0.0	No sensation	similarity	n/a	n/a
82.958	0.634	rating_mouse_trajectory	0.0	No sensation	similarity	n/a	n/a
87.481	6.839	video	n/a	n/a	similarity	n/a	task-shortvideo/ses-03_run-01_order-04_content-unefille.mp4
94.379	1.591	rating	24.2	Moderate	similarity	n/a	n/a
94.962	1.007	rating_mouse_trajectory	24.2	Moderate	similarity	n/a	n/a
99.52	6.682	video	n/a	n/a	similarity	n/a	task-shortvideo/ses-03_run-01_order-02_content-HB.mp4
106.266	1.736	rating	0.7	Barely detectable	similarity	n/a	n/a
107.066	0.936	rating_mouse_trajectory	0.7	Barely detectable	similarity	n/a	n/a
111.285	3.125	cue	n/a	n/a	likeability	n/a	n/a
114.41	6.192	video	n/a	n/a	likeability	n/a	task-shortvideo/ses-03_run-01_order-08_content-dancewithdeath.mp4
120.672	1.284	rating	7.64	Weak	likeability	n/a	n/a
121.322	0.634	rating_mouse_trajectory	7.64	Weak	likeability	n/a	n/a
125.799	5.111	video	n/a	n/a	likeability	n/a	task-shortvideo/ses-03_run-01_order-06_content-war.mp4
130.976	1.251	rating	0.0	No sensation	likeability	n/a	n/a
131.292	0.934	rating_mouse_trajectory	0.0	No sensation	likeability	n/a	n/a
136.085	5.568	video	n/a	n/a	likeability	n/a	task-shortvideo/ses-03_run-01_order-20_content-cupstacking.mp4
141.713	1.573	rating	43.23	Strong	likeability	n/a	n/a
142.346	0.94	rating_mouse_trajectory	43.23	Strong	likeability	n/a	n/a
146.732	3.112	cue	n/a	n/a	mentalizing	tired	n/a
149.844	5.292	video	n/a	n/a	mentalizing	tired	task-shortvideo/ses-03_run-01_order-07_content-youth.mp4
155.201	2.335	rating	11.81	Moderate	mentalizing	tired	n/a
156.251	1.285	rating_mouse_trajectory	11.81	Moderate	mentalizing	tired	n/a
160.311	6.345	video	n/a	n/a	mentalizing	tired	task-shortvideo/ses-03_run-01_order-17_content-freesolo.mp4
166.722	2.368	rating	78.69	Very strong	mentalizing	tired	n/a
167.439	1.651	rating_mouse_trajectory	78.69	Very strong	mentalizing	tired	n/a
171.846	5.114	video	n/a	n/a	mentalizing	tired	task-shortvideo/ses-03_run-01_order-06_content-war.mp4
177.026	1.601	rating	66.14	Very strong	mentalizing	tired	n/a
177.826	0.801	rating_mouse_trajectory	66.14	Very strong	mentalizing	tired	n/a
182.045	3.133	cue	n/a	n/a	similarity	n/a	n/a
185.178	5.02	video	n/a	n/a	similarity	n/a	task-shortvideo/ses-03_run-01_order-12_content-photography.mp4
190.264	1.638	rating	6.26	Weak	similarity	n/a	n/a
190.998	0.905	rating_mouse_trajectory	6.26	Weak	similarity	n/a	n/a
195.355	5.031	video	n/a	n/a	similarity	n/a	task-shortvideo/ses-03_run-01_order-01_content-visswar.mp4
200.452	1.118	rating	0.23	Barely detectable	similarity	n/a	n/a
200.968	0.601	rating_mouse_trajectory	0.23	Barely detectable	similarity	n/a	n/a
205.52	5.219	video	n/a	n/a	similarity	n/a	task-shortvideo/ses-03_run-01_order-10_content-captureflag.mp4
210.789	1.168	rating	1.46	Barely detectable	similarity	n/a	n/a
211.322	0.634	rating_mouse_trajectory	1.46	Barely detectable	similarity	n/a	n/a
215.807	3.185	cue	n/a	n/a	likeability	n/a	n/a
218.992	6.669	video	n/a	n/a	likeability	n/a	task-shortvideo/ses-03_run-01_order-02_content-HB.mp4
225.728	1.151	rating	0.92	Barely detectable	likeability	n/a	n/a
226.361	0.517	rating_mouse_trajectory	0.92	Barely detectable	likeability	n/a	n/a
230.808	5.307	video	n/a	n/a	likeability	n/a	task-shortvideo/ses-03_run-01_order-07_content-youth.mp4
236.165	1.804	rating	24.06	Moderate	likeability	n/a	n/a
236.698	1.271	rating_mouse_trajectory	24.06	Moderate	likeability	n/a	n/a
241.239	5.23	video	n/a	n/a	likeability	n/a	task-shortvideo/ses-03_run-01_order-10_content-captureflag.mp4
246.535	2.068	rating	8.62	Weak	likeability	n/a	n/a
246.969	1.634	rating_mouse_trajectory	8.62	Weak	likeability	n/a	n/a
251.571	3.129	cue	n/a	n/a	mentalizing	enjoy	n/a
254.7	5.007	video	n/a	n/a	mentalizing	enjoy	task-shortvideo/ses-03_run-01_order-12_content-photography.mp4
259.774	3.051	rating	100.19	Strongest possible	mentalizing	enjoy	n/a
261.19	1.635	rating_mouse_trajectory	100.19	Strongest possible	mentalizing	enjoy	n/a
264.856	6.197	video	n/a	n/a	mentalizing	enjoy	task-shortvideo/ses-03_run-01_order-08_content-dancewithdeath.mp4
271.111	1.925	rating	162.09	Strongest possible	mentalizing	enjoy	n/a
271.828	1.208	rating_mouse_trajectory	162.09	Strongest possible	mentalizing	enjoy	n/a
276.224	5.562	video	n/a	n/a	mentalizing	enjoy	task-shortvideo/ses-03_run-01_order-20_content-cupstacking.mp4
281.865	1.854	rating	127.09	Strongest possible	mentalizing	enjoy	n/a
282.399	1.321	rating_mouse_trajectory	127.09	Strongest possible	mentalizing	enjoy	n/a
286.901	3.137	cue	n/a	n/a	similarity	n/a	n/a
290.037	5.183	video	n/a	n/a	similarity	n/a	task-shortvideo/ses-03_run-01_order-09_content-knifegame.mp4
295.287	0.851	rating	2.3	Barely detectable	similarity	n/a	n/a
295.67	0.467	rating_mouse_trajectory	2.3	Barely detectable	similarity	n/a	n/a
300.359	5.399	video	n/a	n/a	similarity	n/a	task-shortvideo/ses-03_run-01_order-19_content-beatbox.mp4
305.824	1.367	rating	0.24	Barely detectable	similarity	n/a	n/a
306.658	0.534	rating_mouse_trajectory	0.24	Barely detectable	similarity	n/a	n/a
310.94	5.555	video	n/a	n/a	similarity	n/a	task-shortvideo/ses-03_run-01_order-11_content-menrunning.mp4
316.562	1.017	rating	20.67	Moderate	similarity	n/a	n/a
317.062	0.517	rating_mouse_trajectory	20.67	Moderate	similarity	n/a	n/a
321.58	3.152	cue	n/a	n/a	likeability	n/a	n/a
324.732	6.354	video	n/a	n/a	likeability	n/a	task-shortvideo/ses-03_run-01_order-17_content-freesolo.mp4
331.15	2.252	rating	62.01	Strong	likeability	n/a	n/a
331.717	1.686	rating_mouse_trajectory	62.01	Strong	likeability	n/a	n/a
336.246	4.092	video	n/a	n/a	likeability	n/a	task-shortvideo/ses-03_run-01_order-05_content-parkour.mp4
340.404	1.768	rating	17.49	Moderate	likeability	n/a	n/a
341.304	0.868	rating_mouse_trajectory	17.49	Moderate	likeability	n/a	n/a
345.487	5.504	video	n/a	n/a	likeability	n/a	task-shortvideo/ses-03_run-01_order-15_content-giving.mp4
351.058	1.351	rating	44.83	Strong	likeability	n/a	n/a
351.491	0.917	rating_mouse_trajectory	44.83	Strong	likeability	n/a	n/a
356.076	3.136	cue	n/a	n/a	similarity	n/a	n/a
359.212	5.834	video	n/a	n/a	similarity	n/a	task-shortvideo/ses-03_run-01_order-03_content-bestfriendsweating.mp4
365.113	2.023	rating	60.87	Strong	similarity	n/a	n/a
365.68	1.456	rating_mouse_trajectory	60.87	Strong	similarity	n/a	n/a
370.222	5.164	video	n/a	n/a	similarity	n/a	task-shortvideo/ses-03_run-01_order-13_content-wanderers.mp4
375.45	1.202	rating	10.41	Moderate	similarity	n/a	n/a
375.784	0.869	rating_mouse_trajectory	10.41	Moderate	similarity	n/a	n/a
380.554	6.351	video	n/a	n/a	similarity	n/a	task-shortvideo/ses-03_run-01_order-17_content-freesolo.mp4
386.971	1.317	rating	0.0	No sensation	similarity	n/a	n/a
387.438	0.851	rating_mouse_trajectory	0.0	No sensation	similarity	n/a	n/a
391.99	3.133	cue	n/a	n/a	likeability	n/a	n/a
395.123	5.846	video	n/a	n/a	likeability	n/a	task-shortvideo/ses-03_run-01_order-03_content-bestfriendsweating.mp4
401.026	1.093	rating	0.23	Barely detectable	likeability	n/a	n/a
401.626	0.493	rating_mouse_trajectory	0.23	Barely detectable	likeability	n/a	n/a
406.13	5.173	video	n/a	n/a	likeability	n/a	task-shortvideo/ses-03_run-01_order-13_content-wanderers.mp4
411.364	2.056	rating	58.38	Strong	likeability	n/a	n/a
411.764	1.656	rating_mouse_trajectory	58.38	Strong	likeability	n/a	n/a
416.467	6.119	video	n/a	n/a	likeability	n/a	task-shortvideo/ses-03_run-01_order-14_content-alwaysafamily.mp4
422.651	1.718	rating	61.48	Strong	likeability	n/a	n/a
423.134	1.235	rating_mouse_trajectory	61.48	Strong	likeability	n/a	n/a
427.686	3.119	cue	n/a	n/a	similarity	n/a	n/a
430.805	5.502	video	n/a	n/a	similarity	n/a	task-shortvideo/ses-03_run-01_order-15_content-giving.mp4
436.373	0.917	rating	0.46	Barely detectable	similarity	n/a	n/a
436.823	0.467	rating_mouse_trajectory	0.46	Barely detectable	similarity	n/a	n/a
441.471	6.131	video	n/a	n/a	similarity	n/a	task-shortvideo/ses-03_run-01_order-14_content-alwaysafamily.mp4
447.66	2.109	rating	0.46	Barely detectable	similarity	n/a	n/a
448.277	1.492	rating_mouse_trajectory	0.46	Barely detectable	similarity	n/a	n/a
452.779	5.018	video	n/a	n/a	similarity	n/a	task-shortvideo/ses-03_run-01_order-21_content-iceblock.mp4
457.864	2.655	rating	59.51	Strong	similarity	n/a	n/a
458.831	1.688	rating_mouse_trajectory	59.51	Strong	similarity	n/a	n/a
462.883	3.167	cue	n/a	n/a	mentalizing	remember	n/a
466.05	5.02	video	n/a	n/a	mentalizing	remember	task-shortvideo/ses-03_run-01_order-21_content-iceblock.mp4
471.153	1.868	rating	5.76	Weak	mentalizing	remember	n/a
472.386	0.634	rating_mouse_trajectory	5.76	Weak	mentalizing	remember	n/a
476.25	5.186	video	n/a	n/a	mentalizing	remember	task-shortvideo/ses-03_run-01_order-09_content-knifegame.mp4
481.49	1.684	rating	0.0	No sensation	mentalizing	remember	n/a
482.206	0.967	rating_mouse_trajectory	0.0	No sensation	mentalizing	remember	n/a
486.585	5.843	video	n/a	n/a	mentalizing	remember	task-shortvideo/ses-03_run-01_order-03_content-bestfriendsweating.mp4
492.494	1.384	rating	27.19	Moderate	mentalizing	remember	n/a
492.994	0.884	rating_mouse_trajectory	27.19	Moderate	mentalizing	remember	n/a
497.529	3.148	cue	n/a	n/a	similarity	n/a	n/a
500.677	5.559	video	n/a	n/a	similarity	n/a	task-shortvideo/ses-03_run-01_order-20_content-cupstacking.mp4
506.299	1.62	rating	11.86	Moderate	similarity	n/a	n/a
506.682	1.237	rating_mouse_trajectory	11.86	Moderate	similarity	n/a	n/a
511.407	5.329	video	n/a	n/a	similarity	n/a	task-shortvideo/ses-03_run-01_order-18_content-angrygrandpa.mp4
516.803	2.218	rating	0.0	No sensation	similarity	n/a	n/a
518.203	0.818	rating_mouse_trajectory	0.0	No sensation	similarity	n/a	n/a
521.912	4.078	video	n/a	n/a	similarity	n/a	task-shortvideo/ses-03_run-01_order-05_content-parkour.mp4
526.056	2.351	rating	22.55	Moderate	similarity	n/a	n/a
527.24	1.168	rating_mouse_trajectory	22.55	Moderate	similarity	n/a	n/a
531.075	3.144	cue	n/a	n/a	mentalizing	heights	n/a
534.219	4.075	video	n/a	n/a	mentalizing	heights	task-shortvideo/ses-03_run-01_order-05_content-parkour.mp4
538.361	2.151	rating	0.0	No sensation	mentalizing	heights	n/a
539.861	0.651	rating_mouse_trajectory	0.0	No sensation	mentalizing	heights	n/a
543.503	6.679	video	n/a	n/a	mentalizing	heights	task-shortvideo/ses-03_run-01_order-02_content-HB.mp4
550.249	1.537	rating	0.96	Barely detectable	mentalizing	heights	n/a
551.132	0.654	rating_mouse_trajectory	0.96	Barely detectable	mentalizing	heights	n/a
555.362	5.174	video	n/a	n/a	mentalizing	heights	task-shortvideo/ses-03_run-01_order-13_content-wanderers.mp4
560.603	0.85	rating	0.0	No sensation	mentalizing	heights	n/a
560.886	0.567	rating_mouse_trajectory	0.0	No sensation	mentalizing	heights	n/a
565.621	3.142	cue	n/a	n/a	likeability	n/a	n/a
568.763	5.556	video	n/a	n/a	likeability	n/a	task-shortvideo/ses-03_run-01_order-11_content-menrunning.mp4
574.374	1.478	rating	8.89	Weak	likeability	n/a	n/a
574.774	1.078	rating_mouse_trajectory	8.89	Weak	likeability	n/a	n/a
579.474	5.045	video	n/a	n/a	likeability	n/a	task-shortvideo/ses-03_run-01_order-01_content-visswar.mp4
584.578	1.491	rating	0.0	No sensation	likeability	n/a	n/a
585.212	0.858	rating_mouse_trajectory	0.0	No sensation	likeability	n/a	n/a
589.677	5.009	video	n/a	n/a	likeability	n/a	task-shortvideo/ses-03_run-01_order-21_content-iceblock.mp4
594.749	1.754	rating	10.18	Moderate	likeability	n/a	n/a
595.465	1.037	rating_mouse_trajectory	10.18	Moderate	likeability	n/a	n/a
599.767	3.13	cue	n/a	n/a	mentalizing	calm	n/a
602.897	5.04	video	n/a	n/a	mentalizing	calm	task-shortvideo/ses-03_run-01_order-01_content-visswar.mp4
608.004	3.468	rating	4.88	Weak	mentalizing	calm	n/a
609.27	2.201	rating_mouse_trajectory	4.88	Weak	mentalizing	calm	n/a
613.1	6.842	video	n/a	n/a	mentalizing	calm	task-shortvideo/ses-03_run-01_order-04_content-unefille.mp4
620.008	2.018	rating	60.29	Strong	mentalizing	calm	n/a
620.575	1.451	rating_mouse_trajectory	60.29	Strong	mentalizing	calm	n/a
625.077	5.793	video	n/a	n/a	mentalizing	calm	task-shortvideo/ses-03_run-01_order-16_content-huggingpets.mp4
630.929	2.307	rating	116.13	Strongest possible	mentalizing	calm	n/a
631.929	1.307	rating_mouse_trajectory	116.13	Strongest possible	mentalizing	calm	n/a
635.947	3.135	cue	n/a	n/a	likeability	n/a	n/a
639.083	5.003	video	n/a	n/a	likeability	n/a	task-shortvideo/ses-03_run-01_order-12_content-photography.mp4
644.15	1.452	rating	11.63	Moderate	likeability	n/a	n/a
644.55	1.052	rating_mouse_trajectory	11.63	Moderate	likeability	n/a	n/a
649.262	5.326	video	n/a	n/a	likeability	n/a	task-shortvideo/ses-03_run-01_order-18_content-angrygrandpa.mp4
654.654	1.334	rating	8.0	Weak	likeability	n/a	n/a
655.338	0.651	rating_mouse_trajectory	8.0	Weak	likeability	n/a	n/a
659.727	5.399	video	n/a	n/a	likeability	n/a	task-shortvideo/ses-03_run-01_order-19_content-beatbox.mp4
665.192	1.251	rating	21.84	Moderate	likeability	n/a	n/a
665.858	0.584	rating_mouse_trajectory	21.84	Moderate	likeability	n/a	n/a
670.21	3.139	cue	n/a	n/a	mentalizing	danger	n/a
673.349	6.12	video	n/a	n/a	mentalizing	danger	task-shortvideo/ses-03_run-01_order-14_content-alwaysafamily.mp4
679.53	2.906	rating	8.1	Weak	mentalizing	danger	n/a
681.23	1.206	rating_mouse_trajectory	8.1	Weak	mentalizing	danger	n/a
684.605	5.4	video	n/a	n/a	mentalizing	danger	task-shortvideo/ses-03_run-01_order-19_content-beatbox.mp4
690.068	1.368	rating	0.25	Barely detectable	mentalizing	danger	n/a
690.834	0.602	rating_mouse_trajectory	0.25	Barely detectable	mentalizing	danger	n/a
695.176	5.327	video	n/a	n/a	mentalizing	danger	task-shortvideo/ses-03_run-01_order-18_content-angrygrandpa.mp4
700.571	1.117	rating	0.0	No sensation	mentalizing	danger	n/a
701.121	0.567	rating_mouse_trajectory	0.0	No sensation	mentalizing	danger	n/a
705.607	3.12	cue	n/a	n/a	similarity	n/a	n/a
708.726	5.3	video	n/a	n/a	similarity	n/a	task-shortvideo/ses-03_run-01_order-07_content-youth.mp4
714.076	2.193	rating	90.25	Very strong	similarity	n/a	n/a
714.51	1.759	rating_mouse_trajectory	90.25	Very strong	similarity	n/a	n/a
719.16	6.193	video	n/a	n/a	similarity	n/a	task-shortvideo/ses-03_run-01_order-08_content-dancewithdeath.mp4
725.414	2.105	rating	66.71	Very strong	similarity	n/a	n/a
726.697	0.822	rating_mouse_trajectory	66.71	Very strong	similarity	n/a	n/a
730.483	5.802	video	n/a	n/a	similarity	n/a	task-shortvideo/ses-03_run-01_order-16_content-huggingpets.mp4
736.351	0.951	rating	160.8	Strongest possible	similarity	n/a	n/a
736.701	0.601	rating_mouse_trajectory	160.8	Strongest possible	similarity	n/a	n/a
