onset	duration	run_type	trial_type	trial_index	cue	stimulusintensity	rating_value	rating_glmslabel	rating_value_fillna	rating_glmslabel_fillna	rating_mouseonset	rating_mousedur	stim_file	pain_onset_ttl1	pain_onset_ttl2	pain_onset_ttl3	pain_onset_ttl4	pain_stimulus_delivery_success	cognitive_correct_response	cognitive_participant_response	cognitive_response_accuracy
8.0	0.98	cognitive	cue	1	low_cue	n/a	n/a	n/a	n/a	n/a	n/a	n/a	n/a	n/a	n/a	n/a	n/a	n/a	n/a	n/a	n/a
11.22	0.87	cognitive	expectrating	1	low_cue	n/a	6.37	Weak	6.37	Weak	0.37	0.5	task-social/cue/runtype-cognitive/scl/l011.png	n/a	n/a	n/a	n/a	n/a	n/a	n/a	n/a
21.31	5.0	cognitive	stimulus	1	low_cue	med_stim	n/a	n/a	n/a	n/a	n/a	n/a	task-social/stim/runtype-cognitive/34_100_R.jpg	n/a	n/a	n/a	n/a	n/a	diff	same	False
33.39	1.75	cognitive	outcomerating	1	low_cue	med_stim	15.82	Moderate	15.82	Moderate	0.62	1.14	task-social/outcomerating/task-cognitive_scale.png	n/a	n/a	n/a	n/a	n/a	n/a	n/a	n/a
40.7	0.98	cognitive	cue	2	high_cue	n/a	n/a	n/a	n/a	n/a	n/a	n/a	n/a	n/a	n/a	n/a	n/a	n/a	n/a	n/a	n/a
43.6	1.93	cognitive	expectrating	2	high_cue	n/a	69.96	Very Strong	69.96	Very Strong	0.93	1.0	task-social/cue/runtype-cognitive/sch/h013.png	n/a	n/a	n/a	n/a	n/a	n/a	n/a	n/a
53.7	5.0	cognitive	stimulus	2	high_cue	low_stim	n/a	n/a	n/a	n/a	n/a	n/a	task-social/stim/runtype-cognitive/6_50.jpg	n/a	n/a	n/a	n/a	n/a	same	same	True
61.6	1.82	cognitive	outcomerating	2	high_cue	low_stim	10.63	Moderate	10.63	Moderate	0.7	1.12	task-social/outcomerating/task-cognitive_scale.png	n/a	n/a	n/a	n/a	n/a	n/a	n/a	n/a
70.79	0.99	cognitive	cue	3	high_cue	n/a	n/a	n/a	n/a	n/a	n/a	n/a	n/a	n/a	n/a	n/a	n/a	n/a	n/a	n/a	n/a
73.69	1.39	cognitive	expectrating	3	high_cue	n/a	62.5	Strong	62.5	Strong	0.55	0.84	task-social/cue/runtype-cognitive/sch/h034.png	n/a	n/a	n/a	n/a	n/a	n/a	n/a	n/a
90.9	5.0	cognitive	stimulus	3	high_cue	high_stim	n/a	n/a	n/a	n/a	n/a	n/a	task-social/stim/runtype-cognitive/4_150_R.jpg	n/a	n/a	n/a	n/a	n/a	diff	diff	True
102.9	2.7	cognitive	outcomerating	3	high_cue	high_stim	2.76	Barely detectable	2.76	Barely detectable	0.82	1.88	task-social/outcomerating/task-cognitive_scale.png	n/a	n/a	n/a	n/a	n/a	n/a	n/a	n/a
108.79	0.99	cognitive	cue	4	low_cue	n/a	n/a	n/a	n/a	n/a	n/a	n/a	n/a	n/a	n/a	n/a	n/a	n/a	n/a	n/a	n/a
111.59	1.61	cognitive	expectrating	4	low_cue	n/a	38.34	Strong	38.34	Strong	0.8	0.81	task-social/cue/runtype-cognitive/scl/l026.png	n/a	n/a	n/a	n/a	n/a	n/a	n/a	n/a
119.29	5.0	cognitive	stimulus	4	low_cue	med_stim	n/a	n/a	n/a	n/a	n/a	n/a	task-social/stim/runtype-cognitive/31_100_R.jpg	n/a	n/a	n/a	n/a	n/a	diff	diff	True
126.8	1.38	cognitive	outcomerating	4	low_cue	med_stim	35.3	Strong	35.3	Strong	0.8	0.58	task-social/outcomerating/task-cognitive_scale.png	n/a	n/a	n/a	n/a	n/a	n/a	n/a	n/a
134.1	0.98	cognitive	cue	5	high_cue	n/a	n/a	n/a	n/a	n/a	n/a	n/a	n/a	n/a	n/a	n/a	n/a	n/a	n/a	n/a	n/a
135.7	1.95	cognitive	expectrating	5	high_cue	n/a	64.87	Very Strong	64.87	Very Strong	0.62	1.33	task-social/cue/runtype-cognitive/sch/h041.png	n/a	n/a	n/a	n/a	n/a	n/a	n/a	n/a
145.8	5.0	cognitive	stimulus	5	high_cue	low_stim	n/a	n/a	n/a	n/a	n/a	n/a	task-social/stim/runtype-cognitive/34_50.jpg	n/a	n/a	n/a	n/a	n/a	same	same	True
153.41	1.67	cognitive	outcomerating	5	high_cue	low_stim	19.45	Moderate	19.45	Moderate	0.85	0.82	task-social/outcomerating/task-cognitive_scale.png	n/a	n/a	n/a	n/a	n/a	n/a	n/a	n/a
164.59	0.99	cognitive	cue	6	low_cue	n/a	n/a	n/a	n/a	n/a	n/a	n/a	n/a	n/a	n/a	n/a	n/a	n/a	n/a	n/a	n/a
166.89	1.85	cognitive	expectrating	6	low_cue	n/a	28.63	Moderate	28.63	Moderate	1.05	0.8	task-social/cue/runtype-cognitive/scl/l046.png	n/a	n/a	n/a	n/a	n/a	n/a	n/a	n/a
173.9	5.0	cognitive	stimulus	6	low_cue	high_stim	n/a	n/a	n/a	n/a	n/a	n/a	task-social/stim/runtype-cognitive/6_150_R.jpg	n/a	n/a	n/a	n/a	n/a	diff	diff	True
189.7	1.67	cognitive	outcomerating	6	low_cue	high_stim	13.25	Moderate	13.25	Moderate	0.73	0.93	task-social/outcomerating/task-cognitive_scale.png	n/a	n/a	n/a	n/a	n/a	n/a	n/a	n/a
196.99	0.99	cognitive	cue	7	low_cue	n/a	n/a	n/a	n/a	n/a	n/a	n/a	n/a	n/a	n/a	n/a	n/a	n/a	n/a	n/a	n/a
198.99	1.16	cognitive	expectrating	7	low_cue	n/a	0.0	n/a	0.0	n/a	0.32	0.84	task-social/cue/runtype-cognitive/scl/l016.png	n/a	n/a	n/a	n/a	n/a	n/a	n/a	n/a
208.49	5.0	cognitive	stimulus	7	low_cue	low_stim	n/a	n/a	n/a	n/a	n/a	n/a	task-social/stim/runtype-cognitive/29_50_R.jpg	n/a	n/a	n/a	n/a	n/a	diff	diff	True
220.7	1.85	cognitive	outcomerating	7	low_cue	low_stim	66.11	Very Strong	66.11	Very Strong	0.58	1.27	task-social/outcomerating/task-cognitive_scale.png	n/a	n/a	n/a	n/a	n/a	n/a	n/a	n/a
225.5	0.98	cognitive	cue	8	high_cue	n/a	n/a	n/a	n/a	n/a	n/a	n/a	n/a	n/a	n/a	n/a	n/a	n/a	n/a	n/a	n/a
227.9	2.22	cognitive	expectrating	8	high_cue	n/a	46.16	Strong	46.16	Strong	0.95	1.27	task-social/cue/runtype-cognitive/sch/h002.png	n/a	n/a	n/a	n/a	n/a	n/a	n/a	n/a
237.39	5.0	cognitive	stimulus	8	high_cue	med_stim	n/a	n/a	n/a	n/a	n/a	n/a	task-social/stim/runtype-cognitive/8_100_R.jpg	n/a	n/a	n/a	n/a	n/a	diff	diff	True
247.49	1.77	cognitive	outcomerating	8	high_cue	med_stim	26.77	Moderate	26.77	Moderate	0.92	0.86	task-social/outcomerating/task-cognitive_scale.png	n/a	n/a	n/a	n/a	n/a	n/a	n/a	n/a
255.09	0.99	cognitive	cue	9	low_cue	n/a	n/a	n/a	n/a	n/a	n/a	n/a	n/a	n/a	n/a	n/a	n/a	n/a	n/a	n/a	n/a
257.11	1.17	cognitive	expectrating	9	low_cue	n/a	1.4	Barely detectable	1.4	Barely detectable	0.3	0.87	task-social/cue/runtype-cognitive/scl/l017.png	n/a	n/a	n/a	n/a	n/a	n/a	n/a	n/a
264.8	5.0	cognitive	stimulus	9	low_cue	high_stim	n/a	n/a	n/a	n/a	n/a	n/a	task-social/stim/runtype-cognitive/39_150.jpg	n/a	n/a	n/a	n/a	n/a	same	same	True
278.3	1.43	cognitive	outcomerating	9	low_cue	high_stim	9.91	Weak	9.91	Weak	0.52	0.92	task-social/outcomerating/task-cognitive_scale.png	n/a	n/a	n/a	n/a	n/a	n/a	n/a	n/a
288.59	0.99	cognitive	cue	10	high_cue	n/a	n/a	n/a	n/a	n/a	n/a	n/a	n/a	n/a	n/a	n/a	n/a	n/a	n/a	n/a	n/a
291.49	1.72	cognitive	expectrating	10	high_cue	n/a	29.86	Strong	29.86	Strong	0.85	0.87	task-social/cue/runtype-cognitive/sch/h048.png	n/a	n/a	n/a	n/a	n/a	n/a	n/a	n/a
301.69	5.0	cognitive	stimulus	10	high_cue	med_stim	n/a	n/a	n/a	n/a	n/a	n/a	task-social/stim/runtype-cognitive/34_100.jpg	n/a	n/a	n/a	n/a	n/a	same	same	True
311.9	2.65	cognitive	outcomerating	10	high_cue	med_stim	53.31	Strong	53.31	Strong	1.33	1.32	task-social/outcomerating/task-cognitive_scale.png	n/a	n/a	n/a	n/a	n/a	n/a	n/a	n/a
319.2	0.98	cognitive	cue	11	low_cue	n/a	n/a	n/a	n/a	n/a	n/a	n/a	n/a	n/a	n/a	n/a	n/a	n/a	n/a	n/a	n/a
322.0	1.5	cognitive	expectrating	11	low_cue	n/a	11.58	Moderate	11.58	Moderate	0.37	1.13	task-social/cue/runtype-cognitive/scl/l022.png	n/a	n/a	n/a	n/a	n/a	n/a	n/a	n/a
332.19	5.0	cognitive	stimulus	11	low_cue	low_stim	n/a	n/a	n/a	n/a	n/a	n/a	task-social/stim/runtype-cognitive/39_50.jpg	n/a	n/a	n/a	n/a	n/a	same	same	True
347.99	1.47	cognitive	outcomerating	11	low_cue	low_stim	8.39	Weak	8.39	Weak	0.93	0.54	task-social/outcomerating/task-cognitive_scale.png	n/a	n/a	n/a	n/a	n/a	n/a	n/a	n/a
362.5	0.98	cognitive	cue	12	high_cue	n/a	n/a	n/a	n/a	n/a	n/a	n/a	n/a	n/a	n/a	n/a	n/a	n/a	n/a	n/a	n/a
364.9	1.48	cognitive	expectrating	12	high_cue	n/a	16.55	Moderate	16.55	Moderate	0.27	1.22	task-social/cue/runtype-cognitive/sch/h051.png	n/a	n/a	n/a	n/a	n/a	n/a	n/a	n/a
381.59	5.0	cognitive	stimulus	12	high_cue	high_stim	n/a	n/a	n/a	n/a	n/a	n/a	task-social/stim/runtype-cognitive/39_150_R.jpg	n/a	n/a	n/a	n/a	n/a	diff	diff	True
394.8	1.68	cognitive	outcomerating	12	high_cue	high_stim	31.4	Strong	31.4	Strong	0.63	1.05	task-social/outcomerating/task-cognitive_scale.png	n/a	n/a	n/a	n/a	n/a	n/a	n/a	n/a
