onset	duration	run_type	trial_type	trial_index	cue	stimulusintensity	rating_value	rating_glmslabel	rating_value_fillna	rating_glmslabel_fillna	rating_mouseonset	rating_mousedur	stim_file_TODO	pain_onset_ttl1	pain_onset_ttl2	pain_onset_ttl3	pain_onset_ttl4	pain_stimulus_delivery_success	cognitive_correct_response	cognitive_participant_response	cognitive_response_accuracy
10.59	0.99	cognitive	cue	1	low_cue	n/a	n/a	n/a	n/a	n/a	n/a	n/a	task-social/cue/runtype-cognitive/scl/l017.png	n/a	n/a	n/a	n/a	n/a	n/a	n/a	n/a
12.36	2.18	cognitive	expectrating	1	low_cue	n/a	23.41	Moderate	23.41	Moderate	0.62	1.57	task-social/cue/runtype-cognitive/scl/l017.png	n/a	n/a	n/a	n/a	n/a	n/a	n/a	n/a
23.11	5.0	cognitive	stimulus	1	low_cue	low_stim	n/a	n/a	n/a	n/a	n/a	n/a	task-social/stim/runtype-cognitive/24_50_R.jpg	n/a	n/a	n/a	n/a	n/a	diff	diff	True
31.1	3.42	cognitive	outcomerating	1	low_cue	low_stim	7.64	Weak	7.64	Weak	0.62	1.57	task-social/outcomerating/task-cognitive_scale.png	n/a	n/a	n/a	n/a	n/a	n/a	n/a	n/a
35.7	0.99	cognitive	cue	2	low_cue	n/a	n/a	n/a	n/a	n/a	n/a	n/a	task-social/cue/runtype-cognitive/scl/l002.png	n/a	n/a	n/a	n/a	n/a	n/a	n/a	n/a
38.0	2.57	cognitive	expectrating	2	low_cue	n/a	10.18	Moderate	10.18	Moderate	0.85	1.72	task-social/cue/runtype-cognitive/scl/l002.png	n/a	n/a	n/a	n/a	n/a	n/a	n/a	n/a
45.81	5.0	cognitive	stimulus	2	low_cue	med_stim	n/a	n/a	n/a	n/a	n/a	n/a	task-social/stim/runtype-cognitive/45_100_R.jpg	n/a	n/a	n/a	n/a	n/a	diff	diff	True
56.31	3.05	cognitive	outcomerating	2	low_cue	med_stim	7.07	Weak	7.07	Weak	0.85	1.72	task-social/outcomerating/task-cognitive_scale.png	n/a	n/a	n/a	n/a	n/a	n/a	n/a	n/a
61.29	0.99	cognitive	cue	3	low_cue	n/a	n/a	n/a	n/a	n/a	n/a	n/a	task-social/cue/runtype-cognitive/scl/l006.png	n/a	n/a	n/a	n/a	n/a	n/a	n/a	n/a
64.21	2.57	cognitive	expectrating	3	low_cue	n/a	11.13	Moderate	11.13	Moderate	0.62	1.96	task-social/cue/runtype-cognitive/scl/l006.png	n/a	n/a	n/a	n/a	n/a	n/a	n/a	n/a
74.2	5.0	cognitive	stimulus	3	low_cue	low_stim	n/a	n/a	n/a	n/a	n/a	n/a	task-social/stim/runtype-cognitive/9_50.jpg	n/a	n/a	n/a	n/a	n/a	same	same	True
86.3	2.08	cognitive	outcomerating	3	low_cue	low_stim	6.9	Weak	6.9	Weak	0.62	1.96	task-social/outcomerating/task-cognitive_scale.png	n/a	n/a	n/a	n/a	n/a	n/a	n/a	n/a
91.31	0.98	cognitive	cue	4	low_cue	n/a	n/a	n/a	n/a	n/a	n/a	n/a	task-social/cue/runtype-cognitive/scl/l016.png	n/a	n/a	n/a	n/a	n/a	n/a	n/a	n/a
93.71	2.12	cognitive	expectrating	4	low_cue	n/a	5.98	Weak	5.98	Weak	0.18	1.93	task-social/cue/runtype-cognitive/scl/l016.png	n/a	n/a	n/a	n/a	n/a	n/a	n/a	n/a
101.81	5.0	cognitive	stimulus	4	low_cue	high_stim	n/a	n/a	n/a	n/a	n/a	n/a	task-social/stim/runtype-cognitive/9_150.jpg	n/a	n/a	n/a	n/a	n/a	same	same	True
112.31	2.22	cognitive	outcomerating	4	low_cue	high_stim	5.3	Weak	5.3	Weak	0.18	1.93	task-social/outcomerating/task-cognitive_scale.png	n/a	n/a	n/a	n/a	n/a	n/a	n/a	n/a
120.0	0.99	cognitive	cue	5	high_cue	n/a	n/a	n/a	n/a	n/a	n/a	n/a	task-social/cue/runtype-cognitive/sch/h024.png	n/a	n/a	n/a	n/a	n/a	n/a	n/a	n/a
122.9	n/a	cognitive	expectrating	5	high_cue	n/a	n/a	n/a	43.7	Strong	0.65	3.62	task-social/cue/runtype-cognitive/sch/h024.png	n/a	n/a	n/a	n/a	n/a	n/a	n/a	n/a
133.81	5.0	cognitive	stimulus	5	high_cue	med_stim	n/a	n/a	n/a	n/a	n/a	n/a	task-social/stim/runtype-cognitive/45_100.jpg	n/a	n/a	n/a	n/a	n/a	same	same	True
142.81	3.52	cognitive	outcomerating	5	high_cue	med_stim	6.7	Weak	6.7	Weak	0.65	3.62	task-social/outcomerating/task-cognitive_scale.png	n/a	n/a	n/a	n/a	n/a	n/a	n/a	n/a
153.9	0.99	cognitive	cue	6	high_cue	n/a	n/a	n/a	n/a	n/a	n/a	n/a	task-social/cue/runtype-cognitive/sch/h052.png	n/a	n/a	n/a	n/a	n/a	n/a	n/a	n/a
155.8	2.82	cognitive	expectrating	6	high_cue	n/a	37.34	Strong	37.34	Strong	0.45	2.37	task-social/cue/runtype-cognitive/sch/h052.png	n/a	n/a	n/a	n/a	n/a	n/a	n/a	n/a
169.8	5.0	cognitive	stimulus	6	high_cue	high_stim	n/a	n/a	n/a	n/a	n/a	n/a	task-social/stim/runtype-cognitive/24_150.jpg	n/a	n/a	n/a	n/a	n/a	same	same	True
184.21	3.07	cognitive	outcomerating	6	high_cue	high_stim	20.04	Moderate	20.04	Moderate	0.45	2.37	task-social/outcomerating/task-cognitive_scale.png	n/a	n/a	n/a	n/a	n/a	n/a	n/a	n/a
194.19	0.99	cognitive	cue	7	high_cue	n/a	n/a	n/a	n/a	n/a	n/a	n/a	task-social/cue/runtype-cognitive/sch/h027.png	n/a	n/a	n/a	n/a	n/a	n/a	n/a	n/a
197.01	2.79	cognitive	expectrating	7	high_cue	n/a	42.57	Strong	42.57	Strong	0.52	2.28	task-social/cue/runtype-cognitive/sch/h027.png	n/a	n/a	n/a	n/a	n/a	n/a	n/a	n/a
206.2	5.0	cognitive	stimulus	7	high_cue	med_stim	n/a	n/a	n/a	n/a	n/a	n/a	task-social/stim/runtype-cognitive/34_100_R.jpg	n/a	n/a	n/a	n/a	n/a	diff	diff	True
214.2	n/a	cognitive	outcomerating	7	high_cue	med_stim	n/a	n/a	13.52	Moderate	0.52	2.28	task-social/outcomerating/task-cognitive_scale.png	n/a	n/a	n/a	n/a	n/a	n/a	n/a	n/a
219.2	0.98	cognitive	cue	8	high_cue	n/a	n/a	n/a	n/a	n/a	n/a	n/a	task-social/cue/runtype-cognitive/sch/h037.png	n/a	n/a	n/a	n/a	n/a	n/a	n/a	n/a
222.1	2.28	cognitive	expectrating	8	high_cue	n/a	50.55	Strong	50.55	Strong	0.53	1.75	task-social/cue/runtype-cognitive/sch/h037.png	n/a	n/a	n/a	n/a	n/a	n/a	n/a	n/a
234.51	5.0	cognitive	stimulus	8	high_cue	low_stim	n/a	n/a	n/a	n/a	n/a	n/a	task-social/stim/runtype-cognitive/48_50.jpg	n/a	n/a	n/a	n/a	n/a	same	same	True
242.7	1.91	cognitive	outcomerating	8	high_cue	low_stim	11.04	Moderate	11.04	Moderate	0.53	1.75	task-social/outcomerating/task-cognitive_scale.png	n/a	n/a	n/a	n/a	n/a	n/a	n/a	n/a
251.4	0.99	cognitive	cue	9	high_cue	n/a	n/a	n/a	n/a	n/a	n/a	n/a	task-social/cue/runtype-cognitive/sch/h002.png	n/a	n/a	n/a	n/a	n/a	n/a	n/a	n/a
253.8	1.85	cognitive	expectrating	9	high_cue	n/a	46.8	Strong	46.8	Strong	0.63	1.22	task-social/cue/runtype-cognitive/sch/h002.png	n/a	n/a	n/a	n/a	n/a	n/a	n/a	n/a
266.7	5.0	cognitive	stimulus	9	high_cue	low_stim	n/a	n/a	n/a	n/a	n/a	n/a	task-social/stim/runtype-cognitive/43_50.jpg	n/a	n/a	n/a	n/a	n/a	same	same	True
280.81	2.33	cognitive	outcomerating	9	high_cue	low_stim	17.77	Moderate	17.77	Moderate	0.63	1.22	task-social/outcomerating/task-cognitive_scale.png	n/a	n/a	n/a	n/a	n/a	n/a	n/a	n/a
285.8	0.99	cognitive	cue	10	high_cue	n/a	n/a	n/a	n/a	n/a	n/a	n/a	task-social/cue/runtype-cognitive/sch/h044.png	n/a	n/a	n/a	n/a	n/a	n/a	n/a	n/a
289.0	3.09	cognitive	expectrating	10	high_cue	n/a	38.44	Strong	38.44	Strong	0.58	2.51	task-social/cue/runtype-cognitive/sch/h044.png	n/a	n/a	n/a	n/a	n/a	n/a	n/a	n/a
298.0	5.0	cognitive	stimulus	10	high_cue	high_stim	n/a	n/a	n/a	n/a	n/a	n/a	task-social/stim/runtype-cognitive/23_150.jpg	n/a	n/a	n/a	n/a	n/a	same	same	True
311.3	3.17	cognitive	outcomerating	10	high_cue	high_stim	18.8	Moderate	18.8	Moderate	0.58	2.51	task-social/outcomerating/task-cognitive_scale.png	n/a	n/a	n/a	n/a	n/a	n/a	n/a	n/a
326.19	0.99	cognitive	cue	11	low_cue	n/a	n/a	n/a	n/a	n/a	n/a	n/a	task-social/cue/runtype-cognitive/scl/l031.png	n/a	n/a	n/a	n/a	n/a	n/a	n/a	n/a
328.09	n/a	cognitive	expectrating	11	low_cue	n/a	n/a	n/a	11.17	Moderate	0.25	3.67	task-social/cue/runtype-cognitive/scl/l031.png	n/a	n/a	n/a	n/a	n/a	n/a	n/a	n/a
342.4	5.0	cognitive	stimulus	11	low_cue	med_stim	n/a	n/a	n/a	n/a	n/a	n/a	task-social/stim/runtype-cognitive/34_100.jpg	n/a	n/a	n/a	n/a	n/a	same	same	True
353.3	n/a	cognitive	outcomerating	11	low_cue	med_stim	n/a	n/a	13.74	Moderate	0.25	3.67	task-social/outcomerating/task-cognitive_scale.png	n/a	n/a	n/a	n/a	n/a	n/a	n/a	n/a
366.39	1.0	cognitive	cue	12	low_cue	n/a	n/a	n/a	n/a	n/a	n/a	n/a	task-social/cue/runtype-cognitive/scl/l042.png	n/a	n/a	n/a	n/a	n/a	n/a	n/a	n/a
369.21	2.03	cognitive	expectrating	12	low_cue	n/a	6.95	Weak	6.95	Weak	0.8	1.23	task-social/cue/runtype-cognitive/scl/l042.png	n/a	n/a	n/a	n/a	n/a	n/a	n/a	n/a
375.8	5.0	cognitive	stimulus	12	low_cue	high_stim	n/a	n/a	n/a	n/a	n/a	n/a	task-social/stim/runtype-cognitive/22_150.jpg	n/a	n/a	n/a	n/a	n/a	same	same	True
394.8	2.68	cognitive	outcomerating	12	low_cue	high_stim	3.75	Weak	3.75	Weak	0.8	1.23	task-social/outcomerating/task-cognitive_scale.png	n/a	n/a	n/a	n/a	n/a	n/a	n/a	n/a
