onset	duration	run_type	trial_type	trial_index	cue	stimulusintensity	rating_value	rating_glmslabel	rating_value_fillna	rating_glmslabel_fillna	rating_mouseonset	rating_mousedur	stim_file	pain_onset_ttl1	pain_onset_ttl2	pain_onset_ttl3	pain_onset_ttl4	pain_stimulus_delivery_success	cognitive_correct_response	cognitive_participant_response	cognitive_response_accuracy
5.49	1.0	pain	cue	1	low_cue	n/a	n/a	n/a	n/a	n/a	n/a	n/a	task-social/cue/runtype-pain/scl/l038.png	n/a	n/a	n/a	n/a	n/a	n/a	n/a	n/a
7.51	2.02	pain	expectrating	1	low_cue	n/a	6.28	Weak	6.28	Weak	0.98	1.04	task-social/cue/runtype-pain/scl/l038.png	n/a	n/a	n/a	n/a	n/a	n/a	n/a	n/a
16.25	12.370000000000001	pain	stimulus	1	low_cue	med_stim	n/a	n/a	n/a	n/a	n/a	n/a	n/a	16.25	20.01	25.01	28.62	success	n/a	n/a	n/a
28.1	2.78	pain	outcomerating	1	low_cue	med_stim	48.42	Strong	48.42	Strong	0.98	1.04	task-social/outcomerating/task-pain_scale.png	n/a	n/a	n/a	n/a	success	n/a	n/a	n/a
33.8	1.0	pain	cue	2	low_cue	n/a	n/a	n/a	n/a	n/a	n/a	n/a	task-social/cue/runtype-pain/scl/l048.png	n/a	n/a	n/a	n/a	n/a	n/a	n/a	n/a
36.1	2.64	pain	expectrating	2	low_cue	n/a	19.09	Moderate	19.09	Moderate	0.73	1.91	task-social/cue/runtype-pain/scl/l048.png	n/a	n/a	n/a	n/a	n/a	n/a	n/a	n/a
47.65	11.910000000000004	pain	stimulus	2	low_cue	low_stim	n/a	n/a	n/a	n/a	n/a	n/a	n/a	47.65	51.15	56.15	59.55	success	n/a	n/a	n/a
58.49	1.72	pain	outcomerating	2	low_cue	low_stim	56.69	Strong	56.69	Strong	0.73	1.91	task-social/outcomerating/task-pain_scale.png	n/a	n/a	n/a	n/a	success	n/a	n/a	n/a
74.2	1.0	pain	cue	3	low_cue	n/a	n/a	n/a	n/a	n/a	n/a	n/a	task-social/cue/runtype-pain/scl/l015.png	n/a	n/a	n/a	n/a	n/a	n/a	n/a	n/a
76.5	1.83	pain	expectrating	3	low_cue	n/a	44.16	Strong	44.16	Strong	0.75	1.08	task-social/cue/runtype-pain/scl/l015.png	n/a	n/a	n/a	n/a	n/a	n/a	n/a	n/a
85.32	12.820000000000007	pain	stimulus	3	low_cue	high_stim	n/a	n/a	n/a	n/a	n/a	n/a	n/a	85.32	89.33	94.33	98.14	success	n/a	n/a	n/a
96.39	2.1	pain	outcomerating	3	low_cue	high_stim	74.56	Very-Strong	74.56	Very-Strong	0.75	1.08	task-social/outcomerating/task-pain_scale.png	n/a	n/a	n/a	n/a	success	n/a	n/a	n/a
103.79	1.0	pain	cue	4	high_cue	n/a	n/a	n/a	n/a	n/a	n/a	n/a	task-social/cue/runtype-pain/sch/h017.png	n/a	n/a	n/a	n/a	n/a	n/a	n/a	n/a
106.6	2.3	pain	expectrating	4	high_cue	n/a	133.7	Strongest-sensation-of-any-kind	133.7	Strongest-sensation-of-any-kind	0.45	1.85	task-social/cue/runtype-pain/sch/h017.png	n/a	n/a	n/a	n/a	n/a	n/a	n/a	n/a
113.23	11.899999999999991	pain	stimulus	4	high_cue	low_stim	n/a	n/a	n/a	n/a	n/a	n/a	n/a	113.23	116.73	121.73	125.13	success	n/a	n/a	n/a
127.4	1.58	pain	outcomerating	4	high_cue	low_stim	85.93	Very-Strong	85.93	Very-Strong	0.45	1.85	task-social/outcomerating/task-pain_scale.png	n/a	n/a	n/a	n/a	success	n/a	n/a	n/a
138.31	0.98	pain	cue	5	high_cue	n/a	n/a	n/a	n/a	n/a	n/a	n/a	task-social/cue/runtype-pain/sch/h046.png	n/a	n/a	n/a	n/a	n/a	n/a	n/a	n/a
140.01	1.87	pain	expectrating	5	high_cue	n/a	93.42	Very-Strong	93.42	Very-Strong	0.55	1.32	task-social/cue/runtype-pain/sch/h046.png	n/a	n/a	n/a	n/a	n/a	n/a	n/a	n/a
153.04	12.360000000000014	pain	stimulus	5	high_cue	med_stim	n/a	n/a	n/a	n/a	n/a	n/a	n/a	153.04	156.8	161.8	165.41	success	n/a	n/a	n/a
167.2	2.25	pain	outcomerating	5	high_cue	med_stim	78.87	Very-Strong	78.87	Very-Strong	0.55	1.32	task-social/outcomerating/task-pain_scale.png	n/a	n/a	n/a	n/a	success	n/a	n/a	n/a
178.09	1.0	pain	cue	6	high_cue	n/a	n/a	n/a	n/a	n/a	n/a	n/a	task-social/cue/runtype-pain/sch/h052.png	n/a	n/a	n/a	n/a	n/a	n/a	n/a	n/a
179.91	2.09	pain	expectrating	6	high_cue	n/a	80.92	Very-Strong	80.92	Very-Strong	0.8	1.29	task-social/cue/runtype-pain/sch/h052.png	n/a	n/a	n/a	n/a	n/a	n/a	n/a	n/a
186.54	12.820000000000022	pain	stimulus	6	high_cue	high_stim	n/a	n/a	n/a	n/a	n/a	n/a	n/a	186.54	190.55	195.55	199.36	success	n/a	n/a	n/a
200.7	1.6	pain	outcomerating	6	high_cue	high_stim	97.15	Very-Strong	97.15	Very-Strong	0.8	1.29	task-social/outcomerating/task-pain_scale.png	n/a	n/a	n/a	n/a	success	n/a	n/a	n/a
206.7	1.0	pain	cue	7	high_cue	n/a	n/a	n/a	n/a	n/a	n/a	n/a	task-social/cue/runtype-pain/sch/h042.png	n/a	n/a	n/a	n/a	n/a	n/a	n/a	n/a
209.7	2.25	pain	expectrating	7	high_cue	n/a	95.81	Very-Strong	95.81	Very-Strong	0.5	1.75	task-social/cue/runtype-pain/sch/h042.png	n/a	n/a	n/a	n/a	n/a	n/a	n/a	n/a
217.35	11.909999999999997	pain	stimulus	7	high_cue	low_stim	n/a	n/a	n/a	n/a	n/a	n/a	n/a	217.35	220.85	225.85	229.25	success	n/a	n/a	n/a
235.79	1.8	pain	outcomerating	7	high_cue	low_stim	73.45	Very-Strong	73.45	Very-Strong	0.5	1.75	task-social/outcomerating/task-pain_scale.png	n/a	n/a	n/a	n/a	success	n/a	n/a	n/a
242.0	1.0	pain	cue	8	low_cue	n/a	n/a	n/a	n/a	n/a	n/a	n/a	task-social/cue/runtype-pain/scl/l014.png	n/a	n/a	n/a	n/a	n/a	n/a	n/a	n/a
244.7	1.48	pain	expectrating	8	low_cue	n/a	62.2	Strong	62.2	Strong	0.53	0.95	task-social/cue/runtype-pain/scl/l014.png	n/a	n/a	n/a	n/a	n/a	n/a	n/a	n/a
251.62	12.819999999999993	pain	stimulus	8	low_cue	high_stim	n/a	n/a	n/a	n/a	n/a	n/a	n/a	251.62	255.63	260.63	264.44	success	n/a	n/a	n/a
261.6	2.05	pain	outcomerating	8	low_cue	high_stim	77.96	Very-Strong	77.96	Very-Strong	0.53	0.95	task-social/outcomerating/task-pain_scale.png	n/a	n/a	n/a	n/a	success	n/a	n/a	n/a
270.79	1.0	pain	cue	9	high_cue	n/a	n/a	n/a	n/a	n/a	n/a	n/a	task-social/cue/runtype-pain/sch/h014.png	n/a	n/a	n/a	n/a	n/a	n/a	n/a	n/a
273.79	1.34	pain	expectrating	9	high_cue	n/a	104.49	Strongest-sensation-of-any-kind	104.49	Strongest-sensation-of-any-kind	0.33	1.0	task-social/cue/runtype-pain/sch/h014.png	n/a	n/a	n/a	n/a	n/a	n/a	n/a	n/a
279.74	12.819999999999993	pain	stimulus	9	high_cue	high_stim	n/a	n/a	n/a	n/a	n/a	n/a	n/a	279.74	283.75	288.75	292.56	success	n/a	n/a	n/a
300.5	1.37	pain	outcomerating	9	high_cue	high_stim	96.23	Very-Strong	96.23	Very-Strong	0.33	1.0	task-social/outcomerating/task-pain_scale.png	n/a	n/a	n/a	n/a	success	n/a	n/a	n/a
306.5	0.98	pain	cue	10	low_cue	n/a	n/a	n/a	n/a	n/a	n/a	n/a	task-social/cue/runtype-pain/scl/l053.png	n/a	n/a	n/a	n/a	n/a	n/a	n/a	n/a
308.8	1.41	pain	expectrating	10	low_cue	n/a	62.36	Strong	62.36	Strong	0.37	1.04	task-social/cue/runtype-pain/scl/l053.png	n/a	n/a	n/a	n/a	n/a	n/a	n/a	n/a
316.42	12.359999999999957	pain	stimulus	10	low_cue	med_stim	n/a	n/a	n/a	n/a	n/a	n/a	n/a	316.42	320.18	325.18	328.79	success	n/a	n/a	n/a
327.29	1.87	pain	outcomerating	10	low_cue	med_stim	76.61	Very-Strong	76.61	Very-Strong	0.37	1.04	task-social/outcomerating/task-pain_scale.png	n/a	n/a	n/a	n/a	success	n/a	n/a	n/a
333.5	1.0	pain	cue	11	high_cue	n/a	n/a	n/a	n/a	n/a	n/a	n/a	task-social/cue/runtype-pain/sch/h033.png	n/a	n/a	n/a	n/a	n/a	n/a	n/a	n/a
336.5	1.52	pain	expectrating	11	high_cue	n/a	90.95	Very-Strong	90.95	Very-Strong	0.45	1.07	task-social/cue/runtype-pain/sch/h033.png	n/a	n/a	n/a	n/a	n/a	n/a	n/a	n/a
346.81	12.360000000000014	pain	stimulus	11	high_cue	med_stim	n/a	n/a	n/a	n/a	n/a	n/a	n/a	346.81	350.57	355.57	359.18	success	n/a	n/a	n/a
361.21	1.45	pain	outcomerating	11	high_cue	med_stim	78.15	Very-Strong	78.15	Very-Strong	0.45	1.07	task-social/outcomerating/task-pain_scale.png	n/a	n/a	n/a	n/a	success	n/a	n/a	n/a
372.09	1.0	pain	cue	12	low_cue	n/a	n/a	n/a	n/a	n/a	n/a	n/a	task-social/cue/runtype-pain/scl/l025.png	n/a	n/a	n/a	n/a	n/a	n/a	n/a	n/a
375.1	1.32	pain	expectrating	12	low_cue	n/a	74.18	Very-Strong	74.18	Very-Strong	0.33	0.98	task-social/cue/runtype-pain/scl/l025.png	n/a	n/a	n/a	n/a	n/a	n/a	n/a	n/a
383.73	11.899999999999977	pain	stimulus	12	low_cue	low_stim	n/a	n/a	n/a	n/a	n/a	n/a	n/a	383.73	387.23	392.23	395.63	success	n/a	n/a	n/a
394.7	1.62	pain	outcomerating	12	low_cue	low_stim	58.07	Strong	58.07	Strong	0.33	0.98	task-social/outcomerating/task-pain_scale.png	n/a	n/a	n/a	n/a	success	n/a	n/a	n/a
