onset	duration	run_type	trial_type	trial_index	cue	stimulusintensity	rating_value	rating_glmslabel	rating_value_fillna	rating_glmslabel_fillna	rating_mouseonset	rating_mousedur	stim_file_TODO	pain_onset_ttl1	pain_onset_ttl2	pain_onset_ttl3	pain_onset_ttl4	pain_stimulus_delivery_success	cognitive_correct_response	cognitive_participant_response	cognitive_response_accuracy
5.69	1.0	pain	cue	1	low_cue	n/a	n/a	n/a	n/a	n/a	n/a	n/a	task-social/cue/runtype-pain/scl/l018.png	n/a	n/a	n/a	n/a	n/a	n/a	n/a	n/a
9.01	2.12	pain	expectrating	1	low_cue	n/a	50.73	Strong	50.73	Strong	0.45	1.67	task-social/cue/runtype-pain/scl/l018.png	n/a	n/a	n/a	n/a	n/a	n/a	n/a	n/a
17.44	12.36	pain	stimulus	1	low_cue	med_stim	n/a	n/a	n/a	n/a	n/a	n/a	n/a	17.44	21.2	26.2	29.81	success	n/a	n/a	n/a
28.1	3.03	pain	outcomerating	1	low_cue	med_stim	49.22	Strong	49.22	Strong	0.45	1.67	task-social/outcomerating/task-pain_scale.png	n/a	n/a	n/a	n/a	success	n/a	n/a	n/a
35.0	1.0	pain	cue	2	high_cue	n/a	n/a	n/a	n/a	n/a	n/a	n/a	task-social/cue/runtype-pain/sch/h017.png	n/a	n/a	n/a	n/a	n/a	n/a	n/a	n/a
37.7	1.45	pain	expectrating	2	high_cue	n/a	132.31	Strongest sensation of any kind	132.31	Strongest sensation of any kind	0.37	1.08	task-social/cue/runtype-pain/sch/h017.png	n/a	n/a	n/a	n/a	n/a	n/a	n/a	n/a
42.72	11.910000000000004	pain	stimulus	2	high_cue	low_stim	n/a	n/a	n/a	n/a	n/a	n/a	n/a	42.72	46.22	51.22	54.62	success	n/a	n/a	n/a
58.19	3.37	pain	outcomerating	2	high_cue	low_stim	49.72	Strong	49.72	Strong	0.37	1.08	task-social/outcomerating/task-pain_scale.png	n/a	n/a	n/a	n/a	success	n/a	n/a	n/a
62.69	1.0	pain	cue	3	low_cue	n/a	n/a	n/a	n/a	n/a	n/a	n/a	task-social/cue/runtype-pain/scl/l023.png	n/a	n/a	n/a	n/a	n/a	n/a	n/a	n/a
65.9	2.43	pain	expectrating	3	low_cue	n/a	41.92	Strong	41.92	Strong	0.3	2.13	task-social/cue/runtype-pain/scl/l023.png	n/a	n/a	n/a	n/a	n/a	n/a	n/a	n/a
76.42	12.819999999999993	pain	stimulus	3	low_cue	high_stim	n/a	n/a	n/a	n/a	n/a	n/a	n/a	76.42	80.43	85.43	89.24	success	n/a	n/a	n/a
91.6	2.56	pain	outcomerating	3	low_cue	high_stim	104.37	Strongest sensation of any kind	104.37	Strongest sensation of any kind	0.3	2.13	task-social/outcomerating/task-pain_scale.png	n/a	n/a	n/a	n/a	success	n/a	n/a	n/a
96.09	1.0	pain	cue	4	high_cue	n/a	n/a	n/a	n/a	n/a	n/a	n/a	task-social/cue/runtype-pain/sch/h038.png	n/a	n/a	n/a	n/a	n/a	n/a	n/a	n/a
98.39	2.3	pain	expectrating	4	high_cue	n/a	124.59	Strongest sensation of any kind	124.59	Strongest sensation of any kind	0.3	2.0	task-social/cue/runtype-pain/sch/h038.png	n/a	n/a	n/a	n/a	n/a	n/a	n/a	n/a
104.61	12.36	pain	stimulus	4	high_cue	med_stim	n/a	n/a	n/a	n/a	n/a	n/a	n/a	104.61	108.37	113.37	116.98	success	n/a	n/a	n/a
114.8	2.47	pain	outcomerating	4	high_cue	med_stim	97.87	Very Strong	97.87	Very Strong	0.3	2.0	task-social/outcomerating/task-pain_scale.png	n/a	n/a	n/a	n/a	success	n/a	n/a	n/a
131.6	0.98	pain	cue	5	low_cue	n/a	n/a	n/a	n/a	n/a	n/a	n/a	task-social/cue/runtype-pain/scl/l004.png	n/a	n/a	n/a	n/a	n/a	n/a	n/a	n/a
134.3	1.77	pain	expectrating	5	low_cue	n/a	67.27	Very Strong	67.27	Very Strong	0.5	1.27	task-social/cue/runtype-pain/scl/l004.png	n/a	n/a	n/a	n/a	n/a	n/a	n/a	n/a
141.02	12.369999999999976	pain	stimulus	5	low_cue	med_stim	n/a	n/a	n/a	n/a	n/a	n/a	n/a	141.02	144.78	149.78	153.39	success	n/a	n/a	n/a
156.2	n/a	pain	outcomerating	5	low_cue	med_stim	n/a	n/a	35.78	Strong	0.5	1.27	task-social/outcomerating/task-pain_scale.png	n/a	n/a	n/a	n/a	success	n/a	n/a	n/a
163.4	1.0	pain	cue	6	low_cue	n/a	n/a	n/a	n/a	n/a	n/a	n/a	task-social/cue/runtype-pain/scl/l012.png	n/a	n/a	n/a	n/a	n/a	n/a	n/a	n/a
165.7	1.98	pain	expectrating	6	low_cue	n/a	22.83	Moderate	22.83	Moderate	0.35	1.63	task-social/cue/runtype-pain/scl/l012.png	n/a	n/a	n/a	n/a	n/a	n/a	n/a	n/a
178.85	12.819999999999993	pain	stimulus	6	low_cue	high_stim	n/a	n/a	n/a	n/a	n/a	n/a	n/a	178.85	182.86	187.86	191.67	success	n/a	n/a	n/a
188.59	2.29	pain	outcomerating	6	low_cue	high_stim	63.02	Strong	63.02	Strong	0.35	1.63	task-social/outcomerating/task-pain_scale.png	n/a	n/a	n/a	n/a	success	n/a	n/a	n/a
193.39	1.0	pain	cue	7	high_cue	n/a	n/a	n/a	n/a	n/a	n/a	n/a	task-social/cue/runtype-pain/sch/h042.png	n/a	n/a	n/a	n/a	n/a	n/a	n/a	n/a
194.99	2.24	pain	expectrating	7	high_cue	n/a	131.92	Strongest sensation of any kind	131.92	Strongest sensation of any kind	0.35	1.89	task-social/cue/runtype-pain/sch/h042.png	n/a	n/a	n/a	n/a	n/a	n/a	n/a	n/a
201.24	12.819999999999993	pain	stimulus	7	high_cue	high_stim	n/a	n/a	n/a	n/a	n/a	n/a	n/a	201.24	205.25	210.25	214.06	success	n/a	n/a	n/a
227.91	3.91	pain	outcomerating	7	high_cue	high_stim	140.46	Strongest sensation of any kind	140.46	Strongest sensation of any kind	0.35	1.89	task-social/outcomerating/task-pain_scale.png	n/a	n/a	n/a	n/a	success	n/a	n/a	n/a
234.39	1.0	pain	cue	8	low_cue	n/a	n/a	n/a	n/a	n/a	n/a	n/a	task-social/cue/runtype-pain/scl/l020.png	n/a	n/a	n/a	n/a	n/a	n/a	n/a	n/a
235.99	1.85	pain	expectrating	8	low_cue	n/a	71.71	Very Strong	71.71	Very Strong	0.47	1.39	task-social/cue/runtype-pain/scl/l020.png	n/a	n/a	n/a	n/a	n/a	n/a	n/a	n/a
241.93	11.900000000000006	pain	stimulus	8	low_cue	low_stim	n/a	n/a	n/a	n/a	n/a	n/a	n/a	241.93	245.43	250.43	253.83	success	n/a	n/a	n/a
252.9	3.7	pain	outcomerating	8	low_cue	low_stim	61.79	Strong	61.79	Strong	0.47	1.39	task-social/outcomerating/task-pain_scale.png	n/a	n/a	n/a	n/a	success	n/a	n/a	n/a
259.1	1.0	pain	cue	9	low_cue	n/a	n/a	n/a	n/a	n/a	n/a	n/a	task-social/cue/runtype-pain/scl/l019.png	n/a	n/a	n/a	n/a	n/a	n/a	n/a	n/a
261.0	1.75	pain	expectrating	9	low_cue	n/a	69.96	Very Strong	69.96	Very Strong	0.63	1.12	task-social/cue/runtype-pain/scl/l019.png	n/a	n/a	n/a	n/a	n/a	n/a	n/a	n/a
274.12	11.899999999999977	pain	stimulus	9	low_cue	low_stim	n/a	n/a	n/a	n/a	n/a	n/a	n/a	274.12	277.62	282.62	286.02	success	n/a	n/a	n/a
291.0	3.78	pain	outcomerating	9	low_cue	low_stim	49.4	Strong	49.4	Strong	0.63	1.12	task-social/outcomerating/task-pain_scale.png	n/a	n/a	n/a	n/a	success	n/a	n/a	n/a
307.79	1.0	pain	cue	10	high_cue	n/a	n/a	n/a	n/a	n/a	n/a	n/a	task-social/cue/runtype-pain/sch/h039.png	n/a	n/a	n/a	n/a	n/a	n/a	n/a	n/a
311.0	2.5	pain	expectrating	10	high_cue	n/a	137.11	Strongest sensation of any kind	137.11	Strongest sensation of any kind	0.08	2.42	task-social/cue/runtype-pain/sch/h039.png	n/a	n/a	n/a	n/a	n/a	n/a	n/a	n/a
316.93	11.909999999999968	pain	stimulus	10	high_cue	low_stim	n/a	n/a	n/a	n/a	n/a	n/a	n/a	316.93	320.43	325.43	328.83	success	n/a	n/a	n/a
327.59	2.99	pain	outcomerating	10	high_cue	low_stim	93.74	Very Strong	93.74	Very Strong	0.08	2.42	task-social/outcomerating/task-pain_scale.png	n/a	n/a	n/a	n/a	success	n/a	n/a	n/a
340.7	1.0	pain	cue	11	high_cue	n/a	n/a	n/a	n/a	n/a	n/a	n/a	task-social/cue/runtype-pain/sch/h032.png	n/a	n/a	n/a	n/a	n/a	n/a	n/a	n/a
342.6	3.05	pain	expectrating	11	high_cue	n/a	116.77	Strongest sensation of any kind	116.77	Strongest sensation of any kind	0.38	2.67	task-social/cue/runtype-pain/sch/h032.png	n/a	n/a	n/a	n/a	n/a	n/a	n/a	n/a
353.34	12.360000000000014	pain	stimulus	11	high_cue	med_stim	n/a	n/a	n/a	n/a	n/a	n/a	n/a	353.34	357.1	362.1	365.71	success	n/a	n/a	n/a
363.79	n/a	pain	outcomerating	11	high_cue	med_stim	n/a	n/a	94.94	Very Strong	0.38	2.67	task-social/outcomerating/task-pain_scale.png	n/a	n/a	n/a	n/a	success	n/a	n/a	n/a
371.49	1.0	pain	cue	12	high_cue	n/a	n/a	n/a	n/a	n/a	n/a	n/a	task-social/cue/runtype-pain/sch/h025.png	n/a	n/a	n/a	n/a	n/a	n/a	n/a	n/a
374.79	2.17	pain	expectrating	12	high_cue	n/a	136.67	Strongest sensation of any kind	136.67	Strongest sensation of any kind	0.27	1.9	task-social/cue/runtype-pain/sch/h025.png	n/a	n/a	n/a	n/a	n/a	n/a	n/a	n/a
385.32	12.819999999999993	pain	stimulus	12	high_cue	high_stim	n/a	n/a	n/a	n/a	n/a	n/a	n/a	385.32	389.33	394.33	398.14	success	n/a	n/a	n/a
395.1	3.65	pain	outcomerating	12	high_cue	high_stim	114.1	Strongest sensation of any kind	114.1	Strongest sensation of any kind	0.27	1.9	task-social/outcomerating/task-pain_scale.png	n/a	n/a	n/a	n/a	success	n/a	n/a	n/a
