onset	duration	run_type	trial_type	trial_index	cue	stimulusintensity	rating_value	rating_glmslabel	rating_value_fillna	rating_glmslabel_fillna	rating_mouseonset	rating_mousedur	stim_file_TODO	pain_onset_ttl1	pain_onset_ttl2	pain_onset_ttl3	pain_onset_ttl4	pain_stimulus_delivery_success	cognitive_correct_response	cognitive_participant_response	cognitive_response_accuracy
8.09	0.99	vicarious	cue	1	high_cue	n/a	n/a	n/a	n/a	n/a	n/a	n/a	task-social/cue/runtype-vicarious/sch/h024.png	n/a	n/a	n/a	n/a	n/a	n/a	n/a	n/a
10.01	2.02	vicarious	expectrating	1	high_cue	n/a	45.81	Strong	45.81	Strong	0.42	1.6	task-social/cue/runtype-vicarious/sch/h024.png	n/a	n/a	n/a	n/a	n/a	n/a	n/a	n/a
23.28	5.0	vicarious	stimulus	1	high_cue	low_stim	n/a	n/a	n/a	n/a	n/a	n/a	task-social/stim/runtype-vicarious/ch092t2aeaff_L.mp4	n/a	n/a	n/a	n/a	n/a	n/a	n/a	n/a
39.6	2.04	vicarious	outcomerating	1	high_cue	low_stim	20.2	Moderate	20.2	Moderate	0.42	1.6	task-social/outcomerating/task-vicarious_scale.png	n/a	n/a	n/a	n/a	n/a	n/a	n/a	n/a
52.39	0.99	vicarious	cue	2	low_cue	n/a	n/a	n/a	n/a	n/a	n/a	n/a	task-social/cue/runtype-vicarious/scl/l020.png	n/a	n/a	n/a	n/a	n/a	n/a	n/a	n/a
54.99	1.52	vicarious	expectrating	2	low_cue	n/a	7.18	Weak	7.18	Weak	0.32	1.2	task-social/cue/runtype-vicarious/scl/l020.png	n/a	n/a	n/a	n/a	n/a	n/a	n/a	n/a
68.98	5.0	vicarious	stimulus	2	low_cue	med_stim	n/a	n/a	n/a	n/a	n/a	n/a	task-social/stim/runtype-vicarious/mg066t2aaunaff_M.mp4	n/a	n/a	n/a	n/a	n/a	n/a	n/a	n/a
83.9	2.56	vicarious	outcomerating	2	low_cue	med_stim	4.96	Weak	4.96	Weak	0.32	1.2	task-social/outcomerating/task-vicarious_scale.png	n/a	n/a	n/a	n/a	n/a	n/a	n/a	n/a
93.19	0.99	vicarious	cue	3	high_cue	n/a	n/a	n/a	n/a	n/a	n/a	n/a	task-social/cue/runtype-vicarious/sch/h044.png	n/a	n/a	n/a	n/a	n/a	n/a	n/a	n/a
96.09	2.24	vicarious	expectrating	3	high_cue	n/a	36.13	Strong	36.13	Strong	0.45	1.79	task-social/cue/runtype-vicarious/sch/h044.png	n/a	n/a	n/a	n/a	n/a	n/a	n/a	n/a
105.58	5.0	vicarious	stimulus	3	high_cue	high_stim	n/a	n/a	n/a	n/a	n/a	n/a	task-social/stim/runtype-vicarious/bm049t2aeunaff_H.mp4	n/a	n/a	n/a	n/a	n/a	n/a	n/a	n/a
116.4	2.23	vicarious	outcomerating	3	high_cue	high_stim	4.61	Weak	4.61	Weak	0.45	1.79	task-social/outcomerating/task-vicarious_scale.png	n/a	n/a	n/a	n/a	n/a	n/a	n/a	n/a
123.4	0.98	vicarious	cue	4	low_cue	n/a	n/a	n/a	n/a	n/a	n/a	n/a	task-social/cue/runtype-vicarious/scl/l017.png	n/a	n/a	n/a	n/a	n/a	n/a	n/a	n/a
126.7	1.4	vicarious	expectrating	4	low_cue	n/a	0.0	n/a	0.0	n/a	0.38	1.02	task-social/cue/runtype-vicarious/scl/l017.png	n/a	n/a	n/a	n/a	n/a	n/a	n/a	n/a
134.68	5.0	vicarious	stimulus	4	low_cue	high_stim	n/a	n/a	n/a	n/a	n/a	n/a	task-social/stim/runtype-vicarious/mg066t1aaaff_H.mp4	n/a	n/a	n/a	n/a	n/a	n/a	n/a	n/a
143.01	2.0	vicarious	outcomerating	4	low_cue	high_stim	14.87	Moderate	14.87	Moderate	0.38	1.02	task-social/outcomerating/task-vicarious_scale.png	n/a	n/a	n/a	n/a	n/a	n/a	n/a	n/a
151.29	0.99	vicarious	cue	5	high_cue	n/a	n/a	n/a	n/a	n/a	n/a	n/a	task-social/cue/runtype-vicarious/sch/h032.png	n/a	n/a	n/a	n/a	n/a	n/a	n/a	n/a
153.09	2.55	vicarious	expectrating	5	high_cue	n/a	31.91	Strong	31.91	Strong	1.28	1.27	task-social/cue/runtype-vicarious/sch/h032.png	n/a	n/a	n/a	n/a	n/a	n/a	n/a	n/a
167.08	5.0	vicarious	stimulus	5	high_cue	low_stim	n/a	n/a	n/a	n/a	n/a	n/a	task-social/stim/runtype-vicarious/mg066t2aeunaff_L.mp4	n/a	n/a	n/a	n/a	n/a	n/a	n/a	n/a
177.7	1.97	vicarious	outcomerating	5	high_cue	low_stim	9.08	Weak	9.08	Weak	1.28	1.27	task-social/outcomerating/task-vicarious_scale.png	n/a	n/a	n/a	n/a	n/a	n/a	n/a	n/a
188.39	0.99	vicarious	cue	6	high_cue	n/a	n/a	n/a	n/a	n/a	n/a	n/a	task-social/cue/runtype-vicarious/sch/h013.png	n/a	n/a	n/a	n/a	n/a	n/a	n/a	n/a
190.49	1.39	vicarious	expectrating	6	high_cue	n/a	19.24	Moderate	19.24	Moderate	0.37	1.02	task-social/cue/runtype-vicarious/sch/h013.png	n/a	n/a	n/a	n/a	n/a	n/a	n/a	n/a
198.48	5.0	vicarious	stimulus	6	high_cue	med_stim	n/a	n/a	n/a	n/a	n/a	n/a	task-social/stim/runtype-vicarious/ch092t2aaaff_M.mp4	n/a	n/a	n/a	n/a	n/a	n/a	n/a	n/a
207.5	3.17	vicarious	outcomerating	6	high_cue	med_stim	2.77	Barely detectable	2.77	Barely detectable	0.37	1.02	task-social/outcomerating/task-vicarious_scale.png	n/a	n/a	n/a	n/a	n/a	n/a	n/a	n/a
218.18	1.0	vicarious	cue	7	low_cue	n/a	n/a	n/a	n/a	n/a	n/a	n/a	task-social/cue/runtype-vicarious/scl/l006.png	n/a	n/a	n/a	n/a	n/a	n/a	n/a	n/a
220.3	1.6	vicarious	expectrating	7	low_cue	n/a	5.98	Weak	5.98	Weak	0.37	1.23	task-social/cue/runtype-vicarious/scl/l006.png	n/a	n/a	n/a	n/a	n/a	n/a	n/a	n/a
230.18	5.0	vicarious	stimulus	7	low_cue	high_stim	n/a	n/a	n/a	n/a	n/a	n/a	task-social/stim/runtype-vicarious/dn124t1aiaff_H.mp4	n/a	n/a	n/a	n/a	n/a	n/a	n/a	n/a
239.21	2.32	vicarious	outcomerating	7	low_cue	high_stim	12.53	Moderate	12.53	Moderate	0.37	1.23	task-social/outcomerating/task-vicarious_scale.png	n/a	n/a	n/a	n/a	n/a	n/a	n/a	n/a
246.19	0.99	vicarious	cue	8	high_cue	n/a	n/a	n/a	n/a	n/a	n/a	n/a	task-social/cue/runtype-vicarious/sch/h049.png	n/a	n/a	n/a	n/a	n/a	n/a	n/a	n/a
248.7	1.45	vicarious	expectrating	8	high_cue	n/a	21.93	Moderate	21.93	Moderate	0.3	1.15	task-social/cue/runtype-vicarious/sch/h049.png	n/a	n/a	n/a	n/a	n/a	n/a	n/a	n/a
257.68	5.0	vicarious	stimulus	8	high_cue	med_stim	n/a	n/a	n/a	n/a	n/a	n/a	task-social/stim/runtype-vicarious/ak064t1aiaff_M.mp4	n/a	n/a	n/a	n/a	n/a	n/a	n/a	n/a
268.3	3.11	vicarious	outcomerating	8	high_cue	med_stim	4.2	Weak	4.2	Weak	0.3	1.15	task-social/outcomerating/task-vicarious_scale.png	n/a	n/a	n/a	n/a	n/a	n/a	n/a	n/a
277.59	0.99	vicarious	cue	9	low_cue	n/a	n/a	n/a	n/a	n/a	n/a	n/a	task-social/cue/runtype-vicarious/scl/l028.png	n/a	n/a	n/a	n/a	n/a	n/a	n/a	n/a
280.69	1.77	vicarious	expectrating	9	low_cue	n/a	0.0	n/a	0.0	n/a	0.58	1.19	task-social/cue/runtype-vicarious/scl/l028.png	n/a	n/a	n/a	n/a	n/a	n/a	n/a	n/a
292.48	5.0	vicarious	stimulus	9	low_cue	low_stim	n/a	n/a	n/a	n/a	n/a	n/a	task-social/stim/runtype-vicarious/mg101t2afunaff_L.mp4	n/a	n/a	n/a	n/a	n/a	n/a	n/a	n/a
305.2	2.83	vicarious	outcomerating	9	low_cue	low_stim	3.69	Weak	3.69	Weak	0.58	1.19	task-social/outcomerating/task-vicarious_scale.png	n/a	n/a	n/a	n/a	n/a	n/a	n/a	n/a
309.69	0.99	vicarious	cue	10	low_cue	n/a	n/a	n/a	n/a	n/a	n/a	n/a	task-social/cue/runtype-vicarious/scl/l047.png	n/a	n/a	n/a	n/a	n/a	n/a	n/a	n/a
312.0	1.59	vicarious	expectrating	10	low_cue	n/a	2.79	Barely detectable	2.79	Barely detectable	0.68	0.91	task-social/cue/runtype-vicarious/scl/l047.png	n/a	n/a	n/a	n/a	n/a	n/a	n/a	n/a
319.98	5.0	vicarious	stimulus	10	low_cue	low_stim	n/a	n/a	n/a	n/a	n/a	n/a	task-social/stim/runtype-vicarious/ib109t1aiunaff_L.mp4	n/a	n/a	n/a	n/a	n/a	n/a	n/a	n/a
330.81	n/a	vicarious	outcomerating	10	low_cue	low_stim	n/a	n/a	0.0	n/a	0.68	0.91	task-social/outcomerating/task-vicarious_scale.png	n/a	n/a	n/a	n/a	n/a	n/a	n/a	n/a
339.2	0.98	vicarious	cue	11	high_cue	n/a	n/a	n/a	n/a	n/a	n/a	n/a	task-social/cue/runtype-vicarious/sch/h012.png	n/a	n/a	n/a	n/a	n/a	n/a	n/a	n/a
342.3	1.65	vicarious	expectrating	11	high_cue	n/a	36.18	Strong	36.18	Strong	0.33	1.32	task-social/cue/runtype-vicarious/sch/h012.png	n/a	n/a	n/a	n/a	n/a	n/a	n/a	n/a
354.58	5.0	vicarious	stimulus	11	high_cue	high_stim	n/a	n/a	n/a	n/a	n/a	n/a	task-social/stim/runtype-vicarious/ib109t1aiaff_H.mp4	n/a	n/a	n/a	n/a	n/a	n/a	n/a	n/a
366.91	1.8	vicarious	outcomerating	11	high_cue	high_stim	8.33	Weak	8.33	Weak	0.33	1.32	task-social/outcomerating/task-vicarious_scale.png	n/a	n/a	n/a	n/a	n/a	n/a	n/a	n/a
371.69	0.99	vicarious	cue	12	low_cue	n/a	n/a	n/a	n/a	n/a	n/a	n/a	task-social/cue/runtype-vicarious/scl/l003.png	n/a	n/a	n/a	n/a	n/a	n/a	n/a	n/a
373.99	1.98	vicarious	expectrating	12	low_cue	n/a	1.17	Barely detectable	1.17	Barely detectable	0.4	1.58	task-social/cue/runtype-vicarious/scl/l003.png	n/a	n/a	n/a	n/a	n/a	n/a	n/a	n/a
381.98	5.0	vicarious	stimulus	12	low_cue	med_stim	n/a	n/a	n/a	n/a	n/a	n/a	task-social/stim/runtype-vicarious/ib109t1afaff_M.mp4	n/a	n/a	n/a	n/a	n/a	n/a	n/a	n/a
394.8	2.19	vicarious	outcomerating	12	low_cue	med_stim	2.08	Barely detectable	2.08	Barely detectable	0.4	1.58	task-social/outcomerating/task-vicarious_scale.png	n/a	n/a	n/a	n/a	n/a	n/a	n/a	n/a
