onset	duration	run_type	trial_type	trial_index	cue	stimulusintensity	rating_value	rating_glmslabel	rating_value_fillna	rating_glmslabel_fillna	rating_mouseonset	rating_mousedur	stim_file	pain_onset_ttl1	pain_onset_ttl2	pain_onset_ttl3	pain_onset_ttl4	pain_stimulus_delivery_success	cognitive_correct_response	cognitive_participant_response	cognitive_response_accuracy
5.69	0.99	cognitive	cue	1	high_cue	n/a	n/a	n/a	n/a	n/a	n/a	n/a	task-social/cue/runtype-cognitive/sch/h004.png	n/a	n/a	n/a	n/a	n/a	n/a	n/a	n/a
8.31	1.97	cognitive	expectrating	1	high_cue	n/a	28.65	Moderate	28.65	Moderate	0.8	1.17	task-social/cue/runtype-cognitive/sch/h004.png	n/a	n/a	n/a	n/a	n/a	n/a	n/a	n/a
14.91	5.0	cognitive	stimulus	1	high_cue	high_stim	n/a	n/a	n/a	n/a	n/a	n/a	task-social/stim/runtype-cognitive/44_150_R.jpg	n/a	n/a	n/a	n/a	n/a	diff	diff	True
23.89	2.36	cognitive	outcomerating	1	high_cue	high_stim	14.15	Moderate	14.15	Moderate	0.8	1.17	task-social/outcomerating/task-cognitive_scale.png	n/a	n/a	n/a	n/a	n/a	n/a	n/a	n/a
29.0	0.99	cognitive	cue	2	low_cue	n/a	n/a	n/a	n/a	n/a	n/a	n/a	task-social/cue/runtype-cognitive/scl/l048.png	n/a	n/a	n/a	n/a	n/a	n/a	n/a	n/a
32.0	1.44	cognitive	expectrating	2	low_cue	n/a	5.05	Weak	5.05	Weak	0.43	1.01	task-social/cue/runtype-cognitive/scl/l048.png	n/a	n/a	n/a	n/a	n/a	n/a	n/a	n/a
43.9	5.0	cognitive	stimulus	2	low_cue	high_stim	n/a	n/a	n/a	n/a	n/a	n/a	task-social/stim/runtype-cognitive/10_150_R.jpg	n/a	n/a	n/a	n/a	n/a	diff	diff	True
55.19	2.35	cognitive	outcomerating	2	low_cue	high_stim	16.55	Moderate	16.55	Moderate	0.43	1.01	task-social/outcomerating/task-cognitive_scale.png	n/a	n/a	n/a	n/a	n/a	n/a	n/a	n/a
59.79	0.99	cognitive	cue	3	low_cue	n/a	n/a	n/a	n/a	n/a	n/a	n/a	task-social/cue/runtype-cognitive/scl/l019.png	n/a	n/a	n/a	n/a	n/a	n/a	n/a	n/a
62.19	1.52	cognitive	expectrating	3	low_cue	n/a	8.55	Weak	8.55	Weak	0.37	1.15	task-social/cue/runtype-cognitive/scl/l019.png	n/a	n/a	n/a	n/a	n/a	n/a	n/a	n/a
69.19	5.0	cognitive	stimulus	3	low_cue	high_stim	n/a	n/a	n/a	n/a	n/a	n/a	task-social/stim/runtype-cognitive/23_150_R.jpg	n/a	n/a	n/a	n/a	n/a	diff	diff	True
81.7	1.77	cognitive	outcomerating	3	low_cue	high_stim	7.47	Weak	7.47	Weak	0.37	1.15	task-social/outcomerating/task-cognitive_scale.png	n/a	n/a	n/a	n/a	n/a	n/a	n/a	n/a
94.89	0.99	cognitive	cue	4	high_cue	n/a	n/a	n/a	n/a	n/a	n/a	n/a	task-social/cue/runtype-cognitive/sch/h049.png	n/a	n/a	n/a	n/a	n/a	n/a	n/a	n/a
97.31	1.87	cognitive	expectrating	4	high_cue	n/a	71.27	Very-Strong	71.27	Very-Strong	0.33	1.53	task-social/cue/runtype-cognitive/sch/h049.png	n/a	n/a	n/a	n/a	n/a	n/a	n/a	n/a
104.49	5.0	cognitive	stimulus	4	high_cue	high_stim	n/a	n/a	n/a	n/a	n/a	n/a	task-social/stim/runtype-cognitive/33_150_R.jpg	n/a	n/a	n/a	n/a	n/a	diff	diff	True
115.4	1.77	cognitive	outcomerating	4	high_cue	high_stim	51.2	Strong	51.2	Strong	0.33	1.53	task-social/outcomerating/task-cognitive_scale.png	n/a	n/a	n/a	n/a	n/a	n/a	n/a	n/a
120.0	0.98	cognitive	cue	5	low_cue	n/a	n/a	n/a	n/a	n/a	n/a	n/a	task-social/cue/runtype-cognitive/scl/l010.png	n/a	n/a	n/a	n/a	n/a	n/a	n/a	n/a
123.0	2.07	cognitive	expectrating	5	low_cue	n/a	14.9	Moderate	14.9	Moderate	0.58	1.49	task-social/cue/runtype-cognitive/scl/l010.png	n/a	n/a	n/a	n/a	n/a	n/a	n/a	n/a
140.2	5.0	cognitive	stimulus	5	low_cue	low_stim	n/a	n/a	n/a	n/a	n/a	n/a	task-social/stim/runtype-cognitive/22_50.jpg	n/a	n/a	n/a	n/a	n/a	same	same	True
151.49	2.07	cognitive	outcomerating	5	low_cue	low_stim	8.1	Weak	8.1	Weak	0.58	1.49	task-social/outcomerating/task-cognitive_scale.png	n/a	n/a	n/a	n/a	n/a	n/a	n/a	n/a
162.4	0.98	cognitive	cue	6	high_cue	n/a	n/a	n/a	n/a	n/a	n/a	n/a	task-social/cue/runtype-cognitive/sch/h041.png	n/a	n/a	n/a	n/a	n/a	n/a	n/a	n/a
165.4	1.44	cognitive	expectrating	6	high_cue	n/a	77.92	Very-Strong	77.92	Very-Strong	0.33	1.11	task-social/cue/runtype-cognitive/sch/h041.png	n/a	n/a	n/a	n/a	n/a	n/a	n/a	n/a
191.09	5.0	cognitive	stimulus	6	high_cue	low_stim	n/a	n/a	n/a	n/a	n/a	n/a	task-social/stim/runtype-cognitive/10_50.jpg	n/a	n/a	n/a	n/a	n/a	same	same	True
207.8	2.16	cognitive	outcomerating	6	high_cue	low_stim	6.44	Weak	6.44	Weak	0.33	1.11	task-social/outcomerating/task-cognitive_scale.png	n/a	n/a	n/a	n/a	n/a	n/a	n/a	n/a
215.4	0.98	cognitive	cue	7	low_cue	n/a	n/a	n/a	n/a	n/a	n/a	n/a	task-social/cue/runtype-cognitive/scl/l053.png	n/a	n/a	n/a	n/a	n/a	n/a	n/a	n/a
217.6	2.39	cognitive	expectrating	7	low_cue	n/a	7.44	Weak	7.44	Weak	0.45	1.94	task-social/cue/runtype-cognitive/scl/l053.png	n/a	n/a	n/a	n/a	n/a	n/a	n/a	n/a
226.99	5.0	cognitive	stimulus	7	low_cue	med_stim	n/a	n/a	n/a	n/a	n/a	n/a	task-social/stim/runtype-cognitive/9_100.jpg	n/a	n/a	n/a	n/a	n/a	same	same	True
240.59	1.8	cognitive	outcomerating	7	low_cue	med_stim	6.47	Weak	6.47	Weak	0.45	1.94	task-social/outcomerating/task-cognitive_scale.png	n/a	n/a	n/a	n/a	n/a	n/a	n/a	n/a
251.7	0.98	cognitive	cue	8	high_cue	n/a	n/a	n/a	n/a	n/a	n/a	n/a	task-social/cue/runtype-cognitive/sch/h033.png	n/a	n/a	n/a	n/a	n/a	n/a	n/a	n/a
254.3	1.82	cognitive	expectrating	8	high_cue	n/a	58.29	Strong	58.29	Strong	0.43	1.39	task-social/cue/runtype-cognitive/sch/h033.png	n/a	n/a	n/a	n/a	n/a	n/a	n/a	n/a
260.9	5.0	cognitive	stimulus	8	high_cue	med_stim	n/a	n/a	n/a	n/a	n/a	n/a	task-social/stim/runtype-cognitive/33_100_R.jpg	n/a	n/a	n/a	n/a	n/a	diff	diff	True
270.1	2.12	cognitive	outcomerating	8	high_cue	med_stim	20.14	Moderate	20.14	Moderate	0.43	1.39	task-social/outcomerating/task-cognitive_scale.png	n/a	n/a	n/a	n/a	n/a	n/a	n/a	n/a
279.99	0.99	cognitive	cue	9	high_cue	n/a	n/a	n/a	n/a	n/a	n/a	n/a	task-social/cue/runtype-cognitive/sch/h017.png	n/a	n/a	n/a	n/a	n/a	n/a	n/a	n/a
281.89	1.5	cognitive	expectrating	9	high_cue	n/a	21.2	Moderate	21.2	Moderate	0.3	1.2	task-social/cue/runtype-cognitive/sch/h017.png	n/a	n/a	n/a	n/a	n/a	n/a	n/a	n/a
289.89	5.0	cognitive	stimulus	9	high_cue	med_stim	n/a	n/a	n/a	n/a	n/a	n/a	task-social/stim/runtype-cognitive/10_100.jpg	n/a	n/a	n/a	n/a	n/a	same	same	True
299.3	2.04	cognitive	outcomerating	9	high_cue	med_stim	19.36	Moderate	19.36	Moderate	0.3	1.2	task-social/outcomerating/task-cognitive_scale.png	n/a	n/a	n/a	n/a	n/a	n/a	n/a	n/a
308.4	0.98	cognitive	cue	10	low_cue	n/a	n/a	n/a	n/a	n/a	n/a	n/a	task-social/cue/runtype-cognitive/scl/l028.png	n/a	n/a	n/a	n/a	n/a	n/a	n/a	n/a
311.4	1.67	cognitive	expectrating	10	low_cue	n/a	11.13	Moderate	11.13	Moderate	0.32	1.35	task-social/cue/runtype-cognitive/scl/l028.png	n/a	n/a	n/a	n/a	n/a	n/a	n/a	n/a
318.99	5.0	cognitive	stimulus	10	low_cue	med_stim	n/a	n/a	n/a	n/a	n/a	n/a	task-social/stim/runtype-cognitive/17_100.jpg	n/a	n/a	n/a	n/a	n/a	same	same	True
331.49	2.44	cognitive	outcomerating	10	low_cue	med_stim	3.95	Weak	3.95	Weak	0.32	1.35	task-social/outcomerating/task-cognitive_scale.png	n/a	n/a	n/a	n/a	n/a	n/a	n/a	n/a
341.1	0.98	cognitive	cue	11	high_cue	n/a	n/a	n/a	n/a	n/a	n/a	n/a	task-social/cue/runtype-cognitive/sch/h054.png	n/a	n/a	n/a	n/a	n/a	n/a	n/a	n/a
343.0	2.22	cognitive	expectrating	11	high_cue	n/a	46.42	Strong	46.42	Strong	0.92	1.31	task-social/cue/runtype-cognitive/sch/h054.png	n/a	n/a	n/a	n/a	n/a	n/a	n/a	n/a
354.9	5.0	cognitive	stimulus	11	high_cue	low_stim	n/a	n/a	n/a	n/a	n/a	n/a	task-social/stim/runtype-cognitive/17_50_R.jpg	n/a	n/a	n/a	n/a	n/a	diff	diff	True
364.71	2.4	cognitive	outcomerating	11	high_cue	low_stim	18.58	Moderate	18.58	Moderate	0.92	1.31	task-social/outcomerating/task-cognitive_scale.png	n/a	n/a	n/a	n/a	n/a	n/a	n/a	n/a
374.29	0.99	cognitive	cue	12	low_cue	n/a	n/a	n/a	n/a	n/a	n/a	n/a	task-social/cue/runtype-cognitive/scl/l011.png	n/a	n/a	n/a	n/a	n/a	n/a	n/a	n/a
376.19	1.73	cognitive	expectrating	12	low_cue	n/a	3.81	Weak	3.81	Weak	0.43	1.29	task-social/cue/runtype-cognitive/scl/l011.png	n/a	n/a	n/a	n/a	n/a	n/a	n/a	n/a
383.0	5.0	cognitive	stimulus	12	low_cue	low_stim	n/a	n/a	n/a	n/a	n/a	n/a	task-social/stim/runtype-cognitive/10_50_R.jpg	n/a	n/a	n/a	n/a	n/a	diff	diff	True
395.0	3.25	cognitive	outcomerating	12	low_cue	low_stim	1.49	Barely-detectable	1.49	Barely-detectable	0.43	1.29	task-social/outcomerating/task-cognitive_scale.png	n/a	n/a	n/a	n/a	n/a	n/a	n/a	n/a
