onset	duration	trial_type	response_x	response_y	situation	context	modality	stim_file
4.896	54.326	narrative_presentation	n/a	n/a	Deliverance	prison	Audio	task-narratives/Narrative7Situation1.mp3
59.222	3.6	rating_feeling	717.0	489.0	Deliverance	prison	Audio	task-narratives/Narrative7Situation1.mp3
61.356	1.467	feeling_mouse_trajectory	717.0	489.0	Deliverance	prison	Audio	task-narratives/Narrative7Situation1.mp3
63.281	0.125	rating_expectation	960.0	707.0	Deliverance	prison	Audio	task-narratives/Narrative7Situation1.mp3
63.464	-0.058	expectation_mouse_trajectory	960.0	707.0	Deliverance	prison	Audio	task-narratives/Narrative7Situation1.mp3
70.482	5.962	narrative_presentation	n/a	n/a	Abduction	town	Audio	task-narratives/Narrative7Situation2.mp3
76.443	3.604	rating_feeling	717.0	489.0	Abduction	town	Audio	task-narratives/Narrative7Situation2.mp3
78.493	1.554	feeling_mouse_trajectory	717.0	489.0	Abduction	town	Audio	task-narratives/Narrative7Situation2.mp3
80.481	1.469	rating_expectation	960.0	707.0	Abduction	town	Audio	task-narratives/Narrative7Situation2.mp3
81.131	0.819	expectation_mouse_trajectory	960.0	707.0	Abduction	town	Audio	task-narratives/Narrative7Situation2.mp3
92.555	7.441	narrative_presentation	n/a	n/a	Pursuit	prison	Audio	task-narratives/Narrative7Situation3.mp3
99.996	1.901	rating_feeling	717.0	489.0	Pursuit	prison	Audio	task-narratives/Narrative7Situation3.mp3
100.879	1.018	feeling_mouse_trajectory	717.0	489.0	Pursuit	prison	Audio	task-narratives/Narrative7Situation3.mp3
104.04	1.727	rating_expectation	960.0	707.0	Pursuit	prison	Audio	task-narratives/Narrative7Situation3.mp3
104.973	0.793	expectation_mouse_trajectory	960.0	707.0	Pursuit	prison	Audio	task-narratives/Narrative7Situation3.mp3
111.131	11.496	narrative_presentation	n/a	n/a	Obtaining	city	Audio	task-narratives/Narrative7Situation4.mp3
122.627	2.72	rating_feeling	717.0	489.0	Obtaining	city	Audio	task-narratives/Narrative7Situation4.mp3
124.027	1.32	feeling_mouse_trajectory	717.0	489.0	Obtaining	city	Audio	task-narratives/Narrative7Situation4.mp3
126.665	3.985	rating_expectation	960.0	707.0	Obtaining	city	Audio	task-narratives/Narrative7Situation4.mp3
127.681	2.968	expectation_mouse_trajectory	960.0	707.0	Obtaining	city	Audio	task-narratives/Narrative7Situation4.mp3
135.759	7.991	narrative_presentation	n/a	n/a	Recovery of a lost one	park	Audio	task-narratives/Narrative7Situation5.mp3
143.75	1.884	rating_feeling	717.0	489.0	Recovery of a lost one	park	Audio	task-narratives/Narrative7Situation5.mp3
144.05	1.584	feeling_mouse_trajectory	717.0	489.0	Recovery of a lost one	park	Audio	task-narratives/Narrative7Situation5.mp3
147.774	2.477	rating_expectation	960.0	707.0	Recovery of a lost one	park	Audio	task-narratives/Narrative7Situation5.mp3
149.124	1.127	expectation_mouse_trajectory	960.0	707.0	Recovery of a lost one	park	Audio	task-narratives/Narrative7Situation5.mp3
154.859	8.782	narrative_presentation	n/a	n/a	Rivalry of kin	city	Audio	task-narratives/Narrative7Situation6.mp3
163.641	1.654	rating_feeling	717.0	489.0	Rivalry of kin	city	Audio	task-narratives/Narrative7Situation6.mp3
164.141	1.154	feeling_mouse_trajectory	717.0	489.0	Rivalry of kin	city	Audio	task-narratives/Narrative7Situation6.mp3
167.664	2.119	rating_expectation	960.0	707.0	Rivalry of kin	city	Audio	task-narratives/Narrative7Situation6.mp3
168.398	1.386	expectation_mouse_trajectory	960.0	707.0	Rivalry of kin	city	Audio	task-narratives/Narrative7Situation6.mp3
176.734	16.646	narrative_presentation	n/a	n/a	Involuntary crimes of love	hospital	Audio	task-narratives/Narrative7Situation7.mp3
193.38	1.693	rating_feeling	717.0	489.0	Involuntary crimes of love	hospital	Audio	task-narratives/Narrative7Situation7.mp3
193.447	1.627	feeling_mouse_trajectory	717.0	489.0	Involuntary crimes of love	hospital	Audio	task-narratives/Narrative7Situation7.mp3
197.415	1.408	rating_expectation	960.0	707.0	Involuntary crimes of love	hospital	Audio	task-narratives/Narrative7Situation7.mp3
197.831	0.992	expectation_mouse_trajectory	960.0	707.0	Involuntary crimes of love	hospital	Audio	task-narratives/Narrative7Situation7.mp3
203.477	8.78	narrative_presentation	n/a	n/a	Rivalry of superior versus inferior	beach	Audio	task-narratives/Narrative7Situation8.mp3
212.257	2.086	rating_feeling	717.0	489.0	Rivalry of superior versus inferior	beach	Audio	task-narratives/Narrative7Situation8.mp3
213.274	1.07	feeling_mouse_trajectory	717.0	489.0	Rivalry of superior versus inferior	beach	Audio	task-narratives/Narrative7Situation8.mp3
216.281	2.335	rating_expectation	960.0	707.0	Rivalry of superior versus inferior	beach	Audio	task-narratives/Narrative7Situation8.mp3
217.298	1.318	expectation_mouse_trajectory	960.0	707.0	Rivalry of superior versus inferior	beach	Audio	task-narratives/Narrative7Situation8.mp3
222.338	7.991	narrative_presentation	n/a	n/a	Ambition	hospital	Audio	task-narratives/Narrative7Situation9.mp3
230.329	2.568	rating_feeling	717.0	489.0	Ambition	hospital	Audio	task-narratives/Narrative7Situation9.mp3
231.846	1.051	feeling_mouse_trajectory	717.0	489.0	Ambition	hospital	Audio	task-narratives/Narrative7Situation9.mp3
234.353	1.017	rating_expectation	960.0	707.0	Ambition	hospital	Audio	task-narratives/Narrative7Situation9.mp3
234.503	0.867	expectation_mouse_trajectory	960.0	707.0	Ambition	hospital	Audio	task-narratives/Narrative7Situation9.mp3
243.426	15.314	narrative_presentation	n/a	n/a	Deliverance	prison	Audio	task-narratives/Narrative8Situation1.mp3
258.74	2.035	rating_feeling	717.0	489.0	Deliverance	prison	Audio	task-narratives/Narrative8Situation1.mp3
259.723	1.052	feeling_mouse_trajectory	717.0	489.0	Deliverance	prison	Audio	task-narratives/Narrative8Situation1.mp3
262.764	3.602	rating_expectation	960.0	707.0	Deliverance	prison	Audio	task-narratives/Narrative8Situation1.mp3
265.314	1.052	expectation_mouse_trajectory	960.0	707.0	Deliverance	prison	Audio	task-narratives/Narrative8Situation1.mp3
269.819	8.777	narrative_presentation	n/a	n/a	Abduction	town	Audio	task-narratives/Narrative8Situation2.mp3
278.596	2.018	rating_feeling	717.0	489.0	Abduction	town	Audio	task-narratives/Narrative8Situation2.mp3
279.596	1.018	feeling_mouse_trajectory	717.0	489.0	Abduction	town	Audio	task-narratives/Narrative8Situation2.mp3
282.621	1.851	rating_expectation	960.0	707.0	Abduction	town	Audio	task-narratives/Narrative8Situation2.mp3
283.838	0.634	expectation_mouse_trajectory	960.0	707.0	Abduction	town	Audio	task-narratives/Narrative8Situation2.mp3
290.676	22.149	narrative_presentation	n/a	n/a	Pursuit	prison	Audio	task-narratives/Narrative8Situation3.mp3
312.825	1.984	rating_feeling	717.0	489.0	Pursuit	prison	Audio	task-narratives/Narrative8Situation3.mp3
313.509	1.301	feeling_mouse_trajectory	717.0	489.0	Pursuit	prison	Audio	task-narratives/Narrative8Situation3.mp3
316.851	1.367	rating_expectation	960.0	707.0	Pursuit	prison	Audio	task-narratives/Narrative8Situation3.mp3
317.067	1.151	expectation_mouse_trajectory	960.0	707.0	Pursuit	prison	Audio	task-narratives/Narrative8Situation3.mp3
323.909	12.613	narrative_presentation	n/a	n/a	Obtaining	city	Audio	task-narratives/Narrative8Situation4.mp3
336.522	n/a	rating_feeling	717.0	489.0	Obtaining	city	Audio	task-narratives/Narrative8Situation4.mp3
n/a	n/a	feeling_mouse_trajectory	717.0	489.0	Obtaining	city	Audio	task-narratives/Narrative8Situation4.mp3
340.548	1.088	rating_expectation	960.0	707.0	Obtaining	city	Audio	task-narratives/Narrative8Situation4.mp3
340.598	1.038	expectation_mouse_trajectory	960.0	707.0	Obtaining	city	Audio	task-narratives/Narrative8Situation4.mp3
346.634	6.609	narrative_presentation	n/a	n/a	Recovery of a lost one	park	Audio	task-narratives/Narrative8Situation5.mp3
353.243	1.801	rating_feeling	717.0	489.0	Recovery of a lost one	park	Audio	task-narratives/Narrative8Situation5.mp3
354.376	0.667	feeling_mouse_trajectory	717.0	489.0	Recovery of a lost one	park	Audio	task-narratives/Narrative8Situation5.mp3
357.266	1.767	rating_expectation	960.0	707.0	Recovery of a lost one	park	Audio	task-narratives/Narrative8Situation5.mp3
357.3	1.734	expectation_mouse_trajectory	960.0	707.0	Recovery of a lost one	park	Audio	task-narratives/Narrative8Situation5.mp3
363.321	5.976	narrative_presentation	n/a	n/a	Rivalry of kin	city	Audio	task-narratives/Narrative8Situation6.mp3
369.296	3.235	rating_feeling	717.0	489.0	Rivalry of kin	city	Audio	task-narratives/Narrative8Situation6.mp3
370.596	1.935	feeling_mouse_trajectory	717.0	489.0	Rivalry of kin	city	Audio	task-narratives/Narrative8Situation6.mp3
373.322	1.084	rating_expectation	960.0	707.0	Rivalry of kin	city	Audio	task-narratives/Narrative8Situation6.mp3
373.622	0.784	expectation_mouse_trajectory	960.0	707.0	Rivalry of kin	city	Audio	task-narratives/Narrative8Situation6.mp3
380.377	10.783	narrative_presentation	n/a	n/a	Involuntary crimes of love	hospital	Audio	task-narratives/Narrative8Situation7.mp3
391.16	1.786	rating_feeling	717.0	489.0	Involuntary crimes of love	hospital	Audio	task-narratives/Narrative8Situation7.mp3
392.31	0.636	feeling_mouse_trajectory	717.0	489.0	Involuntary crimes of love	hospital	Audio	task-narratives/Narrative8Situation7.mp3
395.181	1.418	rating_expectation	960.0	707.0	Involuntary crimes of love	hospital	Audio	task-narratives/Narrative8Situation7.mp3
395.248	1.351	expectation_mouse_trajectory	960.0	707.0	Involuntary crimes of love	hospital	Audio	task-narratives/Narrative8Situation7.mp3
402.236	11.276	narrative_presentation	n/a	n/a	Rivalry of superior versus inferior	beach	Audio	task-narratives/Narrative8Situation8.mp3
413.512	2.518	rating_feeling	717.0	489.0	Rivalry of superior versus inferior	beach	Audio	task-narratives/Narrative8Situation8.mp3
414.812	1.218	feeling_mouse_trajectory	717.0	489.0	Rivalry of superior versus inferior	beach	Audio	task-narratives/Narrative8Situation8.mp3
417.538	1.443	rating_expectation	960.0	707.0	Rivalry of superior versus inferior	beach	Audio	task-narratives/Narrative8Situation8.mp3
417.972	1.01	expectation_mouse_trajectory	960.0	707.0	Rivalry of superior versus inferior	beach	Audio	task-narratives/Narrative8Situation8.mp3
424.61	10.117	narrative_presentation	n/a	n/a	Ambition	hospital	Audio	task-narratives/Narrative8Situation9.mp3
434.727	3.703	rating_feeling	717.0	489.0	Ambition	hospital	Audio	task-narratives/Narrative8Situation9.mp3
435.61	2.82	feeling_mouse_trajectory	717.0	489.0	Ambition	hospital	Audio	task-narratives/Narrative8Situation9.mp3
438.748	2.635	rating_expectation	960.0	707.0	Ambition	hospital	Audio	task-narratives/Narrative8Situation9.mp3
440.514	0.868	expectation_mouse_trajectory	960.0	707.0	Ambition	hospital	Audio	task-narratives/Narrative8Situation9.mp3
