onset	duration	run_type	trial_type	trial_index	cue	stimulusintensity	rating_value	rating_glmslabel	rating_value_fillna	rating_glmslabel_fillna	rating_mouseonset	rating_mousedur	stim_file	pain_onset_ttl1	pain_onset_ttl2	pain_onset_ttl3	pain_onset_ttl4	pain_stimulus_delivery_success	cognitive_correct_response	cognitive_participant_response	cognitive_response_accuracy
3.89	1.0	cognitive	cue	1	high_cue	n/a	n/a	n/a	n/a	n/a	n/a	n/a	task-social/cue/runtype-cognitive/sch/h019.png	n/a	n/a	n/a	n/a	n/a	n/a	n/a	n/a
5.7	1.63	cognitive	expectrating	1	high_cue	n/a	56.31	Strong	56.31	Strong	0.53	1.1	task-social/cue/runtype-cognitive/sch/h019.png	n/a	n/a	n/a	n/a	n/a	n/a	n/a	n/a
19.59	5.0	cognitive	stimulus	1	high_cue	med_stim	n/a	n/a	n/a	n/a	n/a	n/a	task-social/stim/runtype-cognitive/43_100_R.jpg	n/a	n/a	n/a	n/a	n/a	diff	n/a	False
30.3	2.59	cognitive	outcomerating	1	high_cue	med_stim	59.43	Strong	59.43	Strong	0.53	1.1	task-social/outcomerating/task-cognitive_scale.png	n/a	n/a	n/a	n/a	n/a	n/a	n/a	n/a
36.2	0.98	cognitive	cue	2	low_cue	n/a	n/a	n/a	n/a	n/a	n/a	n/a	task-social/cue/runtype-cognitive/scl/l038.png	n/a	n/a	n/a	n/a	n/a	n/a	n/a	n/a
38.7	3.07	cognitive	expectrating	2	low_cue	n/a	24.5	Moderate	24.5	Moderate	0.78	2.28	task-social/cue/runtype-cognitive/scl/l038.png	n/a	n/a	n/a	n/a	n/a	n/a	n/a	n/a
45.58	5.0	cognitive	stimulus	2	low_cue	med_stim	n/a	n/a	n/a	n/a	n/a	n/a	task-social/stim/runtype-cognitive/39_100.jpg	n/a	n/a	n/a	n/a	n/a	same	n/a	False
56.29	2.93	cognitive	outcomerating	2	low_cue	med_stim	6.93	Weak	6.93	Weak	0.78	2.28	task-social/outcomerating/task-cognitive_scale.png	n/a	n/a	n/a	n/a	n/a	n/a	n/a	n/a
63.59	0.99	cognitive	cue	3	high_cue	n/a	n/a	n/a	n/a	n/a	n/a	n/a	task-social/cue/runtype-cognitive/sch/h033.png	n/a	n/a	n/a	n/a	n/a	n/a	n/a	n/a
66.09	3.0	cognitive	expectrating	3	high_cue	n/a	74.91	Very Strong	74.91	Very Strong	1.42	1.58	task-social/cue/runtype-cognitive/sch/h033.png	n/a	n/a	n/a	n/a	n/a	n/a	n/a	n/a
77.8	5.0	cognitive	stimulus	3	high_cue	low_stim	n/a	n/a	n/a	n/a	n/a	n/a	task-social/stim/runtype-cognitive/31_50.jpg	n/a	n/a	n/a	n/a	n/a	same	n/a	False
90.9	2.37	cognitive	outcomerating	3	high_cue	low_stim	10.45	Moderate	10.45	Moderate	1.42	1.58	task-social/outcomerating/task-cognitive_scale.png	n/a	n/a	n/a	n/a	n/a	n/a	n/a	n/a
103.49	0.99	cognitive	cue	4	low_cue	n/a	n/a	n/a	n/a	n/a	n/a	n/a	task-social/cue/runtype-cognitive/scl/l019.png	n/a	n/a	n/a	n/a	n/a	n/a	n/a	n/a
105.99	2.48	cognitive	expectrating	4	low_cue	n/a	4.59	Weak	4.59	Weak	1.0	1.48	task-social/cue/runtype-cognitive/scl/l019.png	n/a	n/a	n/a	n/a	n/a	n/a	n/a	n/a
118.9	5.0	cognitive	stimulus	4	low_cue	med_stim	n/a	n/a	n/a	n/a	n/a	n/a	task-social/stim/runtype-cognitive/41_100.jpg	n/a	n/a	n/a	n/a	n/a	same	n/a	False
131.8	1.77	cognitive	outcomerating	4	low_cue	med_stim	7.64	Weak	7.64	Weak	1.0	1.48	task-social/outcomerating/task-cognitive_scale.png	n/a	n/a	n/a	n/a	n/a	n/a	n/a	n/a
138.99	0.99	cognitive	cue	5	high_cue	n/a	n/a	n/a	n/a	n/a	n/a	n/a	task-social/cue/runtype-cognitive/sch/h009.png	n/a	n/a	n/a	n/a	n/a	n/a	n/a	n/a
142.89	2.18	cognitive	expectrating	5	high_cue	n/a	91.16	Very Strong	91.16	Very Strong	0.38	1.8	task-social/cue/runtype-cognitive/sch/h009.png	n/a	n/a	n/a	n/a	n/a	n/a	n/a	n/a
157.49	5.0	cognitive	stimulus	5	high_cue	high_stim	n/a	n/a	n/a	n/a	n/a	n/a	task-social/stim/runtype-cognitive/17_150.jpg	n/a	n/a	n/a	n/a	n/a	same	n/a	False
170.3	2.49	cognitive	outcomerating	5	high_cue	high_stim	20.69	Moderate	20.69	Moderate	0.38	1.8	task-social/outcomerating/task-cognitive_scale.png	n/a	n/a	n/a	n/a	n/a	n/a	n/a	n/a
190.59	0.99	cognitive	cue	6	low_cue	n/a	n/a	n/a	n/a	n/a	n/a	n/a	task-social/cue/runtype-cognitive/scl/l029.png	n/a	n/a	n/a	n/a	n/a	n/a	n/a	n/a
192.99	2.18	cognitive	expectrating	6	low_cue	n/a	9.95	Weak	9.95	Weak	0.53	1.65	task-social/cue/runtype-cognitive/scl/l029.png	n/a	n/a	n/a	n/a	n/a	n/a	n/a	n/a
203.49	5.0	cognitive	stimulus	6	low_cue	low_stim	n/a	n/a	n/a	n/a	n/a	n/a	task-social/stim/runtype-cognitive/12_50.jpg	n/a	n/a	n/a	n/a	n/a	same	n/a	False
212.1	3.2	cognitive	outcomerating	6	low_cue	low_stim	17.27	Moderate	17.27	Moderate	0.53	1.65	task-social/outcomerating/task-cognitive_scale.png	n/a	n/a	n/a	n/a	n/a	n/a	n/a	n/a
219.2	0.98	cognitive	cue	7	low_cue	n/a	n/a	n/a	n/a	n/a	n/a	n/a	task-social/cue/runtype-cognitive/scl/l052.png	n/a	n/a	n/a	n/a	n/a	n/a	n/a	n/a
221.0	2.02	cognitive	expectrating	7	low_cue	n/a	8.52	Weak	8.52	Weak	0.6	1.42	task-social/cue/runtype-cognitive/scl/l052.png	n/a	n/a	n/a	n/a	n/a	n/a	n/a	n/a
231.39	5.0	cognitive	stimulus	7	low_cue	high_stim	n/a	n/a	n/a	n/a	n/a	n/a	task-social/stim/runtype-cognitive/17_150_R.jpg	n/a	n/a	n/a	n/a	n/a	diff	n/a	False
243.49	3.56	cognitive	outcomerating	7	low_cue	high_stim	19.53	Moderate	19.53	Moderate	0.6	1.42	task-social/outcomerating/task-cognitive_scale.png	n/a	n/a	n/a	n/a	n/a	n/a	n/a	n/a
252.6	0.98	cognitive	cue	8	high_cue	n/a	n/a	n/a	n/a	n/a	n/a	n/a	task-social/cue/runtype-cognitive/sch/h005.png	n/a	n/a	n/a	n/a	n/a	n/a	n/a	n/a
254.2	3.5	cognitive	expectrating	8	high_cue	n/a	55.29	Strong	55.29	Strong	2.03	1.47	task-social/cue/runtype-cognitive/sch/h005.png	n/a	n/a	n/a	n/a	n/a	n/a	n/a	n/a
263.6	5.0	cognitive	stimulus	8	high_cue	med_stim	n/a	n/a	n/a	n/a	n/a	n/a	task-social/stim/runtype-cognitive/17_100.jpg	n/a	n/a	n/a	n/a	n/a	same	n/a	False
273.5	2.02	cognitive	outcomerating	8	high_cue	med_stim	7.64	Weak	7.64	Weak	2.03	1.47	task-social/outcomerating/task-cognitive_scale.png	n/a	n/a	n/a	n/a	n/a	n/a	n/a	n/a
281.69	0.99	cognitive	cue	9	high_cue	n/a	n/a	n/a	n/a	n/a	n/a	n/a	task-social/cue/runtype-cognitive/sch/h023.png	n/a	n/a	n/a	n/a	n/a	n/a	n/a	n/a
283.29	2.94	cognitive	expectrating	9	high_cue	n/a	31.52	Strong	31.52	Strong	1.45	1.49	task-social/cue/runtype-cognitive/sch/h023.png	n/a	n/a	n/a	n/a	n/a	n/a	n/a	n/a
290.19	5.0	cognitive	stimulus	9	high_cue	low_stim	n/a	n/a	n/a	n/a	n/a	n/a	task-social/stim/runtype-cognitive/4_50_R.jpg	n/a	n/a	n/a	n/a	n/a	diff	n/a	False
307.1	n/a	cognitive	outcomerating	9	high_cue	low_stim	n/a	n/a	14.65	Moderate	1.45	1.49	task-social/outcomerating/task-cognitive_scale.png	n/a	n/a	n/a	n/a	n/a	n/a	n/a	n/a
312.18	1.0	cognitive	cue	10	low_cue	n/a	n/a	n/a	n/a	n/a	n/a	n/a	task-social/cue/runtype-cognitive/scl/l010.png	n/a	n/a	n/a	n/a	n/a	n/a	n/a	n/a
316.1	2.65	cognitive	expectrating	10	low_cue	n/a	23.89	Moderate	23.89	Moderate	0.78	1.87	task-social/cue/runtype-cognitive/scl/l010.png	n/a	n/a	n/a	n/a	n/a	n/a	n/a	n/a
330.69	5.0	cognitive	stimulus	10	low_cue	high_stim	n/a	n/a	n/a	n/a	n/a	n/a	task-social/stim/runtype-cognitive/29_150_R.jpg	n/a	n/a	n/a	n/a	n/a	diff	n/a	False
342.0	3.89	cognitive	outcomerating	10	low_cue	high_stim	20.18	Moderate	20.18	Moderate	0.78	1.87	task-social/outcomerating/task-cognitive_scale.png	n/a	n/a	n/a	n/a	n/a	n/a	n/a	n/a
348.8	0.98	cognitive	cue	11	high_cue	n/a	n/a	n/a	n/a	n/a	n/a	n/a	task-social/cue/runtype-cognitive/sch/h046.png	n/a	n/a	n/a	n/a	n/a	n/a	n/a	n/a
350.5	2.8	cognitive	expectrating	11	high_cue	n/a	47.77	Strong	47.77	Strong	0.97	1.84	task-social/cue/runtype-cognitive/sch/h046.png	n/a	n/a	n/a	n/a	n/a	n/a	n/a	n/a
357.18	5.0	cognitive	stimulus	11	high_cue	high_stim	n/a	n/a	n/a	n/a	n/a	n/a	task-social/stim/runtype-cognitive/6_150.jpg	n/a	n/a	n/a	n/a	n/a	same	n/a	False
368.29	3.38	cognitive	outcomerating	11	high_cue	high_stim	15.66	Moderate	15.66	Moderate	0.97	1.84	task-social/outcomerating/task-cognitive_scale.png	n/a	n/a	n/a	n/a	n/a	n/a	n/a	n/a
375.59	0.99	cognitive	cue	12	low_cue	n/a	n/a	n/a	n/a	n/a	n/a	n/a	task-social/cue/runtype-cognitive/scl/l033.png	n/a	n/a	n/a	n/a	n/a	n/a	n/a	n/a
379.49	1.84	cognitive	expectrating	12	low_cue	n/a	10.86	Moderate	10.86	Moderate	0.38	1.46	task-social/cue/runtype-cognitive/scl/l033.png	n/a	n/a	n/a	n/a	n/a	n/a	n/a	n/a
387.2	5.0	cognitive	stimulus	12	low_cue	low_stim	n/a	n/a	n/a	n/a	n/a	n/a	task-social/stim/runtype-cognitive/43_50.jpg	n/a	n/a	n/a	n/a	n/a	same	n/a	False
395.3	2.12	cognitive	outcomerating	12	low_cue	low_stim	5.76	Weak	5.76	Weak	0.38	1.46	task-social/outcomerating/task-cognitive_scale.png	n/a	n/a	n/a	n/a	n/a	n/a	n/a	n/a
