onset	duration	trial_type	response_value	stim_file
2.78	51.885	video	n/a	task-alignvideo/ses-01_run-01_order-01_content-idiots.mp4
59.249	n/a	rating_relevance	n/a	task-alignvideo/ses-01_run-01_order-01_content-idiots.mp4
64.284	n/a	rating_happy	n/a	task-alignvideo/ses-01_run-01_order-01_content-idiots.mp4
69.32	n/a	rating_sad	n/a	task-alignvideo/ses-01_run-01_order-01_content-idiots.mp4
74.355	n/a	rating_afraid	n/a	task-alignvideo/ses-01_run-01_order-01_content-idiots.mp4
79.39	n/a	rating_disgusted	n/a	task-alignvideo/ses-01_run-01_order-01_content-idiots.mp4
84.425	n/a	rating_warm	n/a	task-alignvideo/ses-01_run-01_order-01_content-idiots.mp4
89.461	n/a	rating_engaged	n/a	task-alignvideo/ses-01_run-01_order-01_content-idiots.mp4
90.106	198.151	video	n/a	task-alignvideo/ses-01_run-01_order-02_content-wanderers.mp4
292.803	n/a	rating_relevance	n/a	task-alignvideo/ses-01_run-01_order-02_content-wanderers.mp4
297.838	n/a	rating_happy	n/a	task-alignvideo/ses-01_run-01_order-02_content-wanderers.mp4
302.873	n/a	rating_sad	n/a	task-alignvideo/ses-01_run-01_order-02_content-wanderers.mp4
307.892	n/a	rating_afraid	n/a	task-alignvideo/ses-01_run-01_order-02_content-wanderers.mp4
312.911	n/a	rating_disgusted	n/a	task-alignvideo/ses-01_run-01_order-02_content-wanderers.mp4
317.929	n/a	rating_warm	n/a	task-alignvideo/ses-01_run-01_order-02_content-wanderers.mp4
322.964	n/a	rating_engaged	n/a	task-alignvideo/ses-01_run-01_order-02_content-wanderers.mp4
323.517	60.838	video	n/a	task-alignvideo/ses-01_run-01_order-03_content-lioncubs.mp4
388.906	n/a	rating_relevance	n/a	task-alignvideo/ses-01_run-01_order-03_content-lioncubs.mp4
393.791	4.367	rating_happy	53.75	task-alignvideo/ses-01_run-01_order-03_content-lioncubs.mp4
398.359	3.918	rating_sad	7.19	task-alignvideo/ses-01_run-01_order-03_content-lioncubs.mp4
403.128	3.668	rating_afraid	10.42	task-alignvideo/ses-01_run-01_order-03_content-lioncubs.mp4
406.612	2.134	rating_disgusted	6.04	task-alignvideo/ses-01_run-01_order-03_content-lioncubs.mp4
412.915	3.418	rating_warm	71.67	task-alignvideo/ses-01_run-01_order-03_content-lioncubs.mp4
418.383	3.868	rating_engaged	70.21	task-alignvideo/ses-01_run-01_order-03_content-lioncubs.mp4
419.563	38.719	video	n/a	task-alignvideo/ses-01_run-01_order-04_content-parkour.mp4
462.816	4.507	rating_relevance	23.02	task-alignvideo/ses-01_run-01_order-04_content-parkour.mp4
467.852	n/a	rating_happy	n/a	task-alignvideo/ses-01_run-01_order-04_content-parkour.mp4
471.103	2.729	rating_sad	6.46	task-alignvideo/ses-01_run-01_order-04_content-parkour.mp4
477.889	n/a	rating_afraid	n/a	task-alignvideo/ses-01_run-01_order-04_content-parkour.mp4
482.741	4.333	rating_disgusted	6.56	task-alignvideo/ses-01_run-01_order-04_content-parkour.mp4
487.376	3.951	rating_warm	13.75	task-alignvideo/ses-01_run-01_order-04_content-parkour.mp4
492.944	n/a	rating_engaged	n/a	task-alignvideo/ses-01_run-01_order-04_content-parkour.mp4
