onset	duration	trial_type	response_value	rating_type	expression	sex	race	age	stim_file_TODO
3.86	1.349	face	n/a	sex	happy	male	WC	old	task-faces/1Happy_Model3_2Male_1WC_2Old.mp4
5.208	1.721	rating	0.0797	sex	happy	male	WC	old	n/a
5.275	1.654	rating_mouse_trajectory	0.0797	sex	happy	male	WC	old	n/a
7.351	2.059	face	n/a	sex	pleasure	female	EA	young	task-faces/8Pleasure_Model1_1Female_2EA_1Young.mp4
9.41	0.853	rating	0.3386	sex	pleasure	female	EA	young	n/a
9.677	0.586	rating_mouse_trajectory	0.3386	sex	pleasure	female	EA	young	n/a
11.351	1.327	face	n/a	sex	disgust	male	African	old	task-faces/4Disgust_Model5_2Male_3African_2Old.mp4
12.678	0.918	rating	0.0	sex	disgust	male	African	old	n/a
12.928	0.668	rating_mouse_trajectory	0.0	sex	disgust	male	African	old	n/a
15.6	2.046	face	n/a	sex	pain	male	WC	old	task-faces/7Pain_Model2_2Male_1WC_2Old.mp4
17.646	0.818	rating	0.0	sex	pain	male	WC	old	n/a
17.763	0.702	rating_mouse_trajectory	0.0	sex	pain	male	WC	old	n/a
19.602	1.346	face	n/a	sex	anger	male	African	old	task-faces/5Anger_Model3_2Male_3African_2Old.mp4
20.948	0.785	rating	0.0372	sex	anger	male	African	old	n/a
20.998	0.735	rating_mouse_trajectory	0.0372	sex	anger	male	African	old	n/a
26.891	1.309	face	n/a	sex	happy	male	African	young	task-faces/1Happy_Model1_2Male_3African_1Young.mp4
28.2	1.835	rating	0.0736	sex	happy	male	African	young	n/a
28.4	1.635	rating_mouse_trajectory	0.0736	sex	happy	male	African	young	n/a
30.117	1.318	face	n/a	sex	disgust	male	African	young	task-faces/4Disgust_Model1_2Male_3African_1Young.mp4
31.435	1.685	rating	0.1748	sex	disgust	male	African	young	n/a
31.768	1.352	rating_mouse_trajectory	0.1748	sex	disgust	male	African	young	n/a
33.35	1.32	face	n/a	sex	fear	male	African	old	task-faces/3Fear_Model1_2Male_3African_2Old.mp4
34.669	0.926	rating	0.1687	sex	fear	male	African	old	n/a
34.953	0.643	rating_mouse_trajectory	0.1687	sex	fear	male	African	old	n/a
36.577	1.327	face	n/a	sex	fear	female	African	young	task-faces/3Fear_Model2_1Female_3African_1Young.mp4
37.904	0.792	rating	0.0534	sex	fear	female	African	young	n/a
37.971	0.725	rating_mouse_trajectory	0.0534	sex	fear	female	African	young	n/a
39.836	1.319	face	n/a	sex	happy	male	EA	young	task-faces/1Happy_Model1_2Male_2EA_1Young.mp4
41.155	0.79	rating	0.2496	sex	happy	male	EA	young	n/a
41.305	0.64	rating_mouse_trajectory	0.2496	sex	happy	male	EA	young	n/a
45.101	1.323	face	n/a	sex	fear	male	WC	old	task-faces/3Fear_Model3_2Male_1WC_2Old.mp4
46.424	0.756	rating	0.2921	sex	fear	male	WC	old	n/a
46.491	0.689	rating_mouse_trajectory	0.2921	sex	fear	male	WC	old	n/a
49.351	2.042	face	n/a	sex	pain	female	African	young	task-faces/7Pain_Model4_1Female_3African_1Young.mp4
51.392	1.87	rating	0.0918	sex	pain	female	African	young	n/a
51.442	1.82	rating_mouse_trajectory	0.0918	sex	pain	female	African	young	n/a
55.32	2.058	face	n/a	sex	pain	male	African	young	task-faces/7Pain_Model3_2Male_3African_1Young.mp4
57.378	0.668	rating	0.0	sex	pain	male	African	young	n/a
57.511	0.535	rating_mouse_trajectory	0.0	sex	pain	male	African	young	n/a
60.303	1.31	face	n/a	sex	disgust	female	WC	young	task-faces/4Disgust_Model2_1Female_1WC_1Young.mp4
61.613	0.718	rating	0.4094	sex	disgust	female	WC	young	n/a
61.78	0.551	rating_mouse_trajectory	0.4094	sex	disgust	female	WC	young	n/a
64.525	2.04	face	n/a	sex	pain	male	WC	young	task-faces/7Pain_Model4_2Male_1WC_1Young.mp4
66.565	0.818	rating	0.2476	sex	pain	male	WC	young	n/a
66.615	0.768	rating_mouse_trajectory	0.2476	sex	pain	male	WC	young	n/a
69.494	2.04	face	n/a	sex	pain	male	African	old	task-faces/7Pain_Model1_2Male_3African_2Old.mp4
71.533	0.918	rating	0.0	sex	pain	male	African	old	n/a
71.583	0.868	rating_mouse_trajectory	0.0	sex	pain	male	African	old	n/a
74.44	1.312	face	n/a	sex	surprise	male	EA	young	task-faces/2Surprise_Model4_2Male_2EA_1Young.mp4
75.751	0.918	rating	0.3528	sex	surprise	male	EA	young	n/a
76.201	0.468	rating_mouse_trajectory	0.3528	sex	surprise	male	EA	young	n/a
78.657	1.312	face	n/a	sex	fear	female	WC	young	task-faces/3Fear_Model5_1Female_1WC_1Young.mp4
79.97	1.41	rating	0.3811	sex	fear	female	WC	young	n/a
80.47	0.91	rating_mouse_trajectory	0.3811	sex	fear	female	WC	young	n/a
84.894	1.312	face	n/a	sex	surprise	female	EA	old	task-faces/2Surprise_Model3_1Female_2EA_2Old.mp4
86.205	1.507	rating	0.3447	sex	surprise	female	EA	old	n/a
86.372	1.34	rating_mouse_trajectory	0.3447	sex	surprise	female	EA	old	n/a
88.136	1.303	face	n/a	sex	anger	female	EA	young	task-faces/5Anger_Model5_1Female_2EA_1Young.mp4
89.44	0.972	rating	0.4478	sex	anger	female	EA	young	n/a
89.523	0.889	rating_mouse_trajectory	0.4478	sex	anger	female	EA	young	n/a
92.377	1.315	face	n/a	sex	happy	male	WC	young	task-faces/1Happy_Model5_2Male_1WC_1Young.mp4
93.691	1.537	rating	0.3528	sex	happy	male	WC	young	n/a
93.875	1.354	rating_mouse_trajectory	0.3528	sex	happy	male	WC	young	n/a
95.617	2.043	face	n/a	sex	pain	female	African	old	task-faces/7Pain_Model5_1Female_3African_2Old.mp4
97.66	0.669	rating	0.0	sex	pain	female	African	old	n/a
97.71	0.619	rating_mouse_trajectory	0.0	sex	pain	female	African	old	n/a
100.567	1.311	face	n/a	sex	anger	male	EA	old	task-faces/5Anger_Model2_2Male_2EA_2Old.mp4
101.878	1.018	rating	0.2597	sex	anger	male	EA	old	n/a
102.045	0.852	rating_mouse_trajectory	0.2597	sex	anger	male	EA	old	n/a
104.784	1.312	face	n/a	sex	disgust	male	WC	young	task-faces/4Disgust_Model3_2Male_1WC_1Young.mp4
106.096	1.068	rating	0.1181	sex	disgust	male	WC	young	n/a
106.379	0.785	rating_mouse_trajectory	0.1181	sex	disgust	male	WC	young	n/a
109.024	2.04	face	n/a	sex	pleasure	male	EA	old	task-faces/8Pleasure_Model5_2Male_2EA_2Old.mp4
111.065	0.818	rating	0.0	sex	pleasure	male	EA	old	n/a
111.331	0.551	rating_mouse_trajectory	0.0	sex	pleasure	male	EA	old	n/a
112.986	1.313	face	n/a	sex	sad	female	EA	young	task-faces/6Sad_Model2_1Female_2EA_1Young.mp4
114.299	0.868	rating	0.1768	sex	sad	female	EA	young	n/a
114.666	0.502	rating_mouse_trajectory	0.1768	sex	sad	female	EA	young	n/a
116.231	2.053	face	n/a	sex	pain	female	WC	old	task-faces/7Pain_Model4_1Female_1WC_2Old.mp4
118.284	0.901	rating	0.0756	sex	pain	female	WC	old	n/a
118.334	0.851	rating_mouse_trajectory	0.0756	sex	pain	female	WC	old	n/a
120.189	1.312	face	n/a	sex	sad	male	EA	young	task-faces/6Sad_Model3_2Male_2EA_1Young.mp4
121.502	0.911	rating	0.0655	sex	sad	male	EA	young	n/a
121.819	0.594	rating_mouse_trajectory	0.0655	sex	sad	male	EA	young	n/a
124.409	1.311	face	n/a	sex	disgust	female	WC	old	task-faces/4Disgust_Model1_1Female_1WC_2Old.mp4
125.72	1.059	rating	0.1687	sex	disgust	female	WC	old	n/a
125.92	0.859	rating_mouse_trajectory	0.1687	sex	disgust	female	WC	old	n/a
128.647	2.041	face	n/a	sex	pleasure	female	African	young	task-faces/8Pleasure_Model1_1Female_3African_1Young.mp4
130.689	1.057	rating	0.0231	sex	pleasure	female	African	young	n/a
130.939	0.807	rating_mouse_trajectory	0.0231	sex	pleasure	female	African	young	n/a
133.615	2.058	face	n/a	sex	pain	female	EA	old	task-faces/7Pain_Model2_1Female_2EA_2Old.mp4
135.674	0.988	rating	0.0595	sex	pain	female	EA	old	n/a
135.907	0.755	rating_mouse_trajectory	0.0595	sex	pain	female	EA	old	n/a
137.6	1.308	face	n/a	sex	anger	female	African	young	task-faces/5Anger_Model1_1Female_3African_1Young.mp4
138.908	1.037	rating	0.0	sex	anger	female	African	young	n/a
139.275	0.67	rating_mouse_trajectory	0.0	sex	anger	female	African	young	n/a
140.831	2.045	face	n/a	sex	pleasure	male	WC	old	task-faces/8Pleasure_Model3_2Male_1WC_2Old.mp4
142.876	0.819	rating	0.0	sex	pleasure	male	WC	old	n/a
143.16	0.536	rating_mouse_trajectory	0.0	sex	pleasure	male	WC	old	n/a
145.784	1.311	face	n/a	sex	fear	male	African	young	task-faces/3Fear_Model5_2Male_3African_1Young.mp4
147.095	0.969	rating	0.0101	sex	fear	male	African	young	n/a
147.211	0.852	rating_mouse_trajectory	0.0101	sex	fear	male	African	young	n/a
148.999	2.047	face	n/a	sex	pleasure	male	WC	young	task-faces/8Pleasure_Model4_2Male_1WC_1Young.mp4
151.046	1.535	rating	0.021	sex	pleasure	male	WC	young	n/a
151.096	1.485	rating_mouse_trajectory	0.021	sex	pleasure	male	WC	young	n/a
152.97	2.045	face	n/a	sex	pain	female	WC	young	task-faces/7Pain_Model1_1Female_1WC_1Young.mp4
155.014	0.985	rating	0.2011	sex	pain	female	WC	young	n/a
155.198	0.802	rating_mouse_trajectory	0.2011	sex	pain	female	WC	young	n/a
158.937	1.312	face	n/a	sex	sad	female	WC	young	task-faces/6Sad_Model4_1Female_1WC_1Young.mp4
160.25	1.652	rating	0.3285	sex	sad	female	WC	young	n/a
160.566	1.335	rating_mouse_trajectory	0.3285	sex	sad	female	WC	young	n/a
164.172	1.313	face	n/a	sex	happy	male	African	old	task-faces/1Happy_Model5_2Male_3African_2Old.mp4
165.485	1.719	rating	0.0	sex	happy	male	African	old	n/a
165.868	1.335	rating_mouse_trajectory	0.0	sex	happy	male	African	old	n/a
170.401	1.32	face	n/a	sex	surprise	male	WC	old	task-faces/2Surprise_Model2_2Male_1WC_2Old.mp4
171.721	0.975	rating	0.1545	sex	surprise	male	WC	old	n/a
172.021	0.675	rating_mouse_trajectory	0.1545	sex	surprise	male	WC	old	n/a
174.644	1.311	face	n/a	sex	disgust	female	African	young	task-faces/4Disgust_Model5_1Female_3African_1Young.mp4
175.955	1.407	rating	0.0413	sex	disgust	female	African	young	n/a
176.255	1.107	rating_mouse_trajectory	0.0413	sex	disgust	female	African	young	n/a
178.882	1.308	face	n/a	sex	happy	female	WC	young	task-faces/1Happy_Model5_1Female_1WC_1Young.mp4
180.19	1.172	rating	0.1808	sex	happy	female	WC	young	n/a
180.557	0.805	rating_mouse_trajectory	0.1808	sex	happy	female	WC	young	n/a
182.122	2.037	face	n/a	sex	pleasure	female	WC	old	task-faces/8Pleasure_Model3_1Female_1WC_2Old.mp4
184.159	1.754	rating	0.0817	sex	pleasure	female	WC	old	n/a
184.525	1.387	rating_mouse_trajectory	0.0817	sex	pleasure	female	WC	old	n/a
187.091	1.303	face	n/a	sex	fear	male	WC	young	task-faces/3Fear_Model4_2Male_1WC_1Young.mp4
188.393	1.869	rating	0.0465	sex	fear	male	WC	young	n/a
188.693	1.569	rating_mouse_trajectory	0.0465	sex	fear	male	WC	young	n/a
190.317	1.311	face	n/a	sex	happy	female	African	old	task-faces/1Happy_Model3_1Female_3African_2Old.mp4
191.628	1.502	rating	0.0688	sex	happy	female	African	old	n/a
191.961	1.169	rating_mouse_trajectory	0.0688	sex	happy	female	African	old	n/a
195.534	1.313	face	n/a	sex	surprise	male	WC	young	task-faces/2Surprise_Model5_2Male_1WC_1Young.mp4
196.847	1.118	rating	0.108	sex	surprise	male	WC	young	n/a
197.163	0.801	rating_mouse_trajectory	0.108	sex	surprise	male	WC	young	n/a
200.767	1.314	face	n/a	sex	anger	female	WC	young	task-faces/5Anger_Model4_1Female_1WC_1Young.mp4
202.082	1.702	rating	0.3386	sex	anger	female	WC	young	n/a
202.382	1.402	rating_mouse_trajectory	0.3386	sex	anger	female	WC	young	n/a
205.003	1.314	face	n/a	sex	surprise	female	African	young	task-faces/2Surprise_Model5_1Female_3African_1Young.mp4
206.317	1.852	rating	0.282	sex	surprise	female	African	young	n/a
206.517	1.652	rating_mouse_trajectory	0.282	sex	surprise	female	African	young	n/a
209.24	1.345	face	n/a	sex	surprise	female	WC	old	task-faces/2Surprise_Model2_1Female_1WC_2Old.mp4
210.585	0.927	rating	0.6137	sex	surprise	female	WC	old	n/a
210.852	0.661	rating_mouse_trajectory	0.6137	sex	surprise	female	WC	old	n/a
213.495	1.308	face	n/a	sex	sad	male	WC	young	task-faces/6Sad_Model2_2Male_1WC_1Young.mp4
214.803	0.851	rating	0.2981	sex	sad	male	WC	young	n/a
215.153	0.501	rating_mouse_trajectory	0.2981	sex	sad	male	WC	young	n/a
217.728	1.311	face	n/a	sex	surprise	female	African	old	task-faces/2Surprise_Model4_1Female_3African_2Old.mp4
219.038	0.941	rating	0.0433	sex	surprise	female	African	old	n/a
219.372	0.607	rating_mouse_trajectory	0.0433	sex	surprise	female	African	old	n/a
221.968	1.305	face	n/a	sex	anger	male	WC	old	task-faces/5Anger_Model4_2Male_1WC_2Old.mp4
223.273	1.667	rating	0.11	sex	anger	male	WC	old	n/a
223.69	1.25	rating_mouse_trajectory	0.11	sex	anger	male	WC	old	n/a
226.207	1.318	face	n/a	sex	happy	female	EA	young	task-faces/1Happy_Model5_1Female_2EA_1Young.mp4
227.525	1.571	rating	0.6299	sex	happy	female	EA	young	n/a
227.825	1.271	rating_mouse_trajectory	0.6299	sex	happy	female	EA	young	n/a
230.45	1.309	face	n/a	sex	disgust	female	EA	young	task-faces/4Disgust_Model4_1Female_2EA_1Young.mp4
231.76	0.969	rating	0.4984	sex	disgust	female	EA	young	n/a
232.076	0.653	rating_mouse_trajectory	0.4984	sex	disgust	female	EA	young	n/a
233.667	1.311	face	n/a	sex	surprise	female	WC	young	task-faces/2Surprise_Model3_1Female_1WC_1Young.mp4
234.978	1.052	rating	0.375	sex	surprise	female	WC	young	n/a
235.311	0.718	rating_mouse_trajectory	0.375	sex	surprise	female	WC	young	n/a
236.881	2.048	face	n/a	sex	pain	female	EA	young	task-faces/7Pain_Model2_1Female_2EA_1Young.mp4
238.929	1.135	rating	0.5833	sex	pain	female	EA	young	n/a
239.246	0.818	rating_mouse_trajectory	0.5833	sex	pain	female	EA	young	n/a
242.851	1.313	face	n/a	sex	sad	female	African	old	task-faces/6Sad_Model1_1Female_3African_2Old.mp4
244.164	1.402	rating	0.193	sex	sad	female	African	old	n/a
244.514	1.052	rating_mouse_trajectory	0.193	sex	sad	female	African	old	n/a
246.089	1.31	face	n/a	sex	surprise	male	EA	old	task-faces/2Surprise_Model4_2Male_2EA_2Old.mp4
247.399	1.135	rating	0.2799	sex	surprise	male	EA	old	n/a
247.749	0.785	rating_mouse_trajectory	0.2799	sex	surprise	male	EA	old	n/a
253.323	1.312	face	n/a	sex	surprise	male	African	old	task-faces/2Surprise_Model2_2Male_3African_2Old.mp4
254.635	1.069	rating	0.0817	sex	surprise	male	African	old	n/a
254.968	0.735	rating_mouse_trajectory	0.0817	sex	surprise	male	African	old	n/a
256.544	1.309	face	n/a	sex	anger	female	EA	old	task-faces/5Anger_Model5_1Female_2EA_2Old.mp4
257.853	1.843	rating	0.108	sex	anger	female	EA	old	n/a
258.253	1.443	rating_mouse_trajectory	0.108	sex	anger	female	EA	old	n/a
260.76	1.311	face	n/a	sex	sad	female	African	young	task-faces/6Sad_Model3_1Female_3African_1Young.mp4
262.071	0.908	rating	0.377	sex	sad	female	African	young	n/a
262.471	0.508	rating_mouse_trajectory	0.377	sex	sad	female	African	young	n/a
264.998	1.308	face	n/a	sex	sad	female	WC	old	task-faces/6Sad_Model2_1Female_1WC_2Old.mp4
266.306	1.006	rating	0.1606	sex	sad	female	WC	old	n/a
266.639	0.673	rating_mouse_trajectory	0.1606	sex	sad	female	WC	old	n/a
269.233	2.041	face	n/a	sex	pleasure	male	EA	young	task-faces/8Pleasure_Model2_2Male_2EA_1Young.mp4
271.274	0.971	rating	0.1485	sex	pleasure	male	EA	young	n/a
271.358	0.888	rating_mouse_trajectory	0.1485	sex	pleasure	male	EA	young	n/a
273.198	2.045	face	n/a	sex	pleasure	female	EA	old	task-faces/8Pleasure_Model1_1Female_2EA_2Old.mp4
275.243	0.837	rating	0.1464	sex	pleasure	female	EA	old	n/a
275.593	0.487	rating_mouse_trajectory	0.1464	sex	pleasure	female	EA	old	n/a
278.156	1.304	face	n/a	sex	surprise	female	EA	young	task-faces/2Surprise_Model5_1Female_2EA_1Young.mp4
279.461	1.569	rating	0.3608	sex	surprise	female	EA	young	n/a
279.727	1.302	rating_mouse_trajectory	0.3608	sex	surprise	female	EA	young	n/a
281.365	1.314	face	n/a	sex	happy	female	African	young	task-faces/1Happy_Model3_1Female_3African_1Young.mp4
282.679	1.068	rating	0.2112	sex	happy	female	African	young	n/a
283.062	0.685	rating_mouse_trajectory	0.2112	sex	happy	female	African	young	n/a
285.601	2.046	face	n/a	sex	pleasure	male	African	old	task-faces/8Pleasure_Model3_2Male_3African_2Old.mp4
287.647	0.918	rating	0.1303	sex	pleasure	male	African	old	n/a
287.947	0.618	rating_mouse_trajectory	0.1303	sex	pleasure	male	African	old	n/a
290.567	1.315	face	n/a	sex	surprise	male	African	young	task-faces/2Surprise_Model5_2Male_3African_1Young.mp4
291.882	1.052	rating	0.0858	sex	surprise	male	African	young	n/a
292.265	0.668	rating_mouse_trajectory	0.0858	sex	surprise	male	African	young	n/a
293.801	1.316	face	n/a	sex	disgust	male	WC	old	task-faces/4Disgust_Model2_2Male_1WC_2Old.mp4
295.117	1.852	rating	0.3204	sex	disgust	male	WC	old	n/a
295.45	1.518	rating_mouse_trajectory	0.3204	sex	disgust	male	WC	old	n/a
299.039	1.313	face	n/a	sex	anger	male	EA	young	task-faces/5Anger_Model2_2Male_2EA_1Young.mp4
300.352	0.668	rating	0.4013	sex	anger	male	EA	young	n/a
300.485	0.535	rating_mouse_trajectory	0.4013	sex	anger	male	EA	young	n/a
303.262	1.309	face	n/a	sex	anger	male	WC	young	task-faces/5Anger_Model1_2Male_1WC_1Young.mp4
304.57	0.792	rating	0.3244	sex	anger	male	WC	young	n/a
304.853	0.509	rating_mouse_trajectory	0.3244	sex	anger	male	WC	young	n/a
307.494	1.311	face	n/a	sex	happy	male	EA	old	task-faces/1Happy_Model3_2Male_2EA_2Old.mp4
308.805	0.791	rating	0.3406	sex	happy	male	EA	old	n/a
309.122	0.474	rating_mouse_trajectory	0.3406	sex	happy	male	EA	old	n/a
310.727	2.046	face	n/a	sex	pleasure	female	WC	young	task-faces/8Pleasure_Model5_1Female_1WC_1Young.mp4
312.773	0.839	rating	0.2193	sex	pleasure	female	WC	young	n/a
312.94	0.672	rating_mouse_trajectory	0.2193	sex	pleasure	female	WC	young	n/a
314.696	1.312	face	n/a	sex	fear	female	African	old	task-faces/3Fear_Model3_1Female_3African_2Old.mp4
316.008	1.071	rating	0.1121	sex	fear	female	African	old	n/a
316.241	0.838	rating_mouse_trajectory	0.1121	sex	fear	female	African	old	n/a
318.935	1.308	face	n/a	sex	fear	female	EA	old	task-faces/3Fear_Model4_1Female_2EA_2Old.mp4
320.243	0.803	rating	0.3002	sex	fear	female	EA	old	n/a
320.526	0.52	rating_mouse_trajectory	0.3002	sex	fear	female	EA	old	n/a
323.166	1.311	face	n/a	sex	sad	female	EA	old	task-faces/6Sad_Model3_1Female_2EA_2Old.mp4
324.478	1.867	rating	0.1019	sex	sad	female	EA	old	n/a
324.794	1.55	rating_mouse_trajectory	0.1019	sex	sad	female	EA	old	n/a
327.384	1.312	face	n/a	sex	disgust	female	EA	old	task-faces/4Disgust_Model5_1Female_2EA_2Old.mp4
328.696	0.902	rating	0.0696	sex	disgust	female	EA	old	n/a
329.012	0.585	rating_mouse_trajectory	0.0696	sex	disgust	female	EA	old	n/a
330.617	1.314	face	n/a	sex	sad	male	EA	old	task-faces/6Sad_Model1_2Male_2EA_2Old.mp4
331.93	0.768	rating	0.0251	sex	sad	male	EA	old	n/a
332.197	0.502	rating_mouse_trajectory	0.0251	sex	sad	male	EA	old	n/a
335.852	2.047	face	n/a	sex	pain	male	EA	old	task-faces/7Pain_Model3_2Male_2EA_2Old.mp4
337.899	0.935	rating	0.0837	sex	pain	male	EA	old	n/a
337.933	0.902	rating_mouse_trajectory	0.0837	sex	pain	male	EA	old	n/a
340.816	1.301	face	n/a	sex	sad	male	WC	old	task-faces/6Sad_Model2_2Male_1WC_2Old.mp4
342.117	0.835	rating	0.282	sex	sad	male	WC	old	n/a
342.484	0.468	rating_mouse_trajectory	0.282	sex	sad	male	WC	old	n/a
346.024	1.312	face	n/a	sex	fear	male	EA	young	task-faces/3Fear_Model4_2Male_2EA_1Young.mp4
347.336	0.851	rating	0.3042	sex	fear	male	EA	young	n/a
347.669	0.518	rating_mouse_trajectory	0.3042	sex	fear	male	EA	young	n/a
350.243	2.045	face	n/a	sex	pleasure	male	African	young	task-faces/8Pleasure_Model3_2Male_3African_1Young.mp4
352.288	0.908	rating	0.3083	sex	pleasure	male	African	young	n/a
352.588	0.608	rating_mouse_trajectory	0.3083	sex	pleasure	male	African	young	n/a
355.212	1.311	face	n/a	sex	sad	male	African	young	task-faces/6Sad_Model4_2Male_3African_1Young.mp4
356.523	0.823	rating	0.2536	sex	sad	male	African	young	n/a
356.623	0.723	rating_mouse_trajectory	0.2536	sex	sad	male	African	young	n/a
360.447	2.045	face	n/a	sex	pain	male	EA	young	task-faces/7Pain_Model1_2Male_2EA_1Young.mp4
362.492	0.954	rating	0.2354	sex	pain	male	EA	young	n/a
362.825	0.62	rating_mouse_trajectory	0.2354	sex	pain	male	EA	young	n/a
364.399	1.311	face	n/a	sex	disgust	male	EA	young	task-faces/4Disgust_Model4_2Male_2EA_1Young.mp4
365.71	1.736	rating	0.3548	sex	disgust	male	EA	young	n/a
365.943	1.503	rating_mouse_trajectory	0.3548	sex	disgust	male	EA	young	n/a
367.614	1.296	face	n/a	sex	happy	female	EA	old	task-faces/1Happy_Model3_1Female_2EA_2Old.mp4
368.911	1.035	rating	0.2172	sex	happy	female	EA	old	n/a
369.011	0.935	rating_mouse_trajectory	0.2172	sex	happy	female	EA	old	n/a
372.817	1.313	face	n/a	sex	fear	male	EA	old	task-faces/3Fear_Model4_2Male_2EA_2Old.mp4
374.129	0.918	rating	0.0494	sex	fear	male	EA	old	n/a
374.496	0.551	rating_mouse_trajectory	0.0494	sex	fear	male	EA	old	n/a
377.035	1.312	face	n/a	sex	sad	male	African	old	task-faces/6Sad_Model1_2Male_3African_2Old.mp4
378.348	0.852	rating	0.002	sex	sad	male	African	old	n/a
378.681	0.518	rating_mouse_trajectory	0.002	sex	sad	male	African	old	n/a
381.267	1.315	face	n/a	sex	anger	female	African	old	task-faces/5Anger_Model2_1Female_3African_2Old.mp4
382.583	0.935	rating	0.1222	sex	anger	female	African	old	n/a
382.849	0.668	rating_mouse_trajectory	0.1222	sex	anger	female	African	old	n/a
387.501	2.051	face	n/a	sex	pleasure	female	African	old	task-faces/8Pleasure_Model5_1Female_3African_2Old.mp4
389.552	0.935	rating	0.0696	sex	pleasure	female	African	old	n/a
389.768	0.718	rating_mouse_trajectory	0.0696	sex	pleasure	female	African	old	n/a
391.459	1.295	face	n/a	sex	disgust	male	EA	old	task-faces/4Disgust_Model2_2Male_2EA_2Old.mp4
392.753	0.942	rating	0.0635	sex	disgust	male	EA	old	n/a
393.02	0.676	rating_mouse_trajectory	0.0635	sex	disgust	male	EA	old	n/a
396.668	1.304	face	n/a	sex	disgust	female	African	old	task-faces/4Disgust_Model5_1Female_3African_2Old.mp4
397.972	0.824	rating	0.1626	sex	disgust	female	African	old	n/a
398.188	0.607	rating_mouse_trajectory	0.1626	sex	disgust	female	African	old	n/a
400.895	1.311	face	n/a	sex	fear	female	EA	young	task-faces/3Fear_Model1_1Female_2EA_1Young.mp4
402.207	0.956	rating	0.5732	sex	fear	female	EA	young	n/a
402.423	0.739	rating_mouse_trajectory	0.5732	sex	fear	female	EA	young	n/a
406.135	1.307	face	n/a	sex	fear	female	WC	old	task-faces/3Fear_Model5_1Female_1WC_2Old.mp4
407.442	1.437	rating	0.551	sex	fear	female	WC	old	n/a
408.058	0.821	rating_mouse_trajectory	0.551	sex	fear	female	WC	old	n/a
410.355	1.305	face	n/a	sex	anger	female	WC	old	task-faces/5Anger_Model4_1Female_1WC_2Old.mp4
411.66	0.735	rating	0.379	sex	anger	female	WC	old	n/a
411.893	0.502	rating_mouse_trajectory	0.379	sex	anger	female	WC	old	n/a
413.565	1.296	face	n/a	sex	anger	male	African	young	task-faces/5Anger_Model5_2Male_3African_1Young.mp4
414.861	0.935	rating	0.106	sex	anger	male	African	young	n/a
415.245	0.552	rating_mouse_trajectory	0.106	sex	anger	male	African	young	n/a
416.783	1.313	face	n/a	sex	happy	female	WC	old	task-faces/1Happy_Model2_1Female_1WC_2Old.mp4
418.096	0.885	rating	0.1383	sex	happy	female	WC	old	n/a
418.379	0.602	rating_mouse_trajectory	0.1383	sex	happy	female	WC	old	n/a
