onset	duration	trial_type	response_x	response_y	situation	context	modality	stim_file
7.827	15.329	narrative_presentation	n/a	n/a	Necessity-of-sacrificing-loved-ones	town	Audio	task-narratives/Narrative8Situation1.mp3
23.156	3.483	rating_feeling	901	551	Necessity-of-sacrificing-loved-ones	town	Audio	n/a
24.739	1.9	feeling_mouse_trajectory	901	551	Necessity-of-sacrificing-loved-ones	town	Audio	n/a
27.198	0.334	rating_expectation	960	707	Necessity-of-sacrificing-loved-ones	town	Audio	n/a
27.581	-0.05	expectation_mouse_trajectory	960	707	Necessity-of-sacrificing-loved-ones	town	Audio	n/a
34.387	8.776	narrative_presentation	n/a	n/a	Abduction	town	Audio	task-narratives/Narrative8Situation2.mp3
43.163	1.384	rating_feeling	696	411	Abduction	town	Audio	n/a
43.596	0.951	feeling_mouse_trajectory	696	411	Abduction	town	Audio	n/a
47.189	3.125	rating_expectation	804	385	Abduction	town	Audio	n/a
47.939	2.375	expectation_mouse_trajectory	804	385	Abduction	town	Audio	n/a
55.261	22.148	narrative_presentation	n/a	n/a	Adultery	town	Audio	task-narratives/Narrative8Situation3.mp3
77.409	2.018	rating_feeling	750	360	Adultery	town	Audio	n/a
77.726	1.701	feeling_mouse_trajectory	750	360	Adultery	town	Audio	n/a
81.436	1.835	rating_expectation	629	379	Adultery	town	Audio	n/a
81.852	1.418	expectation_mouse_trajectory	629	379	Adultery	town	Audio	n/a
88.507	12.611	narrative_presentation	n/a	n/a	Obtaining	city	Audio	task-narratives/Narrative8Situation4.mp3
101.117	3.039	rating_feeling	815	450	Obtaining	city	Audio	n/a
102.167	1.989	feeling_mouse_trajectory	815	450	Obtaining	city	Audio	n/a
105.147	2.97	rating_expectation	741	391	Obtaining	city	Audio	n/a
105.88	2.237	expectation_mouse_trajectory	741	391	Obtaining	city	Audio	n/a
111.236	6.626	narrative_presentation	n/a	n/a	Supplication	city	Audio	task-narratives/Narrative8Situation5.mp3
117.862	3.752	rating_feeling	899	363	Supplication	city	Audio	n/a
118.629	2.985	feeling_mouse_trajectory	899	363	Supplication	city	Audio	n/a
121.886	3.285	rating_expectation	764	398	Supplication	city	Audio	n/a
123.819	1.352	expectation_mouse_trajectory	764	398	Supplication	city	Audio	n/a
127.988	5.972	narrative_presentation	n/a	n/a	Rivalry-of-kin	city	Audio	task-narratives/Narrative8Situation6.mp3
133.96	2.276	rating_feeling	961	445	Rivalry-of-kin	city	Audio	n/a
134.46	1.776	feeling_mouse_trajectory	961	445	Rivalry-of-kin	city	Audio	n/a
137.989	2.391	rating_expectation	802	390	Rivalry-of-kin	city	Audio	n/a
139.189	1.191	expectation_mouse_trajectory	802	390	Rivalry-of-kin	city	Audio	n/a
145.044	10.779	narrative_presentation	n/a	n/a	Recovery-of-a-lost-one	beach	Audio	task-narratives/Narrative8Situation7.mp3
155.823	1.868	rating_feeling	636	471	Recovery-of-a-lost-one	beach	Audio	n/a
156.406	1.285	feeling_mouse_trajectory	636	471	Recovery-of-a-lost-one	beach	Audio	n/a
159.847	2.084	rating_expectation	604	356	Recovery-of-a-lost-one	beach	Audio	n/a
160.281	1.651	expectation_mouse_trajectory	604	356	Recovery-of-a-lost-one	beach	Audio	n/a
166.902	11.277	narrative_presentation	n/a	n/a	Rivalry-of-superior-versus-inferior	beach	Audio	task-narratives/Narrative8Situation8.mp3
178.179	1.776	rating_feeling	654	390	Rivalry-of-superior-versus-inferior	beach	Audio	n/a
178.629	1.326	feeling_mouse_trajectory	654	390	Rivalry-of-superior-versus-inferior	beach	Audio	n/a
182.206	2.075	rating_expectation	582	387	Rivalry-of-superior-versus-inferior	beach	Audio	n/a
182.706	1.575	expectation_mouse_trajectory	582	387	Rivalry-of-superior-versus-inferior	beach	Audio	n/a
189.261	10.111	narrative_presentation	n/a	n/a	Slaying-of-kin-unrecognized	beach	Audio	task-narratives/Narrative8Situation9.mp3
199.372	2.933	rating_feeling	964	475	Slaying-of-kin-unrecognized	beach	Audio	n/a
200.022	2.283	feeling_mouse_trajectory	964	475	Slaying-of-kin-unrecognized	beach	Audio	n/a
203.396	0.05	rating_expectation	960	707	Slaying-of-kin-unrecognized	beach	Audio	n/a
203.496	-0.05	expectation_mouse_trajectory	960	707	Slaying-of-kin-unrecognized	beach	Audio	n/a
209.468	54.288	narrative_presentation	n/a	n/a	Deliverance	prison	Audio	task-narratives/Narrative7Situation1.mp3
263.755	3.968	rating_feeling	732	430	Deliverance	prison	Audio	n/a
264.389	3.335	feeling_mouse_trajectory	732	430	Deliverance	prison	Audio	n/a
267.787	0.026	rating_expectation	960	707	Deliverance	prison	Audio	n/a
267.987	-0.174	expectation_mouse_trajectory	960	707	Deliverance	prison	Audio	n/a
274.859	5.947	narrative_presentation	n/a	n/a	Adultery	prison	Audio	task-narratives/Narrative7Situation2.mp3
280.806	1.955	rating_feeling	893	604	Adultery	prison	Audio	n/a
281.589	1.171	feeling_mouse_trajectory	893	604	Adultery	prison	Audio	n/a
284.83	1.17	rating_expectation	624	439	Adultery	prison	Audio	n/a
285.196	0.803	expectation_mouse_trajectory	624	439	Adultery	prison	Audio	n/a
296.884	7.442	narrative_presentation	n/a	n/a	Pursuit	prison	Audio	task-narratives/Narrative7Situation3.mp3
304.327	2.251	rating_feeling	938	568	Pursuit	prison	Audio	n/a
305.243	1.335	feeling_mouse_trajectory	938	568	Pursuit	prison	Audio	n/a
308.352	1.734	rating_expectation	730	498	Pursuit	prison	Audio	n/a
308.986	1.101	expectation_mouse_trajectory	730	498	Pursuit	prison	Audio	n/a
315.408	11.482	narrative_presentation	n/a	n/a	Conflict-with-a-god	park	Audio	task-narratives/Narrative7Situation4.mp3
326.89	2.138	rating_feeling	942	532	Conflict-with-a-god	park	Audio	n/a
327.506	1.521	feeling_mouse_trajectory	942	532	Conflict-with-a-god	park	Audio	n/a
330.913	2.836	rating_expectation	802	394	Conflict-with-a-god	park	Audio	n/a
331.446	2.303	expectation_mouse_trajectory	802	394	Conflict-with-a-god	park	Audio	n/a
339.966	7.976	narrative_presentation	n/a	n/a	Recovery-of-a-lost-one	park	Audio	task-narratives/Narrative7Situation5.mp3
347.943	2.534	rating_feeling	887	552	Recovery-of-a-lost-one	park	Audio	n/a
348.61	1.868	feeling_mouse_trajectory	887	552	Recovery-of-a-lost-one	park	Audio	n/a
351.969	1.901	rating_expectation	688	457	Recovery-of-a-lost-one	park	Audio	n/a
352.435	1.434	expectation_mouse_trajectory	688	457	Recovery-of-a-lost-one	park	Audio	n/a
359.025	8.785	narrative_presentation	n/a	n/a	Supplication	park	Audio	task-narratives/Narrative7Situation6.mp3
367.81	3.239	rating_feeling	937	549	Supplication	park	Audio	n/a
368.476	2.572	feeling_mouse_trajectory	937	549	Supplication	park	Audio	n/a
371.847	2.704	rating_expectation	769	439	Supplication	park	Audio	n/a
372.33	2.221	expectation_mouse_trajectory	769	439	Supplication	park	Audio	n/a
380.899	16.646	narrative_presentation	n/a	n/a	Involuntary-crimes-of-love	hospital	Audio	task-narratives/Narrative7Situation7.mp3
397.545	3.251	rating_feeling	989	520	Involuntary-crimes-of-love	hospital	Audio	n/a
398.195	2.601	feeling_mouse_trajectory	989	520	Involuntary-crimes-of-love	hospital	Audio	n/a
401.57	2.551	rating_expectation	751	484	Involuntary-crimes-of-love	hospital	Audio	n/a
402.187	1.934	expectation_mouse_trajectory	751	484	Involuntary-crimes-of-love	hospital	Audio	n/a
407.625	8.782	narrative_presentation	n/a	n/a	An-enemy-loved	hospital	Audio	task-narratives/Narrative7Situation8.mp3
416.407	3.671	rating_feeling	839	426	An-enemy-loved	hospital	Audio	n/a
417.124	2.954	feeling_mouse_trajectory	839	426	An-enemy-loved	hospital	Audio	n/a
420.43	2.469	rating_expectation	652	393	An-enemy-loved	hospital	Audio	n/a
421.296	1.603	expectation_mouse_trajectory	652	393	An-enemy-loved	hospital	Audio	n/a
426.482	7.978	narrative_presentation	n/a	n/a	Ambition	hospital	Audio	task-narratives/Narrative7Situation9.mp3
434.46	2.718	rating_feeling	1017	426	Ambition	hospital	Audio	n/a
435.144	2.035	feeling_mouse_trajectory	1017	426	Ambition	hospital	Audio	n/a
438.484	2.635	rating_expectation	842	358	Ambition	hospital	Audio	n/a
439.151	1.968	expectation_mouse_trajectory	842	358	Ambition	hospital	Audio	n/a
