onset	duration	trial_type	response_x	response_y	situation	context	modality	stim_file
7.827	15.329	narrative_presentation	n/a	n/a	Deliverance	prison	Text	task-narratives/Narrative8Situation1.mp3
23.156	3.483	rating_feeling	901	551	Deliverance	prison	Text	task-narratives/Narrative8Situation1.mp3
24.739	1.9	feeling_mouse_trajectory	901	551	Deliverance	prison	Text	task-narratives/Narrative8Situation1.mp3
27.198	0.334	rating_expectation	960	707	Deliverance	prison	Text	task-narratives/Narrative8Situation1.mp3
27.581	-0.05	expectation_mouse_trajectory	960	707	Deliverance	prison	Text	task-narratives/Narrative8Situation1.mp3
34.387	8.776	narrative_presentation	n/a	n/a	Abduction	town	Text	task-narratives/Narrative8Situation2.mp3
43.163	1.384	rating_feeling	901	551	Abduction	town	Text	task-narratives/Narrative8Situation2.mp3
43.596	0.951	feeling_mouse_trajectory	901	551	Abduction	town	Text	task-narratives/Narrative8Situation2.mp3
47.189	3.125	rating_expectation	960	707	Abduction	town	Text	task-narratives/Narrative8Situation2.mp3
47.939	2.375	expectation_mouse_trajectory	960	707	Abduction	town	Text	task-narratives/Narrative8Situation2.mp3
55.261	22.148	narrative_presentation	n/a	n/a	Pursuit	prison	Text	task-narratives/Narrative8Situation3.mp3
77.409	2.018	rating_feeling	901	551	Pursuit	prison	Text	task-narratives/Narrative8Situation3.mp3
77.726	1.701	feeling_mouse_trajectory	901	551	Pursuit	prison	Text	task-narratives/Narrative8Situation3.mp3
81.436	1.835	rating_expectation	960	707	Pursuit	prison	Text	task-narratives/Narrative8Situation3.mp3
81.852	1.418	expectation_mouse_trajectory	960	707	Pursuit	prison	Text	task-narratives/Narrative8Situation3.mp3
88.507	12.611	narrative_presentation	n/a	n/a	Obtaining	city	Text	task-narratives/Narrative8Situation4.mp3
101.117	3.039	rating_feeling	901	551	Obtaining	city	Text	task-narratives/Narrative8Situation4.mp3
102.167	1.989	feeling_mouse_trajectory	901	551	Obtaining	city	Text	task-narratives/Narrative8Situation4.mp3
105.147	2.97	rating_expectation	960	707	Obtaining	city	Text	task-narratives/Narrative8Situation4.mp3
105.88	2.237	expectation_mouse_trajectory	960	707	Obtaining	city	Text	task-narratives/Narrative8Situation4.mp3
111.236	6.626	narrative_presentation	n/a	n/a	Recovery of a lost one	park	Text	task-narratives/Narrative8Situation5.mp3
117.862	3.752	rating_feeling	901	551	Recovery of a lost one	park	Text	task-narratives/Narrative8Situation5.mp3
118.629	2.985	feeling_mouse_trajectory	901	551	Recovery of a lost one	park	Text	task-narratives/Narrative8Situation5.mp3
121.886	3.285	rating_expectation	960	707	Recovery of a lost one	park	Text	task-narratives/Narrative8Situation5.mp3
123.819	1.352	expectation_mouse_trajectory	960	707	Recovery of a lost one	park	Text	task-narratives/Narrative8Situation5.mp3
127.988	5.972	narrative_presentation	n/a	n/a	Rivalry of kin	city	Text	task-narratives/Narrative8Situation6.mp3
133.96	2.276	rating_feeling	901	551	Rivalry of kin	city	Text	task-narratives/Narrative8Situation6.mp3
134.46	1.776	feeling_mouse_trajectory	901	551	Rivalry of kin	city	Text	task-narratives/Narrative8Situation6.mp3
137.989	2.391	rating_expectation	960	707	Rivalry of kin	city	Text	task-narratives/Narrative8Situation6.mp3
139.189	1.191	expectation_mouse_trajectory	960	707	Rivalry of kin	city	Text	task-narratives/Narrative8Situation6.mp3
145.044	10.779	narrative_presentation	n/a	n/a	Involuntary crimes of love	hospital	Text	task-narratives/Narrative8Situation7.mp3
155.823	1.868	rating_feeling	901	551	Involuntary crimes of love	hospital	Text	task-narratives/Narrative8Situation7.mp3
156.406	1.285	feeling_mouse_trajectory	901	551	Involuntary crimes of love	hospital	Text	task-narratives/Narrative8Situation7.mp3
159.847	2.084	rating_expectation	960	707	Involuntary crimes of love	hospital	Text	task-narratives/Narrative8Situation7.mp3
160.281	1.651	expectation_mouse_trajectory	960	707	Involuntary crimes of love	hospital	Text	task-narratives/Narrative8Situation7.mp3
166.902	11.277	narrative_presentation	n/a	n/a	Rivalry of superior versus inferior	beach	Text	task-narratives/Narrative8Situation8.mp3
178.179	1.776	rating_feeling	901	551	Rivalry of superior versus inferior	beach	Text	task-narratives/Narrative8Situation8.mp3
178.629	1.326	feeling_mouse_trajectory	901	551	Rivalry of superior versus inferior	beach	Text	task-narratives/Narrative8Situation8.mp3
182.206	2.075	rating_expectation	960	707	Rivalry of superior versus inferior	beach	Text	task-narratives/Narrative8Situation8.mp3
182.706	1.575	expectation_mouse_trajectory	960	707	Rivalry of superior versus inferior	beach	Text	task-narratives/Narrative8Situation8.mp3
189.261	10.111	narrative_presentation	n/a	n/a	Ambition	hospital	Text	task-narratives/Narrative8Situation9.mp3
199.372	2.933	rating_feeling	901	551	Ambition	hospital	Text	task-narratives/Narrative8Situation9.mp3
200.022	2.283	feeling_mouse_trajectory	901	551	Ambition	hospital	Text	task-narratives/Narrative8Situation9.mp3
203.396	0.05	rating_expectation	960	707	Ambition	hospital	Text	task-narratives/Narrative8Situation9.mp3
203.496	-0.05	expectation_mouse_trajectory	960	707	Ambition	hospital	Text	task-narratives/Narrative8Situation9.mp3
209.468	54.288	narrative_presentation	n/a	n/a	Deliverance	prison	Text	task-narratives/Narrative7Situation1.mp3
263.755	3.968	rating_feeling	901	551	Deliverance	prison	Text	task-narratives/Narrative7Situation1.mp3
264.389	3.335	feeling_mouse_trajectory	901	551	Deliverance	prison	Text	task-narratives/Narrative7Situation1.mp3
267.787	0.026	rating_expectation	960	707	Deliverance	prison	Text	task-narratives/Narrative7Situation1.mp3
267.987	-0.174	expectation_mouse_trajectory	960	707	Deliverance	prison	Text	task-narratives/Narrative7Situation1.mp3
274.859	5.947	narrative_presentation	n/a	n/a	Abduction	town	Text	task-narratives/Narrative7Situation2.mp3
280.806	1.955	rating_feeling	901	551	Abduction	town	Text	task-narratives/Narrative7Situation2.mp3
281.589	1.171	feeling_mouse_trajectory	901	551	Abduction	town	Text	task-narratives/Narrative7Situation2.mp3
284.83	1.17	rating_expectation	960	707	Abduction	town	Text	task-narratives/Narrative7Situation2.mp3
285.196	0.803	expectation_mouse_trajectory	960	707	Abduction	town	Text	task-narratives/Narrative7Situation2.mp3
296.884	7.442	narrative_presentation	n/a	n/a	Pursuit	prison	Text	task-narratives/Narrative7Situation3.mp3
304.327	2.251	rating_feeling	901	551	Pursuit	prison	Text	task-narratives/Narrative7Situation3.mp3
305.243	1.335	feeling_mouse_trajectory	901	551	Pursuit	prison	Text	task-narratives/Narrative7Situation3.mp3
308.352	1.734	rating_expectation	960	707	Pursuit	prison	Text	task-narratives/Narrative7Situation3.mp3
308.986	1.101	expectation_mouse_trajectory	960	707	Pursuit	prison	Text	task-narratives/Narrative7Situation3.mp3
315.408	11.482	narrative_presentation	n/a	n/a	Obtaining	city	Text	task-narratives/Narrative7Situation4.mp3
326.89	2.138	rating_feeling	901	551	Obtaining	city	Text	task-narratives/Narrative7Situation4.mp3
327.506	1.521	feeling_mouse_trajectory	901	551	Obtaining	city	Text	task-narratives/Narrative7Situation4.mp3
330.913	2.836	rating_expectation	960	707	Obtaining	city	Text	task-narratives/Narrative7Situation4.mp3
331.446	2.303	expectation_mouse_trajectory	960	707	Obtaining	city	Text	task-narratives/Narrative7Situation4.mp3
339.966	7.976	narrative_presentation	n/a	n/a	Recovery of a lost one	park	Text	task-narratives/Narrative7Situation5.mp3
347.943	2.534	rating_feeling	901	551	Recovery of a lost one	park	Text	task-narratives/Narrative7Situation5.mp3
348.61	1.868	feeling_mouse_trajectory	901	551	Recovery of a lost one	park	Text	task-narratives/Narrative7Situation5.mp3
351.969	1.901	rating_expectation	960	707	Recovery of a lost one	park	Text	task-narratives/Narrative7Situation5.mp3
352.435	1.434	expectation_mouse_trajectory	960	707	Recovery of a lost one	park	Text	task-narratives/Narrative7Situation5.mp3
359.025	8.785	narrative_presentation	n/a	n/a	Rivalry of kin	city	Text	task-narratives/Narrative7Situation6.mp3
367.81	3.239	rating_feeling	901	551	Rivalry of kin	city	Text	task-narratives/Narrative7Situation6.mp3
368.476	2.572	feeling_mouse_trajectory	901	551	Rivalry of kin	city	Text	task-narratives/Narrative7Situation6.mp3
371.847	2.704	rating_expectation	960	707	Rivalry of kin	city	Text	task-narratives/Narrative7Situation6.mp3
372.33	2.221	expectation_mouse_trajectory	960	707	Rivalry of kin	city	Text	task-narratives/Narrative7Situation6.mp3
380.899	16.646	narrative_presentation	n/a	n/a	Involuntary crimes of love	hospital	Text	task-narratives/Narrative7Situation7.mp3
397.545	3.251	rating_feeling	901	551	Involuntary crimes of love	hospital	Text	task-narratives/Narrative7Situation7.mp3
398.195	2.601	feeling_mouse_trajectory	901	551	Involuntary crimes of love	hospital	Text	task-narratives/Narrative7Situation7.mp3
401.57	2.551	rating_expectation	960	707	Involuntary crimes of love	hospital	Text	task-narratives/Narrative7Situation7.mp3
402.187	1.934	expectation_mouse_trajectory	960	707	Involuntary crimes of love	hospital	Text	task-narratives/Narrative7Situation7.mp3
407.625	8.782	narrative_presentation	n/a	n/a	Rivalry of superior versus inferior	beach	Text	task-narratives/Narrative7Situation8.mp3
416.407	3.671	rating_feeling	901	551	Rivalry of superior versus inferior	beach	Text	task-narratives/Narrative7Situation8.mp3
417.124	2.954	feeling_mouse_trajectory	901	551	Rivalry of superior versus inferior	beach	Text	task-narratives/Narrative7Situation8.mp3
420.43	2.469	rating_expectation	960	707	Rivalry of superior versus inferior	beach	Text	task-narratives/Narrative7Situation8.mp3
421.296	1.603	expectation_mouse_trajectory	960	707	Rivalry of superior versus inferior	beach	Text	task-narratives/Narrative7Situation8.mp3
426.482	7.978	narrative_presentation	n/a	n/a	Ambition	hospital	Text	task-narratives/Narrative7Situation9.mp3
434.46	2.718	rating_feeling	901	551	Ambition	hospital	Text	task-narratives/Narrative7Situation9.mp3
435.144	2.035	feeling_mouse_trajectory	901	551	Ambition	hospital	Text	task-narratives/Narrative7Situation9.mp3
438.484	2.635	rating_expectation	960	707	Ambition	hospital	Text	task-narratives/Narrative7Situation9.mp3
439.151	1.968	expectation_mouse_trajectory	960	707	Ambition	hospital	Text	task-narratives/Narrative7Situation9.mp3
