onset	duration	run_type	trial_type	trial_index	cue	stimulusintensity	rating_value	rating_glmslabel	rating_value_fillna	rating_glmslabel_fillna	rating_mouseonset	rating_mousedur	stim_file_TODO	pain_onset_ttl1	pain_onset_ttl2	pain_onset_ttl3	pain_onset_ttl4	pain_stimulus_delivery_success	cognitive_correct_response	cognitive_participant_response	cognitive_response_accuracy
5.69	0.99	vicarious	cue	1	low_cue	n/a	n/a	n/a	n/a	n/a	n/a	n/a	task-social/cue/runtype-vicarious/scl/l015.png	n/a	n/a	n/a	n/a	n/a	n/a	n/a	n/a
9.01	2.94	vicarious	expectrating	1	low_cue	n/a	44.35	Strong	44.35	Strong	0.65	2.29	task-social/cue/runtype-vicarious/scl/l015.png	n/a	n/a	n/a	n/a	n/a	n/a	n/a	n/a
19.39	5.0	vicarious	stimulus	1	low_cue	med_stim	n/a	n/a	n/a	n/a	n/a	n/a	task-social/stim/runtype-vicarious/aa048t2afunaff_M.mp4	n/a	n/a	n/a	n/a	n/a	n/a	n/a	n/a
28.11	1.92	vicarious	outcomerating	1	low_cue	med_stim	2.3	Barely detectable	2.3	Barely detectable	0.65	2.29	task-social/outcomerating/task-vicarious_scale.png	n/a	n/a	n/a	n/a	n/a	n/a	n/a	n/a
35.0	0.98	vicarious	cue	2	high_cue	n/a	n/a	n/a	n/a	n/a	n/a	n/a	task-social/cue/runtype-vicarious/sch/h026.png	n/a	n/a	n/a	n/a	n/a	n/a	n/a	n/a
37.7	1.82	vicarious	expectrating	2	high_cue	n/a	50.19	Strong	50.19	Strong	0.5	1.32	task-social/cue/runtype-vicarious/sch/h026.png	n/a	n/a	n/a	n/a	n/a	n/a	n/a	n/a
44.69	5.0	vicarious	stimulus	2	high_cue	low_stim	n/a	n/a	n/a	n/a	n/a	n/a	task-social/stim/runtype-vicarious/mg066t2aeunaff_L.mp4	n/a	n/a	n/a	n/a	n/a	n/a	n/a	n/a
58.21	2.32	vicarious	outcomerating	2	high_cue	low_stim	14.37	Moderate	14.37	Moderate	0.5	1.32	task-social/outcomerating/task-vicarious_scale.png	n/a	n/a	n/a	n/a	n/a	n/a	n/a	n/a
62.69	0.99	vicarious	cue	3	low_cue	n/a	n/a	n/a	n/a	n/a	n/a	n/a	task-social/cue/runtype-vicarious/scl/l026.png	n/a	n/a	n/a	n/a	n/a	n/a	n/a	n/a
65.9	1.97	vicarious	expectrating	3	low_cue	n/a	58.76	Strong	58.76	Strong	0.33	1.64	task-social/cue/runtype-vicarious/scl/l026.png	n/a	n/a	n/a	n/a	n/a	n/a	n/a	n/a
78.39	5.0	vicarious	stimulus	3	low_cue	high_stim	n/a	n/a	n/a	n/a	n/a	n/a	task-social/stim/runtype-vicarious/ib109t1aiaff_H.mp4	n/a	n/a	n/a	n/a	n/a	n/a	n/a	n/a
91.6	3.16	vicarious	outcomerating	3	low_cue	high_stim	7.13	Weak	7.13	Weak	0.33	1.64	task-social/outcomerating/task-vicarious_scale.png	n/a	n/a	n/a	n/a	n/a	n/a	n/a	n/a
96.09	0.99	vicarious	cue	4	high_cue	n/a	n/a	n/a	n/a	n/a	n/a	n/a	task-social/cue/runtype-vicarious/sch/h025.png	n/a	n/a	n/a	n/a	n/a	n/a	n/a	n/a
98.41	2.12	vicarious	expectrating	4	high_cue	n/a	57.58	Strong	57.58	Strong	0.45	1.67	task-social/cue/runtype-vicarious/sch/h025.png	n/a	n/a	n/a	n/a	n/a	n/a	n/a	n/a
106.59	5.0	vicarious	stimulus	4	high_cue	med_stim	n/a	n/a	n/a	n/a	n/a	n/a	task-social/stim/runtype-vicarious/jk103t2aaunaff_M.mp4	n/a	n/a	n/a	n/a	n/a	n/a	n/a	n/a
114.81	2.09	vicarious	outcomerating	4	high_cue	med_stim	12.23	Moderate	12.23	Moderate	0.45	1.67	task-social/outcomerating/task-vicarious_scale.png	n/a	n/a	n/a	n/a	n/a	n/a	n/a	n/a
131.6	0.98	vicarious	cue	5	low_cue	n/a	n/a	n/a	n/a	n/a	n/a	n/a	task-social/cue/runtype-vicarious/scl/l043.png	n/a	n/a	n/a	n/a	n/a	n/a	n/a	n/a
134.3	2.5	vicarious	expectrating	5	low_cue	n/a	28.21	Moderate	28.21	Moderate	0.32	2.19	task-social/cue/runtype-vicarious/scl/l043.png	n/a	n/a	n/a	n/a	n/a	n/a	n/a	n/a
142.99	5.0	vicarious	stimulus	5	low_cue	med_stim	n/a	n/a	n/a	n/a	n/a	n/a	task-social/stim/runtype-vicarious/mg066t2aaunaff_M.mp4	n/a	n/a	n/a	n/a	n/a	n/a	n/a	n/a
156.21	1.57	vicarious	outcomerating	5	low_cue	med_stim	6.03	Weak	6.03	Weak	0.32	2.19	task-social/outcomerating/task-vicarious_scale.png	n/a	n/a	n/a	n/a	n/a	n/a	n/a	n/a
163.4	0.98	vicarious	cue	6	low_cue	n/a	n/a	n/a	n/a	n/a	n/a	n/a	task-social/cue/runtype-vicarious/scl/l017.png	n/a	n/a	n/a	n/a	n/a	n/a	n/a	n/a
165.7	2.7	vicarious	expectrating	6	low_cue	n/a	26.67	Moderate	26.67	Moderate	1.13	1.57	task-social/cue/runtype-vicarious/scl/l017.png	n/a	n/a	n/a	n/a	n/a	n/a	n/a	n/a
180.78	5.0	vicarious	stimulus	6	low_cue	high_stim	n/a	n/a	n/a	n/a	n/a	n/a	task-social/stim/runtype-vicarious/aa048t2aeaff_H.mp4	n/a	n/a	n/a	n/a	n/a	n/a	n/a	n/a
188.61	2.27	vicarious	outcomerating	6	low_cue	high_stim	8.75	Weak	8.75	Weak	1.13	1.57	task-social/outcomerating/task-vicarious_scale.png	n/a	n/a	n/a	n/a	n/a	n/a	n/a	n/a
193.39	0.99	vicarious	cue	7	high_cue	n/a	n/a	n/a	n/a	n/a	n/a	n/a	task-social/cue/runtype-vicarious/sch/h003.png	n/a	n/a	n/a	n/a	n/a	n/a	n/a	n/a
194.99	1.87	vicarious	expectrating	7	high_cue	n/a	26.46	Moderate	26.46	Moderate	0.48	1.39	task-social/cue/runtype-vicarious/sch/h003.png	n/a	n/a	n/a	n/a	n/a	n/a	n/a	n/a
203.18	5.0	vicarious	stimulus	7	high_cue	high_stim	n/a	n/a	n/a	n/a	n/a	n/a	task-social/stim/runtype-vicarious/jl047t1aiaff_H.mp4	n/a	n/a	n/a	n/a	n/a	n/a	n/a	n/a
227.91	3.29	vicarious	outcomerating	7	high_cue	high_stim	24.17	Moderate	24.17	Moderate	0.48	1.39	task-social/outcomerating/task-vicarious_scale.png	n/a	n/a	n/a	n/a	n/a	n/a	n/a	n/a
234.39	0.99	vicarious	cue	8	low_cue	n/a	n/a	n/a	n/a	n/a	n/a	n/a	task-social/cue/runtype-vicarious/scl/l002.png	n/a	n/a	n/a	n/a	n/a	n/a	n/a	n/a
235.99	1.19	vicarious	expectrating	8	low_cue	n/a	26.46	Moderate	26.46	Moderate	0.5	0.69	task-social/cue/runtype-vicarious/scl/l002.png	n/a	n/a	n/a	n/a	n/a	n/a	n/a	n/a
243.89	5.0	vicarious	stimulus	8	low_cue	low_stim	n/a	n/a	n/a	n/a	n/a	n/a	task-social/stim/runtype-vicarious/jk103t1aaunaff_L.mp4	n/a	n/a	n/a	n/a	n/a	n/a	n/a	n/a
252.91	2.48	vicarious	outcomerating	8	low_cue	low_stim	4.59	Weak	4.59	Weak	0.5	0.69	task-social/outcomerating/task-vicarious_scale.png	n/a	n/a	n/a	n/a	n/a	n/a	n/a	n/a
259.1	0.98	vicarious	cue	9	low_cue	n/a	n/a	n/a	n/a	n/a	n/a	n/a	task-social/cue/runtype-vicarious/scl/l053.png	n/a	n/a	n/a	n/a	n/a	n/a	n/a	n/a
261.0	1.93	vicarious	expectrating	9	low_cue	n/a	26.87	Moderate	26.87	Moderate	0.7	1.23	task-social/cue/runtype-vicarious/scl/l053.png	n/a	n/a	n/a	n/a	n/a	n/a	n/a	n/a
276.09	5.0	vicarious	stimulus	9	low_cue	low_stim	n/a	n/a	n/a	n/a	n/a	n/a	task-social/stim/runtype-vicarious/ib109t1aiunaff_L.mp4	n/a	n/a	n/a	n/a	n/a	n/a	n/a	n/a
291.01	3.29	vicarious	outcomerating	9	low_cue	low_stim	3.69	Weak	3.69	Weak	0.7	1.23	task-social/outcomerating/task-vicarious_scale.png	n/a	n/a	n/a	n/a	n/a	n/a	n/a	n/a
307.8	0.98	vicarious	cue	10	high_cue	n/a	n/a	n/a	n/a	n/a	n/a	n/a	task-social/cue/runtype-vicarious/sch/h014.png	n/a	n/a	n/a	n/a	n/a	n/a	n/a	n/a
311.0	2.92	vicarious	expectrating	10	high_cue	n/a	28.11	Moderate	28.11	Moderate	0.62	2.3	task-social/cue/runtype-vicarious/sch/h014.png	n/a	n/a	n/a	n/a	n/a	n/a	n/a	n/a
318.89	5.0	vicarious	stimulus	10	high_cue	low_stim	n/a	n/a	n/a	n/a	n/a	n/a	task-social/stim/runtype-vicarious/jl047t1aaunaff_L.mp4	n/a	n/a	n/a	n/a	n/a	n/a	n/a	n/a
327.61	2.12	vicarious	outcomerating	10	high_cue	low_stim	1.84	Barely detectable	1.84	Barely detectable	0.62	2.3	task-social/outcomerating/task-vicarious_scale.png	n/a	n/a	n/a	n/a	n/a	n/a	n/a	n/a
340.7	0.98	vicarious	cue	11	high_cue	n/a	n/a	n/a	n/a	n/a	n/a	n/a	task-social/cue/runtype-vicarious/sch/h055.png	n/a	n/a	n/a	n/a	n/a	n/a	n/a	n/a
342.6	n/a	vicarious	expectrating	11	high_cue	n/a	n/a	n/a	16.65	Moderate	3.43	3.88	task-social/cue/runtype-vicarious/sch/h055.png	n/a	n/a	n/a	n/a	n/a	n/a	n/a	n/a
355.29	5.0	vicarious	stimulus	11	high_cue	med_stim	n/a	n/a	n/a	n/a	n/a	n/a	task-social/stim/runtype-vicarious/jy115t1aeaff_M.mp4	n/a	n/a	n/a	n/a	n/a	n/a	n/a	n/a
363.81	2.28	vicarious	outcomerating	11	high_cue	med_stim	32.35	Strong	32.35	Strong	3.43	3.88	task-social/outcomerating/task-vicarious_scale.png	n/a	n/a	n/a	n/a	n/a	n/a	n/a	n/a
371.49	0.99	vicarious	cue	12	high_cue	n/a	n/a	n/a	n/a	n/a	n/a	n/a	task-social/cue/runtype-vicarious/sch/h038.png	n/a	n/a	n/a	n/a	n/a	n/a	n/a	n/a
374.79	2.87	vicarious	expectrating	12	high_cue	n/a	39.31	Strong	39.31	Strong	0.27	2.6	task-social/cue/runtype-vicarious/sch/h038.png	n/a	n/a	n/a	n/a	n/a	n/a	n/a	n/a
387.29	5.0	vicarious	stimulus	12	high_cue	high_stim	n/a	n/a	n/a	n/a	n/a	n/a	task-social/stim/runtype-vicarious/tv095t1afaff_H.mp4	n/a	n/a	n/a	n/a	n/a	n/a	n/a	n/a
395.1	1.92	vicarious	outcomerating	12	high_cue	high_stim	38.16	Strong	38.16	Strong	0.27	2.6	task-social/outcomerating/task-vicarious_scale.png	n/a	n/a	n/a	n/a	n/a	n/a	n/a	n/a
