onset	duration	run_type	trial_type	trial_index	cue	stimulusintensity	rating_value	rating_glmslabel	rating_value_fillna	rating_glmslabel_fillna	rating_mouseonset	rating_mousedur	stim_file	pain_onset_ttl1	pain_onset_ttl2	pain_onset_ttl3	pain_onset_ttl4	pain_stimulus_delivery_success	cognitive_correct_response	cognitive_participant_response	cognitive_response_accuracy
14.21	0.98	vicarious	cue	1	low_cue	n/a	n/a	n/a	n/a	n/a	n/a	n/a	task-social/cue/runtype-vicarious/scl/l005.png	n/a	n/a	n/a	n/a	n/a	n/a	n/a	n/a
16.01	2.45	vicarious	expectrating	1	low_cue	n/a	21.63	Moderate	21.63	Moderate	0.87	1.59	task-social/cue/runtype-vicarious/scl/l005.png	n/a	n/a	n/a	n/a	n/a	n/a	n/a	n/a
22.59	5.0	vicarious	stimulus	1	low_cue	low_stim	n/a	n/a	n/a	n/a	n/a	n/a	task-social/stim/runtype-vicarious/dr052t1aeunaff_L.mp4	n/a	n/a	n/a	n/a	n/a	n/a	n/a	n/a
35.32	2.3	vicarious	outcomerating	1	low_cue	low_stim	13.98	Moderate	13.98	Moderate	0.87	1.59	task-social/outcomerating/task-vicarious_scale.png	n/a	n/a	n/a	n/a	n/a	n/a	n/a	n/a
40.6	0.99	vicarious	cue	2	low_cue	n/a	n/a	n/a	n/a	n/a	n/a	n/a	task-social/cue/runtype-vicarious/scl/l026.png	n/a	n/a	n/a	n/a	n/a	n/a	n/a	n/a
43.6	1.73	vicarious	expectrating	2	low_cue	n/a	0.93	No sensation	0.93	No sensation	0.63	1.09	task-social/cue/runtype-vicarious/scl/l026.png	n/a	n/a	n/a	n/a	n/a	n/a	n/a	n/a
50.19	5.0	vicarious	stimulus	2	low_cue	med_stim	n/a	n/a	n/a	n/a	n/a	n/a	task-social/stim/runtype-vicarious/bg096t2aaaff_M.mp4	n/a	n/a	n/a	n/a	n/a	n/a	n/a	n/a
63.71	2.87	vicarious	outcomerating	2	low_cue	med_stim	70.04	Very Strong	70.04	Very Strong	0.63	1.09	task-social/outcomerating/task-vicarious_scale.png	n/a	n/a	n/a	n/a	n/a	n/a	n/a	n/a
72.2	0.99	vicarious	cue	3	high_cue	n/a	n/a	n/a	n/a	n/a	n/a	n/a	task-social/cue/runtype-vicarious/sch/h052.png	n/a	n/a	n/a	n/a	n/a	n/a	n/a	n/a
75.2	3.22	vicarious	expectrating	3	high_cue	n/a	63.43	Strong	63.43	Strong	1.3	1.92	task-social/cue/runtype-vicarious/sch/h052.png	n/a	n/a	n/a	n/a	n/a	n/a	n/a	n/a
86.09	5.0	vicarious	stimulus	3	high_cue	med_stim	n/a	n/a	n/a	n/a	n/a	n/a	task-social/stim/runtype-vicarious/aa048t2afunaff_M.mp4	n/a	n/a	n/a	n/a	n/a	n/a	n/a	n/a
95.9	1.49	vicarious	outcomerating	3	high_cue	med_stim	2.09	Barely detectable	2.09	Barely detectable	1.3	1.92	task-social/outcomerating/task-vicarious_scale.png	n/a	n/a	n/a	n/a	n/a	n/a	n/a	n/a
108.99	1.0	vicarious	cue	4	low_cue	n/a	n/a	n/a	n/a	n/a	n/a	n/a	task-social/cue/runtype-vicarious/scl/l037.png	n/a	n/a	n/a	n/a	n/a	n/a	n/a	n/a
110.91	1.12	vicarious	expectrating	4	low_cue	n/a	0.7	No sensation	0.7	No sensation	0.48	0.63	task-social/cue/runtype-vicarious/scl/l037.png	n/a	n/a	n/a	n/a	n/a	n/a	n/a	n/a
120.29	5.0	vicarious	stimulus	4	low_cue	high_stim	n/a	n/a	n/a	n/a	n/a	n/a	task-social/stim/runtype-vicarious/aa048t2aeaff_H.mp4	n/a	n/a	n/a	n/a	n/a	n/a	n/a	n/a
130.52	2.35	vicarious	outcomerating	4	low_cue	high_stim	28.11	Moderate	28.11	Moderate	0.48	0.63	task-social/outcomerating/task-vicarious_scale.png	n/a	n/a	n/a	n/a	n/a	n/a	n/a	n/a
145.11	0.98	vicarious	cue	5	high_cue	n/a	n/a	n/a	n/a	n/a	n/a	n/a	task-social/cue/runtype-vicarious/sch/h013.png	n/a	n/a	n/a	n/a	n/a	n/a	n/a	n/a
146.81	2.72	vicarious	expectrating	5	high_cue	n/a	57.48	Strong	57.48	Strong	1.75	0.97	task-social/cue/runtype-vicarious/sch/h013.png	n/a	n/a	n/a	n/a	n/a	n/a	n/a	n/a
155.29	5.0	vicarious	stimulus	5	high_cue	med_stim	n/a	n/a	n/a	n/a	n/a	n/a	task-social/stim/runtype-vicarious/dr052t2aaaff_M.mp4	n/a	n/a	n/a	n/a	n/a	n/a	n/a	n/a
166.51	1.7	vicarious	outcomerating	5	high_cue	med_stim	9.85	Weak	9.85	Weak	1.75	0.97	task-social/outcomerating/task-vicarious_scale.png	n/a	n/a	n/a	n/a	n/a	n/a	n/a	n/a
171.4	0.99	vicarious	cue	6	low_cue	n/a	n/a	n/a	n/a	n/a	n/a	n/a	task-social/cue/runtype-vicarious/scl/l053.png	n/a	n/a	n/a	n/a	n/a	n/a	n/a	n/a
174.5	1.46	vicarious	expectrating	6	low_cue	n/a	6.08	Weak	6.08	Weak	0.7	0.76	task-social/cue/runtype-vicarious/scl/l053.png	n/a	n/a	n/a	n/a	n/a	n/a	n/a	n/a
182.69	5.0	vicarious	stimulus	6	low_cue	high_stim	n/a	n/a	n/a	n/a	n/a	n/a	task-social/stim/runtype-vicarious/dr052t1aiaff_H.mp4	n/a	n/a	n/a	n/a	n/a	n/a	n/a	n/a
194.51	2.94	vicarious	outcomerating	6	low_cue	high_stim	43.37	Strong	43.37	Strong	0.7	0.76	task-social/outcomerating/task-vicarious_scale.png	n/a	n/a	n/a	n/a	n/a	n/a	n/a	n/a
199.79	1.0	vicarious	cue	7	low_cue	n/a	n/a	n/a	n/a	n/a	n/a	n/a	task-social/cue/runtype-vicarious/scl/l047.png	n/a	n/a	n/a	n/a	n/a	n/a	n/a	n/a
202.81	3.4	vicarious	expectrating	7	low_cue	n/a	30.69	Strong	30.69	Strong	1.23	2.17	task-social/cue/runtype-vicarious/scl/l047.png	n/a	n/a	n/a	n/a	n/a	n/a	n/a	n/a
218.19	5.0	vicarious	stimulus	7	low_cue	low_stim	n/a	n/a	n/a	n/a	n/a	n/a	task-social/stim/runtype-vicarious/jl047t1aaunaff_L.mp4	n/a	n/a	n/a	n/a	n/a	n/a	n/a	n/a
231.1	1.59	vicarious	outcomerating	7	low_cue	low_stim	9.77	Weak	9.77	Weak	1.23	2.17	task-social/outcomerating/task-vicarious_scale.png	n/a	n/a	n/a	n/a	n/a	n/a	n/a	n/a
236.81	0.98	vicarious	cue	8	high_cue	n/a	n/a	n/a	n/a	n/a	n/a	n/a	task-social/cue/runtype-vicarious/sch/h003.png	n/a	n/a	n/a	n/a	n/a	n/a	n/a	n/a
238.51	1.77	vicarious	expectrating	8	high_cue	n/a	46.96	Strong	46.96	Strong	0.58	1.19	task-social/cue/runtype-vicarious/sch/h003.png	n/a	n/a	n/a	n/a	n/a	n/a	n/a	n/a
245.29	5.0	vicarious	stimulus	8	high_cue	high_stim	n/a	n/a	n/a	n/a	n/a	n/a	task-social/stim/runtype-vicarious/nm106t1afaff_H.mp4	n/a	n/a	n/a	n/a	n/a	n/a	n/a	n/a
255.51	2.43	vicarious	outcomerating	8	high_cue	high_stim	52.49	Strong	52.49	Strong	0.58	1.19	task-social/outcomerating/task-vicarious_scale.png	n/a	n/a	n/a	n/a	n/a	n/a	n/a	n/a
264.2	0.99	vicarious	cue	9	high_cue	n/a	n/a	n/a	n/a	n/a	n/a	n/a	task-social/cue/runtype-vicarious/sch/h029.png	n/a	n/a	n/a	n/a	n/a	n/a	n/a	n/a
267.2	3.03	vicarious	expectrating	9	high_cue	n/a	89.77	Very Strong	89.77	Very Strong	1.25	1.78	task-social/cue/runtype-vicarious/sch/h029.png	n/a	n/a	n/a	n/a	n/a	n/a	n/a	n/a
279.49	5.0	vicarious	stimulus	9	high_cue	high_stim	n/a	n/a	n/a	n/a	n/a	n/a	task-social/stim/runtype-vicarious/bg096t1aeaff_H.mp4	n/a	n/a	n/a	n/a	n/a	n/a	n/a	n/a
290.51	2.9	vicarious	outcomerating	9	high_cue	high_stim	79.59	Very Strong	79.59	Very Strong	1.25	1.78	task-social/outcomerating/task-vicarious_scale.png	n/a	n/a	n/a	n/a	n/a	n/a	n/a	n/a
298.4	0.99	vicarious	cue	10	high_cue	n/a	n/a	n/a	n/a	n/a	n/a	n/a	task-social/cue/runtype-vicarious/sch/h037.png	n/a	n/a	n/a	n/a	n/a	n/a	n/a	n/a
301.2	2.67	vicarious	expectrating	10	high_cue	n/a	28.72	Moderate	28.72	Moderate	0.98	1.68	task-social/cue/runtype-vicarious/sch/h037.png	n/a	n/a	n/a	n/a	n/a	n/a	n/a	n/a
321.89	5.0	vicarious	stimulus	10	high_cue	low_stim	n/a	n/a	n/a	n/a	n/a	n/a	task-social/stim/runtype-vicarious/ll042t1aaunaff_L.mp4	n/a	n/a	n/a	n/a	n/a	n/a	n/a	n/a
331.11	2.59	vicarious	outcomerating	10	high_cue	low_stim	18.58	Moderate	18.58	Moderate	0.98	1.68	task-social/outcomerating/task-vicarious_scale.png	n/a	n/a	n/a	n/a	n/a	n/a	n/a	n/a
335.99	0.99	vicarious	cue	11	high_cue	n/a	n/a	n/a	n/a	n/a	n/a	n/a	task-social/cue/runtype-vicarious/sch/h007.png	n/a	n/a	n/a	n/a	n/a	n/a	n/a	n/a
338.91	2.9	vicarious	expectrating	11	high_cue	n/a	25.8	Moderate	25.8	Moderate	0.57	2.33	task-social/cue/runtype-vicarious/sch/h007.png	n/a	n/a	n/a	n/a	n/a	n/a	n/a	n/a
345.69	5.0	vicarious	stimulus	11	high_cue	low_stim	n/a	n/a	n/a	n/a	n/a	n/a	task-social/stim/runtype-vicarious/aa048t2aaunaff_L.mp4	n/a	n/a	n/a	n/a	n/a	n/a	n/a	n/a
359.4	2.06	vicarious	outcomerating	11	high_cue	low_stim	3.91	Weak	3.91	Weak	0.57	2.33	task-social/outcomerating/task-vicarious_scale.png	n/a	n/a	n/a	n/a	n/a	n/a	n/a	n/a
367.01	0.98	vicarious	cue	12	low_cue	n/a	n/a	n/a	n/a	n/a	n/a	n/a	task-social/cue/runtype-vicarious/scl/l002.png	n/a	n/a	n/a	n/a	n/a	n/a	n/a	n/a
368.91	n/a	vicarious	expectrating	12	low_cue	n/a	n/a	n/a	0.0	n/a	1.57	3.83	task-social/cue/runtype-vicarious/scl/l002.png	n/a	n/a	n/a	n/a	n/a	n/a	n/a	n/a
382.49	5.0	vicarious	stimulus	12	low_cue	med_stim	n/a	n/a	n/a	n/a	n/a	n/a	task-social/stim/runtype-vicarious/ll042t1afunaff_M.mp4	n/a	n/a	n/a	n/a	n/a	n/a	n/a	n/a
394.52	1.97	vicarious	outcomerating	12	low_cue	med_stim	9.54	Weak	9.54	Weak	1.57	3.83	task-social/outcomerating/task-vicarious_scale.png	n/a	n/a	n/a	n/a	n/a	n/a	n/a	n/a
