onset	duration	trial_type	response_x	response_y	situation	context	modality	stim_file
4.812	25.981	narrative_presentation	n/a	n/a	Recovery of a lost one	town	Audio	task-narratives/Narrative6Situation1.mp3
30.793	3.333	rating_feeling	846	622	Recovery of a lost one	town	Audio	n/a
31.326	2.8	feeling_mouse_trajectory	846	622	Recovery of a lost one	town	Audio	n/a
34.835	3.2	rating_expectation	747	550	Recovery of a lost one	town	Audio	n/a
35.619	2.417	expectation_mouse_trajectory	747	550	Recovery of a lost one	town	Audio	n/a
41.889	27.969	narrative_presentation	n/a	n/a	The enigma	town	Audio	task-narratives/Narrative6Situation2.mp3
69.858	2.567	rating_feeling	846	622	The enigma	town	Audio	n/a
70.191	2.233	feeling_mouse_trajectory	846	622	The enigma	town	Audio	n/a
73.902	3.1	rating_expectation	747	550	The enigma	town	Audio	n/a
74.452	2.55	expectation_mouse_trajectory	747	550	The enigma	town	Audio	n/a
82.959	11.977	narrative_presentation	n/a	n/a	Revolt	town	Audio	task-narratives/Narrative6Situation3.mp3
94.936	3.567	rating_feeling	846	622	Revolt	town	Audio	n/a
95.919	2.583	feeling_mouse_trajectory	846	622	Revolt	town	Audio	n/a
98.969	3.983	rating_expectation	747	550	Revolt	town	Audio	n/a
99.452	3.5	expectation_mouse_trajectory	747	550	Revolt	town	Audio	n/a
105.038	11.976	narrative_presentation	n/a	n/a	Loss of loved one	swamp	Audio	task-narratives/Narrative6Situation4.mp3
117.014	3.583	rating_feeling	846	622	Loss of loved one	swamp	Audio	n/a
117.364	3.233	feeling_mouse_trajectory	846	622	Loss of loved one	swamp	Audio	n/a
121.041	3.35	rating_expectation	747	550	Loss of loved one	swamp	Audio	n/a
121.074	3.317	expectation_mouse_trajectory	747	550	Loss of loved one	swamp	Audio	n/a
127.096	7.318	narrative_presentation	n/a	n/a	An enemy loved	swamp	Audio	task-narratives/Narrative6Situation5.mp3
134.414	3.1	rating_feeling	846	622	An enemy loved	swamp	Audio	n/a
134.914	2.6	feeling_mouse_trajectory	846	622	An enemy loved	swamp	Audio	n/a
138.456	2.233	rating_expectation	747	550	An enemy loved	swamp	Audio	n/a
139.022	1.667	expectation_mouse_trajectory	747	550	An enemy loved	swamp	Audio	n/a
144.538	10.812	narrative_presentation	n/a	n/a	Daring Enterprise	swamp	Audio	task-narratives/Narrative6Situation6.mp3
155.35	3.117	rating_feeling	846	622	Daring Enterprise	swamp	Audio	n/a
155.75	2.717	feeling_mouse_trajectory	846	622	Daring Enterprise	swamp	Audio	n/a
159.375	2.9	rating_expectation	747	550	Daring Enterprise	swamp	Audio	n/a
160.075	2.2	expectation_mouse_trajectory	747	550	Daring Enterprise	swamp	Audio	n/a
168.432	23.289	narrative_presentation	n/a	n/a	Self-sacrifice for kin	city	Audio	task-narratives/Narrative6Situation7.mp3
191.721	3.867	rating_feeling	846	622	Self-sacrifice for kin	city	Audio	n/a
192.271	3.317	feeling_mouse_trajectory	846	622	Self-sacrifice for kin	city	Audio	n/a
195.744	1.633	rating_expectation	747	550	Self-sacrifice for kin	city	Audio	n/a
196.644	0.733	expectation_mouse_trajectory	747	550	Self-sacrifice for kin	city	Audio	n/a
204.8	5.276	narrative_presentation	n/a	n/a	Falling prey to misfortune	city	Audio	task-narratives/Narrative6Situation8.mp3
210.075	3.617	rating_feeling	846	622	Falling prey to misfortune	city	Audio	n/a
210.558	3.133	feeling_mouse_trajectory	846	622	Falling prey to misfortune	city	Audio	n/a
214.101	3.867	rating_expectation	747	550	Falling prey to misfortune	city	Audio	n/a
215.151	2.817	expectation_mouse_trajectory	747	550	Falling prey to misfortune	city	Audio	n/a
222.158	9.315	narrative_presentation	n/a	n/a	Madness	city	Audio	task-narratives/Narrative6Situation9.mp3
231.473	3.867	rating_feeling	846	622	Madness	city	Audio	n/a
231.906	3.433	feeling_mouse_trajectory	846	622	Madness	city	Audio	n/a
235.498	2.183	rating_expectation	747	550	Madness	city	Audio	n/a
236.582	1.1	expectation_mouse_trajectory	747	550	Madness	city	Audio	n/a
244.568	12.648	narrative_presentation	n/a	n/a	Enmity of kin	prison	Audio	task-narratives/Narrative5Situation1.mp3
257.216	1.533	rating_feeling	846	622	Enmity of kin	prison	Audio	n/a
257.633	1.117	feeling_mouse_trajectory	846	622	Enmity of kin	prison	Audio	n/a
261.24	3.5	rating_expectation	747	550	Enmity of kin	prison	Audio	n/a
261.69	3.05	expectation_mouse_trajectory	747	550	Enmity of kin	prison	Audio	n/a
268.296	28.103	narrative_presentation	n/a	n/a	All sacrificed for passion	prison	Audio	task-narratives/Narrative5Situation2.mp3
296.399	3.917	rating_feeling	846	622	All sacrificed for passion	prison	Audio	n/a
298.182	2.133	feeling_mouse_trajectory	846	622	All sacrificed for passion	prison	Audio	n/a
300.425	2.133	rating_expectation	747	550	All sacrificed for passion	prison	Audio	n/a
301.242	1.317	expectation_mouse_trajectory	747	550	All sacrificed for passion	prison	Audio	n/a
307.482	13.312	narrative_presentation	n/a	n/a	Discovery of dishonour of loved one	prison	Audio	task-narratives/Narrative5Situation3.mp3
320.793	2.6	rating_feeling	846	622	Discovery of dishonour of loved one	prison	Audio	n/a
321.16	2.233	feeling_mouse_trajectory	846	622	Discovery of dishonour of loved one	prison	Audio	n/a
324.824	3.817	rating_expectation	747	550	Discovery of dishonour of loved one	prison	Audio	n/a
325.69	2.95	expectation_mouse_trajectory	747	550	Discovery of dishonour of loved one	prison	Audio	n/a
329.876	20.148	narrative_presentation	n/a	n/a	Crimes of love	park	Audio	task-narratives/Narrative5Situation4.mp3
350.025	3.65	rating_feeling	846	622	Crimes of love	park	Audio	n/a
350.058	3.617	feeling_mouse_trajectory	846	622	Crimes of love	park	Audio	n/a
354.051	3.033	rating_expectation	747	550	Crimes of love	park	Audio	n/a
356.817	0.267	expectation_mouse_trajectory	747	550	Crimes of love	park	Audio	n/a
363.124	14.114	narrative_presentation	n/a	n/a	Necessity of sacrificing loved ones	park	Audio	task-narratives/Narrative5Situation5.mp3
377.238	3.967	rating_feeling	846	622	Necessity of sacrificing loved ones	park	Audio	n/a
377.538	3.667	feeling_mouse_trajectory	846	622	Necessity of sacrificing loved ones	park	Audio	n/a
381.263	3.583	rating_expectation	747	550	Necessity of sacrificing loved ones	park	Audio	n/a
382.38	2.467	expectation_mouse_trajectory	747	550	Necessity of sacrificing loved ones	park	Audio	n/a
388.318	5.514	narrative_presentation	n/a	n/a	Adultery	park	Audio	task-narratives/Narrative5Situation6.mp3
393.832	1.833	rating_feeling	846	622	Adultery	park	Audio	n/a
394.882	0.783	feeling_mouse_trajectory	846	622	Adultery	park	Audio	n/a
397.854	2.9	rating_expectation	747	550	Adultery	park	Audio	n/a
398.404	2.35	expectation_mouse_trajectory	747	550	Adultery	park	Audio	n/a
405.928	20.822	narrative_presentation	n/a	n/a	Revolt	beach	Audio	task-narratives/Narrative5Situation7.mp3
426.749	2.867	rating_feeling	846	622	Revolt	beach	Audio	n/a
427.133	2.483	feeling_mouse_trajectory	846	622	Revolt	beach	Audio	n/a
430.769	3.95	rating_expectation	747	550	Revolt	beach	Audio	n/a
431.219	3.5	expectation_mouse_trajectory	747	550	Revolt	beach	Audio	n/a
437.825	7.29	narrative_presentation	n/a	n/a	An enemy loved	beach	Audio	task-narratives/Narrative5Situation8.mp3
445.116	3.483	rating_feeling	846	622	An enemy loved	beach	Audio	n/a
446.199	2.4	feeling_mouse_trajectory	846	622	An enemy loved	beach	Audio	n/a
449.153	3.867	rating_expectation	747	550	An enemy loved	beach	Audio	n/a
449.203	3.817	expectation_mouse_trajectory	747	550	An enemy loved	beach	Audio	n/a
456.234	37.952	narrative_presentation	n/a	n/a	Mistaken jealousy	beach	Audio	task-narratives/Narrative5Situation9.mp3
494.187	1.867	rating_feeling	846	622	Mistaken jealousy	beach	Audio	n/a
495.12	0.933	feeling_mouse_trajectory	846	622	Mistaken jealousy	beach	Audio	n/a
498.223	3.317	rating_expectation	747	550	Mistaken jealousy	beach	Audio	n/a
498.873	2.667	expectation_mouse_trajectory	747	550	Mistaken jealousy	beach	Audio	n/a
