onset	duration	run_type	trial_type	trial_index	cue	stimulusintensity	rating_value	rating_glmslabel	rating_value_fillna	rating_glmslabel_fillna	rating_mouseonset	rating_mousedur	stim_file_TODO	pain_onset_ttl1	pain_onset_ttl2	pain_onset_ttl3	pain_onset_ttl4	pain_stimulus_delivery_success	cognitive_correct_response	cognitive_participant_response	cognitive_response_accuracy
5.68	0.99	cognitive	cue	1	high_cue	n/a	n/a	n/a	n/a	n/a	n/a	n/a	task-social/cue/runtype-cognitive/sch/h004.png	n/a	n/a	n/a	n/a	n/a	n/a	n/a	n/a
8.3	2.33	cognitive	expectrating	1	high_cue	n/a	31.48	Strong	31.48	Strong	0.57	1.77	task-social/cue/runtype-cognitive/sch/h004.png	n/a	n/a	n/a	n/a	n/a	n/a	n/a	n/a
14.9	5.0	cognitive	stimulus	1	high_cue	high_stim	n/a	n/a	n/a	n/a	n/a	n/a	task-social/stim/runtype-cognitive/44_150_R.jpg	n/a	n/a	n/a	n/a	n/a	diff	diff	True
23.89	2.88	cognitive	outcomerating	1	high_cue	high_stim	14.71	Moderate	14.71	Moderate	0.57	1.77	task-social/outcomerating/task-cognitive_scale.png	n/a	n/a	n/a	n/a	n/a	n/a	n/a	n/a
28.99	0.99	cognitive	cue	2	low_cue	n/a	n/a	n/a	n/a	n/a	n/a	n/a	task-social/cue/runtype-cognitive/scl/l048.png	n/a	n/a	n/a	n/a	n/a	n/a	n/a	n/a
31.99	2.52	cognitive	expectrating	2	low_cue	n/a	12.61	Moderate	12.61	Moderate	0.4	2.12	task-social/cue/runtype-cognitive/scl/l048.png	n/a	n/a	n/a	n/a	n/a	n/a	n/a	n/a
43.89	5.0	cognitive	stimulus	2	low_cue	high_stim	n/a	n/a	n/a	n/a	n/a	n/a	task-social/stim/runtype-cognitive/10_150_R.jpg	n/a	n/a	n/a	n/a	n/a	diff	same	False
55.2	2.95	cognitive	outcomerating	2	low_cue	high_stim	3.71	Weak	3.71	Weak	0.4	2.12	task-social/outcomerating/task-cognitive_scale.png	n/a	n/a	n/a	n/a	n/a	n/a	n/a	n/a
59.78	0.99	cognitive	cue	3	low_cue	n/a	n/a	n/a	n/a	n/a	n/a	n/a	task-social/cue/runtype-cognitive/scl/l019.png	n/a	n/a	n/a	n/a	n/a	n/a	n/a	n/a
62.18	2.05	cognitive	expectrating	3	low_cue	n/a	11.55	Moderate	11.55	Moderate	0.5	1.55	task-social/cue/runtype-cognitive/scl/l019.png	n/a	n/a	n/a	n/a	n/a	n/a	n/a	n/a
69.19	5.0	cognitive	stimulus	3	low_cue	high_stim	n/a	n/a	n/a	n/a	n/a	n/a	task-social/stim/runtype-cognitive/23_150_R.jpg	n/a	n/a	n/a	n/a	n/a	diff	diff	True
81.69	2.09	cognitive	outcomerating	3	low_cue	high_stim	15.15	Moderate	15.15	Moderate	0.5	1.55	task-social/outcomerating/task-cognitive_scale.png	n/a	n/a	n/a	n/a	n/a	n/a	n/a	n/a
94.88	0.99	cognitive	cue	4	high_cue	n/a	n/a	n/a	n/a	n/a	n/a	n/a	task-social/cue/runtype-cognitive/sch/h049.png	n/a	n/a	n/a	n/a	n/a	n/a	n/a	n/a
97.3	3.17	cognitive	expectrating	4	high_cue	n/a	65.09	Very Strong	65.09	Very Strong	0.43	2.73	task-social/cue/runtype-cognitive/sch/h049.png	n/a	n/a	n/a	n/a	n/a	n/a	n/a	n/a
104.48	5.0	cognitive	stimulus	4	high_cue	high_stim	n/a	n/a	n/a	n/a	n/a	n/a	task-social/stim/runtype-cognitive/33_150_R.jpg	n/a	n/a	n/a	n/a	n/a	diff	same	False
115.4	2.61	cognitive	outcomerating	4	high_cue	high_stim	29.14	Strong	29.14	Strong	0.43	2.73	task-social/outcomerating/task-cognitive_scale.png	n/a	n/a	n/a	n/a	n/a	n/a	n/a	n/a
119.99	0.99	cognitive	cue	5	low_cue	n/a	n/a	n/a	n/a	n/a	n/a	n/a	task-social/cue/runtype-cognitive/scl/l010.png	n/a	n/a	n/a	n/a	n/a	n/a	n/a	n/a
122.99	2.14	cognitive	expectrating	5	low_cue	n/a	21.54	Moderate	21.54	Moderate	0.53	1.61	task-social/cue/runtype-cognitive/scl/l010.png	n/a	n/a	n/a	n/a	n/a	n/a	n/a	n/a
140.2	5.0	cognitive	stimulus	5	low_cue	low_stim	n/a	n/a	n/a	n/a	n/a	n/a	task-social/stim/runtype-cognitive/22_50.jpg	n/a	n/a	n/a	n/a	n/a	same	same	True
151.5	2.23	cognitive	outcomerating	5	low_cue	low_stim	8.78	Weak	8.78	Weak	0.53	1.61	task-social/outcomerating/task-cognitive_scale.png	n/a	n/a	n/a	n/a	n/a	n/a	n/a	n/a
162.39	0.99	cognitive	cue	6	high_cue	n/a	n/a	n/a	n/a	n/a	n/a	n/a	task-social/cue/runtype-cognitive/sch/h041.png	n/a	n/a	n/a	n/a	n/a	n/a	n/a	n/a
165.39	2.49	cognitive	expectrating	6	high_cue	n/a	36.97	Strong	36.97	Strong	0.68	1.81	task-social/cue/runtype-cognitive/sch/h041.png	n/a	n/a	n/a	n/a	n/a	n/a	n/a	n/a
191.08	5.0	cognitive	stimulus	6	high_cue	low_stim	n/a	n/a	n/a	n/a	n/a	n/a	task-social/stim/runtype-cognitive/10_50.jpg	n/a	n/a	n/a	n/a	n/a	same	same	True
207.79	2.44	cognitive	outcomerating	6	high_cue	low_stim	13.81	Moderate	13.81	Moderate	0.68	1.81	task-social/outcomerating/task-cognitive_scale.png	n/a	n/a	n/a	n/a	n/a	n/a	n/a	n/a
215.39	0.98	cognitive	cue	7	low_cue	n/a	n/a	n/a	n/a	n/a	n/a	n/a	task-social/cue/runtype-cognitive/scl/l053.png	n/a	n/a	n/a	n/a	n/a	n/a	n/a	n/a
217.59	2.85	cognitive	expectrating	7	low_cue	n/a	14.48	Moderate	14.48	Moderate	0.63	2.22	task-social/cue/runtype-cognitive/scl/l053.png	n/a	n/a	n/a	n/a	n/a	n/a	n/a	n/a
226.99	5.0	cognitive	stimulus	7	low_cue	med_stim	n/a	n/a	n/a	n/a	n/a	n/a	task-social/stim/runtype-cognitive/9_100.jpg	n/a	n/a	n/a	n/a	n/a	same	same	True
240.6	2.32	cognitive	outcomerating	7	low_cue	med_stim	19.24	Moderate	19.24	Moderate	0.63	2.22	task-social/outcomerating/task-cognitive_scale.png	n/a	n/a	n/a	n/a	n/a	n/a	n/a	n/a
251.69	0.99	cognitive	cue	8	high_cue	n/a	n/a	n/a	n/a	n/a	n/a	n/a	task-social/cue/runtype-cognitive/sch/h033.png	n/a	n/a	n/a	n/a	n/a	n/a	n/a	n/a
254.29	2.12	cognitive	expectrating	8	high_cue	n/a	62.71	Strong	62.71	Strong	0.18	1.94	task-social/cue/runtype-cognitive/sch/h033.png	n/a	n/a	n/a	n/a	n/a	n/a	n/a	n/a
260.89	5.0	cognitive	stimulus	8	high_cue	med_stim	n/a	n/a	n/a	n/a	n/a	n/a	task-social/stim/runtype-cognitive/33_100_R.jpg	n/a	n/a	n/a	n/a	n/a	diff	diff	True
270.09	2.35	cognitive	outcomerating	8	high_cue	med_stim	22.44	Moderate	22.44	Moderate	0.18	1.94	task-social/outcomerating/task-cognitive_scale.png	n/a	n/a	n/a	n/a	n/a	n/a	n/a	n/a
279.98	0.99	cognitive	cue	9	high_cue	n/a	n/a	n/a	n/a	n/a	n/a	n/a	task-social/cue/runtype-cognitive/sch/h017.png	n/a	n/a	n/a	n/a	n/a	n/a	n/a	n/a
281.88	2.87	cognitive	expectrating	9	high_cue	n/a	40.47	Strong	40.47	Strong	0.6	2.27	task-social/cue/runtype-cognitive/sch/h017.png	n/a	n/a	n/a	n/a	n/a	n/a	n/a	n/a
289.88	5.0	cognitive	stimulus	9	high_cue	med_stim	n/a	n/a	n/a	n/a	n/a	n/a	task-social/stim/runtype-cognitive/10_100.jpg	n/a	n/a	n/a	n/a	n/a	same	same	True
299.29	1.91	cognitive	outcomerating	9	high_cue	med_stim	20.64	Moderate	20.64	Moderate	0.6	2.27	task-social/outcomerating/task-cognitive_scale.png	n/a	n/a	n/a	n/a	n/a	n/a	n/a	n/a
308.39	0.98	cognitive	cue	10	low_cue	n/a	n/a	n/a	n/a	n/a	n/a	n/a	task-social/cue/runtype-cognitive/scl/l028.png	n/a	n/a	n/a	n/a	n/a	n/a	n/a	n/a
311.39	2.89	cognitive	expectrating	10	low_cue	n/a	24.81	Moderate	24.81	Moderate	0.17	2.72	task-social/cue/runtype-cognitive/scl/l028.png	n/a	n/a	n/a	n/a	n/a	n/a	n/a	n/a
318.98	5.0	cognitive	stimulus	10	low_cue	med_stim	n/a	n/a	n/a	n/a	n/a	n/a	task-social/stim/runtype-cognitive/17_100.jpg	n/a	n/a	n/a	n/a	n/a	same	same	True
331.48	1.73	cognitive	outcomerating	10	low_cue	med_stim	16.61	Moderate	16.61	Moderate	0.17	2.72	task-social/outcomerating/task-cognitive_scale.png	n/a	n/a	n/a	n/a	n/a	n/a	n/a	n/a
341.09	0.99	cognitive	cue	11	high_cue	n/a	n/a	n/a	n/a	n/a	n/a	n/a	task-social/cue/runtype-cognitive/sch/h054.png	n/a	n/a	n/a	n/a	n/a	n/a	n/a	n/a
342.99	3.12	cognitive	expectrating	11	high_cue	n/a	25.42	Moderate	25.42	Moderate	0.37	2.76	task-social/cue/runtype-cognitive/sch/h054.png	n/a	n/a	n/a	n/a	n/a	n/a	n/a	n/a
354.89	5.0	cognitive	stimulus	11	high_cue	low_stim	n/a	n/a	n/a	n/a	n/a	n/a	task-social/stim/runtype-cognitive/17_50_R.jpg	n/a	n/a	n/a	n/a	n/a	diff	same	False
364.7	1.92	cognitive	outcomerating	11	high_cue	low_stim	39.81	Strong	39.81	Strong	0.37	2.76	task-social/outcomerating/task-cognitive_scale.png	n/a	n/a	n/a	n/a	n/a	n/a	n/a	n/a
374.28	0.99	cognitive	cue	12	low_cue	n/a	n/a	n/a	n/a	n/a	n/a	n/a	task-social/cue/runtype-cognitive/scl/l011.png	n/a	n/a	n/a	n/a	n/a	n/a	n/a	n/a
376.18	2.0	cognitive	expectrating	12	low_cue	n/a	16.23	Moderate	16.23	Moderate	0.32	1.68	task-social/cue/runtype-cognitive/scl/l011.png	n/a	n/a	n/a	n/a	n/a	n/a	n/a	n/a
382.99	5.0	cognitive	stimulus	12	low_cue	low_stim	n/a	n/a	n/a	n/a	n/a	n/a	task-social/stim/runtype-cognitive/10_50_R.jpg	n/a	n/a	n/a	n/a	n/a	diff	diff	True
394.99	2.67	cognitive	outcomerating	12	low_cue	low_stim	19.02	Moderate	19.02	Moderate	0.32	1.68	task-social/outcomerating/task-cognitive_scale.png	n/a	n/a	n/a	n/a	n/a	n/a	n/a	n/a
