onset	duration	run_type	trial_type	trial_index	cue	stimulusintensity	rating_value	rating_glmslabel	rating_value_fillna	rating_glmslabel_fillna	rating_mouseonset	rating_mousedur	stim_file	pain_onset_ttl1	pain_onset_ttl2	pain_onset_ttl3	pain_onset_ttl4	pain_stimulus_delivery_success	cognitive_correct_response	cognitive_participant_response	cognitive_response_accuracy
3.9	0.98	pain	cue	1	high_cue	n/a	n/a	n/a	n/a	n/a	n/a	n/a	task-social/cue/runtype-pain/sch/h032.png	n/a	n/a	n/a	n/a	n/a	n/a	n/a	n/a
6.1	n/a	pain	expectrating	1	high_cue	n/a	n/a	n/a	55.8	Strong	0.18	3.57	task-social/cue/runtype-pain/sch/h032.png	n/a	n/a	n/a	n/a	n/a	n/a	n/a	n/a
14.82	11.91	pain	stimulus	1	high_cue	low_stim	n/a	n/a	n/a	n/a	n/a	n/a	n/a	14.82	18.32	23.32	26.72	success	n/a	n/a	n/a
28.99	3.14	pain	outcomerating	1	high_cue	low_stim	0.93	No sensation	0.93	No sensation	0.18	3.57	task-social/outcomerating/task-pain_scale.png	n/a	n/a	n/a	n/a	success	n/a	n/a	n/a
33.6	1.0	pain	cue	2	low_cue	n/a	n/a	n/a	n/a	n/a	n/a	n/a	task-social/cue/runtype-pain/scl/l014.png	n/a	n/a	n/a	n/a	n/a	n/a	n/a	n/a
36.0	n/a	pain	expectrating	2	low_cue	n/a	n/a	n/a	54.78	Strong	1.1	3.77	task-social/cue/runtype-pain/scl/l014.png	n/a	n/a	n/a	n/a	n/a	n/a	n/a	n/a
47.82	12.36	pain	stimulus	2	low_cue	med_stim	n/a	n/a	n/a	n/a	n/a	n/a	n/a	47.82	51.58	56.58	60.19	success	n/a	n/a	n/a
59.91	3.33	pain	outcomerating	2	low_cue	med_stim	0.0	n/a	0.0	n/a	1.1	3.77	task-social/outcomerating/task-pain_scale.png	n/a	n/a	n/a	n/a	success	n/a	n/a	n/a
65.09	1.0	pain	cue	3	high_cue	n/a	n/a	n/a	n/a	n/a	n/a	n/a	task-social/cue/runtype-pain/sch/h033.png	n/a	n/a	n/a	n/a	n/a	n/a	n/a	n/a
67.29	3.02	pain	expectrating	3	high_cue	n/a	38.16	Strong	38.16	Strong	0.97	2.05	task-social/cue/runtype-pain/sch/h033.png	n/a	n/a	n/a	n/a	n/a	n/a	n/a	n/a
71.94	11.909999999999997	pain	stimulus	3	high_cue	low_stim	n/a	n/a	n/a	n/a	n/a	n/a	n/a	71.94	75.44	80.44	83.84	success	n/a	n/a	n/a
82.4	2.17	pain	outcomerating	3	high_cue	low_stim	1.16	Barely detectable	1.16	Barely detectable	0.97	2.05	task-social/outcomerating/task-pain_scale.png	n/a	n/a	n/a	n/a	success	n/a	n/a	n/a
87.5	1.0	pain	cue	4	low_cue	n/a	n/a	n/a	n/a	n/a	n/a	n/a	task-social/cue/runtype-pain/scl/l023.png	n/a	n/a	n/a	n/a	n/a	n/a	n/a	n/a
91.0	n/a	pain	expectrating	4	low_cue	n/a	n/a	n/a	0.0	n/a	0.83	3.17	task-social/cue/runtype-pain/scl/l023.png	n/a	n/a	n/a	n/a	n/a	n/a	n/a	n/a
104.03	12.36	pain	stimulus	4	low_cue	med_stim	n/a	n/a	n/a	n/a	n/a	n/a	n/a	104.03	107.79	112.79	116.4	success	n/a	n/a	n/a
119.19	1.89	pain	outcomerating	4	low_cue	med_stim	0.0	n/a	0.0	n/a	0.83	3.17	task-social/outcomerating/task-pain_scale.png	n/a	n/a	n/a	n/a	success	n/a	n/a	n/a
124.3	1.0	pain	cue	5	high_cue	n/a	n/a	n/a	n/a	n/a	n/a	n/a	task-social/cue/runtype-pain/sch/h017.png	n/a	n/a	n/a	n/a	n/a	n/a	n/a	n/a
126.0	n/a	pain	expectrating	5	high_cue	n/a	n/a	n/a	7.87	Weak	0.6	3.73	task-social/cue/runtype-pain/sch/h017.png	n/a	n/a	n/a	n/a	n/a	n/a	n/a	n/a
130.62	12.819999999999993	pain	stimulus	5	high_cue	high_stim	n/a	n/a	n/a	n/a	n/a	n/a	n/a	130.62	134.63	139.63	143.44	success	n/a	n/a	n/a
145.8	1.6	pain	outcomerating	5	high_cue	high_stim	0.0	n/a	0.0	n/a	0.6	3.73	task-social/outcomerating/task-pain_scale.png	n/a	n/a	n/a	n/a	success	n/a	n/a	n/a
150.39	1.0	pain	cue	6	low_cue	n/a	n/a	n/a	n/a	n/a	n/a	n/a	task-social/cue/runtype-pain/scl/l028.png	n/a	n/a	n/a	n/a	n/a	n/a	n/a	n/a
153.89	3.03	pain	expectrating	6	low_cue	n/a	0.0	n/a	0.0	n/a	0.07	2.97	task-social/cue/runtype-pain/scl/l028.png	n/a	n/a	n/a	n/a	n/a	n/a	n/a	n/a
159.72	11.909999999999997	pain	stimulus	6	low_cue	low_stim	n/a	n/a	n/a	n/a	n/a	n/a	n/a	159.72	163.22	168.22	171.62	success	n/a	n/a	n/a
173.9	2.36	pain	outcomerating	6	low_cue	low_stim	0.0	n/a	0.0	n/a	0.07	2.97	task-social/outcomerating/task-pain_scale.png	n/a	n/a	n/a	n/a	success	n/a	n/a	n/a
183.5	0.98	pain	cue	7	low_cue	n/a	n/a	n/a	n/a	n/a	n/a	n/a	task-social/cue/runtype-pain/scl/l049.png	n/a	n/a	n/a	n/a	n/a	n/a	n/a	n/a
185.7	2.05	pain	expectrating	7	low_cue	n/a	0.0	n/a	0.0	n/a	0.05	2.0	task-social/cue/runtype-pain/scl/l049.png	n/a	n/a	n/a	n/a	n/a	n/a	n/a	n/a
197.94	12.819999999999993	pain	stimulus	7	low_cue	high_stim	n/a	n/a	n/a	n/a	n/a	n/a	n/a	197.94	201.95	206.95	210.76	success	n/a	n/a	n/a
213.2	2.77	pain	outcomerating	7	low_cue	high_stim	1.62	Barely detectable	1.62	Barely detectable	0.05	2.0	task-social/outcomerating/task-pain_scale.png	n/a	n/a	n/a	n/a	success	n/a	n/a	n/a
223.4	1.0	pain	cue	8	low_cue	n/a	n/a	n/a	n/a	n/a	n/a	n/a	task-social/cue/runtype-pain/scl/l004.png	n/a	n/a	n/a	n/a	n/a	n/a	n/a	n/a
225.6	1.62	pain	expectrating	8	low_cue	n/a	0.69	No sensation	0.69	No sensation	0.68	0.94	task-social/cue/runtype-pain/scl/l004.png	n/a	n/a	n/a	n/a	n/a	n/a	n/a	n/a
230.24	11.899999999999977	pain	stimulus	8	low_cue	low_stim	n/a	n/a	n/a	n/a	n/a	n/a	n/a	230.24	233.74	238.74	242.14	success	n/a	n/a	n/a
245.49	2.35	pain	outcomerating	8	low_cue	low_stim	1.84	Barely detectable	1.84	Barely detectable	0.68	0.94	task-social/outcomerating/task-pain_scale.png	n/a	n/a	n/a	n/a	success	n/a	n/a	n/a
259.3	1.0	pain	cue	9	high_cue	n/a	n/a	n/a	n/a	n/a	n/a	n/a	task-social/cue/runtype-pain/sch/h045.png	n/a	n/a	n/a	n/a	n/a	n/a	n/a	n/a
262.8	2.19	pain	expectrating	9	high_cue	n/a	0.0	n/a	0.0	n/a	0.08	2.11	task-social/cue/runtype-pain/sch/h045.png	n/a	n/a	n/a	n/a	n/a	n/a	n/a	n/a
275.83	12.819999999999993	pain	stimulus	9	high_cue	high_stim	n/a	n/a	n/a	n/a	n/a	n/a	n/a	275.83	279.84	284.84	288.65	success	n/a	n/a	n/a
287.89	3.17	pain	outcomerating	9	high_cue	high_stim	0.46	No sensation	0.46	No sensation	0.08	2.11	task-social/outcomerating/task-pain_scale.png	n/a	n/a	n/a	n/a	success	n/a	n/a	n/a
294.09	1.0	pain	cue	10	low_cue	n/a	n/a	n/a	n/a	n/a	n/a	n/a	task-social/cue/runtype-pain/scl/l055.png	n/a	n/a	n/a	n/a	n/a	n/a	n/a	n/a
296.49	2.03	pain	expectrating	10	low_cue	n/a	0.0	n/a	0.0	n/a	0.8	1.23	task-social/cue/runtype-pain/scl/l055.png	n/a	n/a	n/a	n/a	n/a	n/a	n/a	n/a
302.13	12.819999999999993	pain	stimulus	10	low_cue	high_stim	n/a	n/a	n/a	n/a	n/a	n/a	n/a	302.13	306.14	311.14	314.95	success	n/a	n/a	n/a
312.6	2.14	pain	outcomerating	10	low_cue	high_stim	0.23	No sensation	0.23	No sensation	0.8	1.23	task-social/outcomerating/task-pain_scale.png	n/a	n/a	n/a	n/a	success	n/a	n/a	n/a
331.09	1.0	pain	cue	11	high_cue	n/a	n/a	n/a	n/a	n/a	n/a	n/a	task-social/cue/runtype-pain/sch/h004.png	n/a	n/a	n/a	n/a	n/a	n/a	n/a	n/a
333.49	1.63	pain	expectrating	11	high_cue	n/a	0.0	n/a	0.0	n/a	0.65	0.98	task-social/cue/runtype-pain/sch/h004.png	n/a	n/a	n/a	n/a	n/a	n/a	n/a	n/a
340.83	12.370000000000005	pain	stimulus	11	high_cue	med_stim	n/a	n/a	n/a	n/a	n/a	n/a	n/a	340.83	344.59	349.59	353.2	success	n/a	n/a	n/a
355.8	1.77	pain	outcomerating	11	high_cue	med_stim	1.38	Barely detectable	1.38	Barely detectable	0.65	0.98	task-social/outcomerating/task-pain_scale.png	n/a	n/a	n/a	n/a	success	n/a	n/a	n/a
369.59	1.0	pain	cue	12	high_cue	n/a	n/a	n/a	n/a	n/a	n/a	n/a	task-social/cue/runtype-pain/sch/h038.png	n/a	n/a	n/a	n/a	n/a	n/a	n/a	n/a
371.61	1.57	pain	expectrating	12	high_cue	n/a	0.0	n/a	0.0	n/a	0.83	0.73	task-social/cue/runtype-pain/sch/h038.png	n/a	n/a	n/a	n/a	n/a	n/a	n/a	n/a
382.62	12.360000000000014	pain	stimulus	12	high_cue	med_stim	n/a	n/a	n/a	n/a	n/a	n/a	n/a	382.62	386.38	391.38	394.99	success	n/a	n/a	n/a
394.8	1.49	pain	outcomerating	12	high_cue	med_stim	0.0	n/a	0.0	n/a	0.83	0.73	task-social/outcomerating/task-pain_scale.png	n/a	n/a	n/a	n/a	success	n/a	n/a	n/a
