onset	duration	run_type	trial_type	trial_index	cue	stimulusintensity	rating_value	rating_glmslabel	rating_value_fillna	rating_glmslabel_fillna	rating_mouseonset	rating_mousedur	stim_file	pain_onset_ttl1	pain_onset_ttl2	pain_onset_ttl3	pain_onset_ttl4	pain_stimulus_delivery_success	cognitive_correct_response	cognitive_participant_response	cognitive_response_accuracy
4.8	0.98	cognitive	cue	1	high_cue	n/a	n/a	n/a	n/a	n/a	n/a	n/a	task-social/cue/runtype-cognitive/sch/h041.png	n/a	n/a	n/a	n/a	n/a	n/a	n/a	n/a
7.2	2.45	cognitive	expectrating	1	high_cue	n/a	48.92	Strong	48.92	Strong	0.18	2.27	task-social/cue/runtype-cognitive/sch/h041.png	n/a	n/a	n/a	n/a	n/a	n/a	n/a	n/a
17.8	5.0	cognitive	stimulus	1	high_cue	low_stim	n/a	n/a	n/a	n/a	n/a	n/a	task-social/stim/runtype-cognitive/27_50.jpg	n/a	n/a	n/a	n/a	n/a	same	same	True
27.19	2.04	cognitive	outcomerating	1	high_cue	low_stim	26.57	Moderate	26.57	Moderate	0.18	2.27	task-social/outcomerating/task-cognitive_scale.png	n/a	n/a	n/a	n/a	n/a	n/a	n/a	n/a
33.09	0.99	cognitive	cue	2	low_cue	n/a	n/a	n/a	n/a	n/a	n/a	n/a	task-social/cue/runtype-cognitive/scl/l036.png	n/a	n/a	n/a	n/a	n/a	n/a	n/a	n/a
34.89	2.55	cognitive	expectrating	2	low_cue	n/a	29.74	Strong	29.74	Strong	0.82	1.74	task-social/cue/runtype-cognitive/scl/l036.png	n/a	n/a	n/a	n/a	n/a	n/a	n/a	n/a
46.2	5.0	cognitive	stimulus	2	low_cue	low_stim	n/a	n/a	n/a	n/a	n/a	n/a	task-social/stim/runtype-cognitive/1_50.jpg	n/a	n/a	n/a	n/a	n/a	same	same	True
56.1	2.15	cognitive	outcomerating	2	low_cue	low_stim	8.29	Weak	8.29	Weak	0.82	1.74	task-social/outcomerating/task-cognitive_scale.png	n/a	n/a	n/a	n/a	n/a	n/a	n/a	n/a
61.09	0.99	cognitive	cue	3	low_cue	n/a	n/a	n/a	n/a	n/a	n/a	n/a	task-social/cue/runtype-cognitive/scl/l039.png	n/a	n/a	n/a	n/a	n/a	n/a	n/a	n/a
63.19	2.05	cognitive	expectrating	3	low_cue	n/a	19.96	Moderate	19.96	Moderate	0.32	1.73	task-social/cue/runtype-cognitive/scl/l039.png	n/a	n/a	n/a	n/a	n/a	n/a	n/a	n/a
71.79	5.0	cognitive	stimulus	3	low_cue	med_stim	n/a	n/a	n/a	n/a	n/a	n/a	task-social/stim/runtype-cognitive/7_100.jpg	n/a	n/a	n/a	n/a	n/a	same	diff	False
81.39	3.89	cognitive	outcomerating	3	low_cue	med_stim	7.15	Weak	7.15	Weak	0.32	1.73	task-social/outcomerating/task-cognitive_scale.png	n/a	n/a	n/a	n/a	n/a	n/a	n/a	n/a
86.5	0.98	cognitive	cue	4	low_cue	n/a	n/a	n/a	n/a	n/a	n/a	n/a	task-social/cue/runtype-cognitive/scl/l054.png	n/a	n/a	n/a	n/a	n/a	n/a	n/a	n/a
89.6	n/a	cognitive	expectrating	4	low_cue	n/a	n/a	n/a	23.89	Moderate	0.82	3.12	task-social/cue/runtype-cognitive/scl/l054.png	n/a	n/a	n/a	n/a	n/a	n/a	n/a	n/a
100.8	5.0	cognitive	stimulus	4	low_cue	high_stim	n/a	n/a	n/a	n/a	n/a	n/a	task-social/stim/runtype-cognitive/22_150_R.jpg	n/a	n/a	n/a	n/a	n/a	diff	same	False
110.1	n/a	cognitive	outcomerating	4	low_cue	high_stim	n/a	n/a	27.3	Moderate	0.82	3.12	task-social/outcomerating/task-cognitive_scale.png	n/a	n/a	n/a	n/a	n/a	n/a	n/a	n/a
114.79	0.99	cognitive	cue	5	high_cue	n/a	n/a	n/a	n/a	n/a	n/a	n/a	task-social/cue/runtype-cognitive/sch/h038.png	n/a	n/a	n/a	n/a	n/a	n/a	n/a	n/a
117.19	n/a	cognitive	expectrating	5	high_cue	n/a	n/a	n/a	76.05	Very-Strong	0.73	3.98	task-social/cue/runtype-cognitive/sch/h038.png	n/a	n/a	n/a	n/a	n/a	n/a	n/a	n/a
124.59	5.0	cognitive	stimulus	5	high_cue	med_stim	n/a	n/a	n/a	n/a	n/a	n/a	task-social/stim/runtype-cognitive/44_100_R.jpg	n/a	n/a	n/a	n/a	n/a	diff	diff	True
133.9	3.67	cognitive	outcomerating	5	high_cue	med_stim	37.87	Strong	37.87	Strong	0.73	3.98	task-social/outcomerating/task-cognitive_scale.png	n/a	n/a	n/a	n/a	n/a	n/a	n/a	n/a
138.5	0.98	cognitive	cue	6	high_cue	n/a	n/a	n/a	n/a	n/a	n/a	n/a	task-social/cue/runtype-cognitive/sch/h026.png	n/a	n/a	n/a	n/a	n/a	n/a	n/a	n/a
140.6	2.67	cognitive	expectrating	6	high_cue	n/a	58.95	Strong	58.95	Strong	0.82	1.85	task-social/cue/runtype-cognitive/sch/h026.png	n/a	n/a	n/a	n/a	n/a	n/a	n/a	n/a
147.89	5.0	cognitive	stimulus	6	high_cue	high_stim	n/a	n/a	n/a	n/a	n/a	n/a	task-social/stim/runtype-cognitive/20_150.jpg	n/a	n/a	n/a	n/a	n/a	same	same	True
157.61	3.3	cognitive	outcomerating	6	high_cue	high_stim	30.37	Strong	30.37	Strong	0.82	1.85	task-social/outcomerating/task-cognitive_scale.png	n/a	n/a	n/a	n/a	n/a	n/a	n/a	n/a
163.49	0.99	cognitive	cue	7	high_cue	n/a	n/a	n/a	n/a	n/a	n/a	n/a	task-social/cue/runtype-cognitive/sch/h005.png	n/a	n/a	n/a	n/a	n/a	n/a	n/a	n/a
165.59	1.69	cognitive	expectrating	7	high_cue	n/a	86.5	Very-Strong	86.5	Very-Strong	0.47	1.22	task-social/cue/runtype-cognitive/sch/h005.png	n/a	n/a	n/a	n/a	n/a	n/a	n/a	n/a
178.4	5.0	cognitive	stimulus	7	high_cue	low_stim	n/a	n/a	n/a	n/a	n/a	n/a	task-social/stim/runtype-cognitive/19_50_R.jpg	n/a	n/a	n/a	n/a	n/a	diff	diff	True
197.59	3.0	cognitive	outcomerating	7	high_cue	low_stim	29.77	Strong	29.77	Strong	0.47	1.22	task-social/outcomerating/task-cognitive_scale.png	n/a	n/a	n/a	n/a	n/a	n/a	n/a	n/a
209.39	0.99	cognitive	cue	8	high_cue	n/a	n/a	n/a	n/a	n/a	n/a	n/a	task-social/cue/runtype-cognitive/sch/h014.png	n/a	n/a	n/a	n/a	n/a	n/a	n/a	n/a
211.49	n/a	cognitive	expectrating	8	high_cue	n/a	n/a	n/a	129.67	Strongest-sensation-of-any-kind	0.2	3.83	task-social/cue/runtype-cognitive/sch/h014.png	n/a	n/a	n/a	n/a	n/a	n/a	n/a	n/a
218.39	5.0	cognitive	stimulus	8	high_cue	high_stim	n/a	n/a	n/a	n/a	n/a	n/a	task-social/stim/runtype-cognitive/27_150.jpg	n/a	n/a	n/a	n/a	n/a	same	diff	False
229.7	2.3	cognitive	outcomerating	8	high_cue	high_stim	32.83	Strong	32.83	Strong	0.2	3.83	task-social/outcomerating/task-cognitive_scale.png	n/a	n/a	n/a	n/a	n/a	n/a	n/a	n/a
234.58	0.99	cognitive	cue	9	low_cue	n/a	n/a	n/a	n/a	n/a	n/a	n/a	task-social/cue/runtype-cognitive/scl/l028.png	n/a	n/a	n/a	n/a	n/a	n/a	n/a	n/a
237.7	2.47	cognitive	expectrating	9	low_cue	n/a	35.18	Strong	35.18	Strong	0.05	2.42	task-social/cue/runtype-cognitive/scl/l028.png	n/a	n/a	n/a	n/a	n/a	n/a	n/a	n/a
252.49	5.0	cognitive	stimulus	9	low_cue	low_stim	n/a	n/a	n/a	n/a	n/a	n/a	task-social/stim/runtype-cognitive/19_50.jpg	n/a	n/a	n/a	n/a	n/a	same	same	True
265.1	3.34	cognitive	outcomerating	9	low_cue	low_stim	38.48	Strong	38.48	Strong	0.05	2.42	task-social/outcomerating/task-cognitive_scale.png	n/a	n/a	n/a	n/a	n/a	n/a	n/a	n/a
271.0	0.98	cognitive	cue	10	low_cue	n/a	n/a	n/a	n/a	n/a	n/a	n/a	task-social/cue/runtype-cognitive/scl/l043.png	n/a	n/a	n/a	n/a	n/a	n/a	n/a	n/a
274.1	1.8	cognitive	expectrating	10	low_cue	n/a	16.26	Moderate	16.26	Moderate	0.1	1.7	task-social/cue/runtype-cognitive/scl/l043.png	n/a	n/a	n/a	n/a	n/a	n/a	n/a	n/a
285.39	5.0	cognitive	stimulus	10	low_cue	med_stim	n/a	n/a	n/a	n/a	n/a	n/a	task-social/stim/runtype-cognitive/1_100.jpg	n/a	n/a	n/a	n/a	n/a	same	same	True
296.59	2.47	cognitive	outcomerating	10	low_cue	med_stim	18.22	Moderate	18.22	Moderate	0.1	1.7	task-social/outcomerating/task-cognitive_scale.png	n/a	n/a	n/a	n/a	n/a	n/a	n/a	n/a
317.6	0.98	cognitive	cue	11	low_cue	n/a	n/a	n/a	n/a	n/a	n/a	n/a	task-social/cue/runtype-cognitive/scl/l009.png	n/a	n/a	n/a	n/a	n/a	n/a	n/a	n/a
320.0	1.88	cognitive	expectrating	11	low_cue	n/a	42.71	Strong	42.71	Strong	0.05	1.83	task-social/cue/runtype-cognitive/scl/l009.png	n/a	n/a	n/a	n/a	n/a	n/a	n/a	n/a
327.4	5.0	cognitive	stimulus	11	low_cue	high_stim	n/a	n/a	n/a	n/a	n/a	n/a	task-social/stim/runtype-cognitive/35_150.jpg	n/a	n/a	n/a	n/a	n/a	same	diff	False
337.09	1.99	cognitive	outcomerating	11	low_cue	high_stim	8.52	Weak	8.52	Weak	0.05	1.83	task-social/outcomerating/task-cognitive_scale.png	n/a	n/a	n/a	n/a	n/a	n/a	n/a	n/a
358.1	0.98	cognitive	cue	12	high_cue	n/a	n/a	n/a	n/a	n/a	n/a	n/a	task-social/cue/runtype-cognitive/sch/h030.png	n/a	n/a	n/a	n/a	n/a	n/a	n/a	n/a
361.2	2.5	cognitive	expectrating	12	high_cue	n/a	91.16	Very-Strong	91.16	Very-Strong	0.4	2.1	task-social/cue/runtype-cognitive/sch/h030.png	n/a	n/a	n/a	n/a	n/a	n/a	n/a	n/a
377.49	5.0	cognitive	stimulus	12	high_cue	med_stim	n/a	n/a	n/a	n/a	n/a	n/a	task-social/stim/runtype-cognitive/20_100.jpg	n/a	n/a	n/a	n/a	n/a	same	same	True
394.09	2.0	cognitive	outcomerating	12	high_cue	med_stim	16.32	Moderate	16.32	Moderate	0.4	2.1	task-social/outcomerating/task-cognitive_scale.png	n/a	n/a	n/a	n/a	n/a	n/a	n/a	n/a
