onset	duration	run_type	trial_type	trial_index	cue	stimulusintensity	rating_value	rating_glmslabel	rating_value_fillna	rating_glmslabel_fillna	rating_mouseonset	rating_mousedur	stim_file	pain_onset_ttl1	pain_onset_ttl2	pain_onset_ttl3	pain_onset_ttl4	pain_stimulus_delivery_success	cognitive_correct_response	cognitive_participant_response	cognitive_response_accuracy
4.8	0.98	cognitive	cue	1	high_cue	n/a	n/a	n/a	n/a	n/a	n/a	n/a	task-social/cue/runtype-cognitive/sch/h041.png	n/a	n/a	n/a	n/a	n/a	n/a	n/a	n/a
7.2	n/a	cognitive	expectrating	1	high_cue	n/a	n/a	n/a	50.58	Strong	0.82	3.78	task-social/cue/runtype-cognitive/sch/h041.png	n/a	n/a	n/a	n/a	n/a	n/a	n/a	n/a
17.81	5.0	cognitive	stimulus	1	high_cue	low_stim	n/a	n/a	n/a	n/a	n/a	n/a	task-social/stim/runtype-cognitive/27_50.jpg	n/a	n/a	n/a	n/a	n/a	same	same	True
27.2	3.63	cognitive	outcomerating	1	high_cue	low_stim	41.73	Strong	41.73	Strong	0.82	3.78	task-social/outcomerating/task-cognitive_scale.png	n/a	n/a	n/a	n/a	n/a	n/a	n/a	n/a
33.1	0.98	cognitive	cue	2	low_cue	n/a	n/a	n/a	n/a	n/a	n/a	n/a	task-social/cue/runtype-cognitive/scl/l036.png	n/a	n/a	n/a	n/a	n/a	n/a	n/a	n/a
34.9	2.67	cognitive	expectrating	2	low_cue	n/a	9.69	Weak	9.69	Weak	0.48	2.19	task-social/cue/runtype-cognitive/scl/l036.png	n/a	n/a	n/a	n/a	n/a	n/a	n/a	n/a
46.2	5.0	cognitive	stimulus	2	low_cue	low_stim	n/a	n/a	n/a	n/a	n/a	n/a	task-social/stim/runtype-cognitive/1_50.jpg	n/a	n/a	n/a	n/a	n/a	same	same	True
56.11	n/a	cognitive	outcomerating	2	low_cue	low_stim	n/a	n/a	7.84	Weak	0.48	2.19	task-social/outcomerating/task-cognitive_scale.png	n/a	n/a	n/a	n/a	n/a	n/a	n/a	n/a
61.09	0.99	cognitive	cue	3	low_cue	n/a	n/a	n/a	n/a	n/a	n/a	n/a	task-social/cue/runtype-cognitive/scl/l039.png	n/a	n/a	n/a	n/a	n/a	n/a	n/a	n/a
63.19	1.98	cognitive	expectrating	3	low_cue	n/a	35.94	Strong	35.94	Strong	0.83	1.15	task-social/cue/runtype-cognitive/scl/l039.png	n/a	n/a	n/a	n/a	n/a	n/a	n/a	n/a
71.8	5.0	cognitive	stimulus	3	low_cue	med_stim	n/a	n/a	n/a	n/a	n/a	n/a	task-social/stim/runtype-cognitive/7_100.jpg	n/a	n/a	n/a	n/a	n/a	same	diff	False
81.4	2.47	cognitive	outcomerating	3	low_cue	med_stim	54.19	Strong	54.19	Strong	0.83	1.15	task-social/outcomerating/task-cognitive_scale.png	n/a	n/a	n/a	n/a	n/a	n/a	n/a	n/a
86.5	0.98	cognitive	cue	4	low_cue	n/a	n/a	n/a	n/a	n/a	n/a	n/a	task-social/cue/runtype-cognitive/scl/l054.png	n/a	n/a	n/a	n/a	n/a	n/a	n/a	n/a
89.6	2.1	cognitive	expectrating	4	low_cue	n/a	2.31	Barely detectable	2.31	Barely detectable	0.4	1.7	task-social/cue/runtype-cognitive/scl/l054.png	n/a	n/a	n/a	n/a	n/a	n/a	n/a	n/a
100.79	5.0	cognitive	stimulus	4	low_cue	high_stim	n/a	n/a	n/a	n/a	n/a	n/a	task-social/stim/runtype-cognitive/22_150_R.jpg	n/a	n/a	n/a	n/a	n/a	diff	diff	True
110.09	2.75	cognitive	outcomerating	4	low_cue	high_stim	2.54	Barely detectable	2.54	Barely detectable	0.4	1.7	task-social/outcomerating/task-cognitive_scale.png	n/a	n/a	n/a	n/a	n/a	n/a	n/a	n/a
114.79	0.99	cognitive	cue	5	high_cue	n/a	n/a	n/a	n/a	n/a	n/a	n/a	task-social/cue/runtype-cognitive/sch/h038.png	n/a	n/a	n/a	n/a	n/a	n/a	n/a	n/a
117.2	2.29	cognitive	expectrating	5	high_cue	n/a	70.39	Very Strong	70.39	Very Strong	0.32	1.98	task-social/cue/runtype-cognitive/sch/h038.png	n/a	n/a	n/a	n/a	n/a	n/a	n/a	n/a
124.6	5.0	cognitive	stimulus	5	high_cue	med_stim	n/a	n/a	n/a	n/a	n/a	n/a	task-social/stim/runtype-cognitive/44_100_R.jpg	n/a	n/a	n/a	n/a	n/a	diff	diff	True
133.9	3.07	cognitive	outcomerating	5	high_cue	med_stim	16.45	Moderate	16.45	Moderate	0.32	1.98	task-social/outcomerating/task-cognitive_scale.png	n/a	n/a	n/a	n/a	n/a	n/a	n/a	n/a
138.49	1.0	cognitive	cue	6	high_cue	n/a	n/a	n/a	n/a	n/a	n/a	n/a	task-social/cue/runtype-cognitive/sch/h026.png	n/a	n/a	n/a	n/a	n/a	n/a	n/a	n/a
140.6	1.82	cognitive	expectrating	6	high_cue	n/a	75.85	Very Strong	75.85	Very Strong	0.37	1.45	task-social/cue/runtype-cognitive/sch/h026.png	n/a	n/a	n/a	n/a	n/a	n/a	n/a	n/a
147.89	5.0	cognitive	stimulus	6	high_cue	high_stim	n/a	n/a	n/a	n/a	n/a	n/a	task-social/stim/runtype-cognitive/20_150.jpg	n/a	n/a	n/a	n/a	n/a	same	n/a	False
157.59	n/a	cognitive	outcomerating	6	high_cue	high_stim	n/a	n/a	n/a	n/a	0.37	1.45	task-social/outcomerating/task-cognitive_scale.png	n/a	n/a	n/a	n/a	n/a	n/a	n/a	n/a
163.5	0.99	cognitive	cue	7	high_cue	n/a	n/a	n/a	n/a	n/a	n/a	n/a	task-social/cue/runtype-cognitive/sch/h005.png	n/a	n/a	n/a	n/a	n/a	n/a	n/a	n/a
165.6	2.81	cognitive	expectrating	7	high_cue	n/a	26.25	Moderate	26.25	Moderate	0.52	2.29	task-social/cue/runtype-cognitive/sch/h005.png	n/a	n/a	n/a	n/a	n/a	n/a	n/a	n/a
178.4	5.0	cognitive	stimulus	7	high_cue	low_stim	n/a	n/a	n/a	n/a	n/a	n/a	task-social/stim/runtype-cognitive/19_50_R.jpg	n/a	n/a	n/a	n/a	n/a	diff	diff	True
197.59	2.45	cognitive	outcomerating	7	high_cue	low_stim	4.13	Weak	4.13	Weak	0.52	2.29	task-social/outcomerating/task-cognitive_scale.png	n/a	n/a	n/a	n/a	n/a	n/a	n/a	n/a
209.4	0.99	cognitive	cue	8	high_cue	n/a	n/a	n/a	n/a	n/a	n/a	n/a	task-social/cue/runtype-cognitive/sch/h014.png	n/a	n/a	n/a	n/a	n/a	n/a	n/a	n/a
211.5	3.49	cognitive	expectrating	8	high_cue	n/a	59.04	Strong	59.04	Strong	0.28	3.21	task-social/cue/runtype-cognitive/sch/h014.png	n/a	n/a	n/a	n/a	n/a	n/a	n/a	n/a
218.4	5.0	cognitive	stimulus	8	high_cue	high_stim	n/a	n/a	n/a	n/a	n/a	n/a	task-social/stim/runtype-cognitive/27_150.jpg	n/a	n/a	n/a	n/a	n/a	same	same	True
229.7	2.23	cognitive	outcomerating	8	high_cue	high_stim	65.39	Very Strong	65.39	Very Strong	0.28	3.21	task-social/outcomerating/task-cognitive_scale.png	n/a	n/a	n/a	n/a	n/a	n/a	n/a	n/a
234.59	0.99	cognitive	cue	9	low_cue	n/a	n/a	n/a	n/a	n/a	n/a	n/a	task-social/cue/runtype-cognitive/scl/l028.png	n/a	n/a	n/a	n/a	n/a	n/a	n/a	n/a
237.69	2.6	cognitive	expectrating	9	low_cue	n/a	44.67	Strong	44.67	Strong	0.33	2.27	task-social/cue/runtype-cognitive/scl/l028.png	n/a	n/a	n/a	n/a	n/a	n/a	n/a	n/a
252.5	5.0	cognitive	stimulus	9	low_cue	low_stim	n/a	n/a	n/a	n/a	n/a	n/a	task-social/stim/runtype-cognitive/19_50.jpg	n/a	n/a	n/a	n/a	n/a	same	same	True
265.1	2.94	cognitive	outcomerating	9	low_cue	low_stim	11.81	Moderate	11.81	Moderate	0.33	2.27	task-social/outcomerating/task-cognitive_scale.png	n/a	n/a	n/a	n/a	n/a	n/a	n/a	n/a
270.99	1.0	cognitive	cue	10	low_cue	n/a	n/a	n/a	n/a	n/a	n/a	n/a	task-social/cue/runtype-cognitive/scl/l043.png	n/a	n/a	n/a	n/a	n/a	n/a	n/a	n/a
274.1	1.22	cognitive	expectrating	10	low_cue	n/a	0.0	n/a	0.0	n/a	0.05	1.17	task-social/cue/runtype-cognitive/scl/l043.png	n/a	n/a	n/a	n/a	n/a	n/a	n/a	n/a
285.39	5.0	cognitive	stimulus	10	low_cue	med_stim	n/a	n/a	n/a	n/a	n/a	n/a	task-social/stim/runtype-cognitive/1_100.jpg	n/a	n/a	n/a	n/a	n/a	same	same	True
296.6	3.19	cognitive	outcomerating	10	low_cue	med_stim	9.24	Weak	9.24	Weak	0.05	1.17	task-social/outcomerating/task-cognitive_scale.png	n/a	n/a	n/a	n/a	n/a	n/a	n/a	n/a
317.59	0.99	cognitive	cue	11	low_cue	n/a	n/a	n/a	n/a	n/a	n/a	n/a	task-social/cue/runtype-cognitive/scl/l009.png	n/a	n/a	n/a	n/a	n/a	n/a	n/a	n/a
320.0	1.85	cognitive	expectrating	11	low_cue	n/a	0.0	n/a	0.0	n/a	0.33	1.52	task-social/cue/runtype-cognitive/scl/l009.png	n/a	n/a	n/a	n/a	n/a	n/a	n/a	n/a
327.39	5.0	cognitive	stimulus	11	low_cue	high_stim	n/a	n/a	n/a	n/a	n/a	n/a	task-social/stim/runtype-cognitive/35_150.jpg	n/a	n/a	n/a	n/a	n/a	same	same	True
337.09	2.53	cognitive	outcomerating	11	low_cue	high_stim	11.85	Moderate	11.85	Moderate	0.33	1.52	task-social/outcomerating/task-cognitive_scale.png	n/a	n/a	n/a	n/a	n/a	n/a	n/a	n/a
358.1	0.98	cognitive	cue	12	high_cue	n/a	n/a	n/a	n/a	n/a	n/a	n/a	task-social/cue/runtype-cognitive/sch/h030.png	n/a	n/a	n/a	n/a	n/a	n/a	n/a	n/a
361.2	2.25	cognitive	expectrating	12	high_cue	n/a	52.67	Strong	52.67	Strong	0.35	1.9	task-social/cue/runtype-cognitive/sch/h030.png	n/a	n/a	n/a	n/a	n/a	n/a	n/a	n/a
377.49	5.0	cognitive	stimulus	12	high_cue	med_stim	n/a	n/a	n/a	n/a	n/a	n/a	task-social/stim/runtype-cognitive/20_100.jpg	n/a	n/a	n/a	n/a	n/a	same	same	True
394.1	n/a	cognitive	outcomerating	12	high_cue	med_stim	n/a	n/a	3.91	Weak	0.35	1.9	task-social/outcomerating/task-cognitive_scale.png	n/a	n/a	n/a	n/a	n/a	n/a	n/a	n/a
