onset	duration	trial_type	response_angle	response_label	block_condition	mentalizing_level	stim_file_TODO
2.805	3.144	cue	n/a	n/a	mentalizing	remember	n/a
5.949	5.51	video	n/a	n/a	mentalizing	remember	task-shortvideo/ses-03_run-01_order-15_content-giving.mp4
11.542	3.6	rating	9.54	Weak	mentalizing	remember	n/a
13.959	1.183	rating_mouse_trajectory	9.54	Weak	mentalizing	remember	n/a
16.627	5.219	video	n/a	n/a	mentalizing	remember	task-shortvideo/ses-03_run-01_order-10_content-captureflag.mp4
21.912	1.884	rating	38.1	Strong	mentalizing	remember	n/a
22.012	1.784	rating_mouse_trajectory	38.1	Strong	mentalizing	remember	n/a
27.017	5.562	video	n/a	n/a	mentalizing	remember	task-shortvideo/ses-03_run-01_order-11_content-menrunning.mp4
32.633	2.468	rating	10.63	Moderate	mentalizing	remember	n/a
34.133	0.968	rating_mouse_trajectory	10.63	Moderate	mentalizing	remember	n/a
37.652	3.153	cue	n/a	n/a	similarity	n/a	n/a
40.804	5.184	video	n/a	n/a	similarity	n/a	task-shortvideo/ses-03_run-01_order-09_content-knifegame.mp4
46.071	2.201	rating	34.97	Strong	similarity	n/a	n/a
46.438	1.834	rating_mouse_trajectory	34.97	Strong	similarity	n/a	n/a
51.17	5.559	video	n/a	n/a	similarity	n/a	task-shortvideo/ses-03_run-01_order-11_content-menrunning.mp4
56.792	2.687	rating	60.71	Strong	similarity	n/a	n/a
56.859	2.62	rating_mouse_trajectory	60.71	Strong	similarity	n/a	n/a
61.868	5.395	video	n/a	n/a	similarity	n/a	task-shortvideo/ses-03_run-01_order-19_content-beatbox.mp4
67.329	1.535	rating	9.27	Weak	similarity	n/a	n/a
67.663	1.201	rating_mouse_trajectory	9.27	Weak	similarity	n/a	n/a
72.348	3.133	cue	n/a	n/a	likeability	n/a	n/a
75.481	5.304	video	n/a	n/a	likeability	n/a	task-shortvideo/ses-03_run-01_order-07_content-youth.mp4
80.834	1.451	rating	51.71	Strong	likeability	n/a	n/a
81.101	1.185	rating_mouse_trajectory	51.71	Strong	likeability	n/a	n/a
85.915	5.223	video	n/a	n/a	likeability	n/a	task-shortvideo/ses-03_run-01_order-10_content-captureflag.mp4
91.188	2.041	rating	32.78	Strong	likeability	n/a	n/a
92.155	1.074	rating_mouse_trajectory	32.78	Strong	likeability	n/a	n/a
96.337	6.675	video	n/a	n/a	likeability	n/a	task-shortvideo/ses-03_run-01_order-02_content-HB.mp4
103.076	2.053	rating	5.11	Weak	likeability	n/a	n/a
103.359	1.769	rating_mouse_trajectory	5.11	Weak	likeability	n/a	n/a
108.095	3.163	cue	n/a	n/a	similarity	n/a	n/a
111.257	5.557	video	n/a	n/a	similarity	n/a	task-shortvideo/ses-03_run-01_order-20_content-cupstacking.mp4
116.881	2.551	rating	43.8	Strong	similarity	n/a	n/a
117.215	2.218	rating_mouse_trajectory	43.8	Strong	similarity	n/a	n/a
122.002	5.327	video	n/a	n/a	similarity	n/a	task-shortvideo/ses-03_run-01_order-18_content-angrygrandpa.mp4
127.385	1.794	rating	12.75	Moderate	similarity	n/a	n/a
127.635	1.544	rating_mouse_trajectory	12.75	Moderate	similarity	n/a	n/a
132.492	4.08	video	n/a	n/a	similarity	n/a	task-shortvideo/ses-03_run-01_order-05_content-parkour.mp4
136.639	3.624	rating	45.5	Strong	similarity	n/a	n/a
137.672	2.59	rating_mouse_trajectory	45.5	Strong	similarity	n/a	n/a
141.674	3.133	cue	n/a	n/a	mentalizing	danger	n/a
144.807	5.304	video	n/a	n/a	mentalizing	danger	task-shortvideo/ses-03_run-01_order-07_content-youth.mp4
150.177	2.869	rating	14.04	Moderate	mentalizing	danger	n/a
152.01	1.035	rating_mouse_trajectory	14.04	Moderate	mentalizing	danger	n/a
155.312	5.102	video	n/a	n/a	mentalizing	danger	task-shortvideo/ses-03_run-01_order-06_content-war.mp4
160.481	3.501	rating	46.37	Strong	mentalizing	danger	n/a
161.297	2.685	rating_mouse_trajectory	46.37	Strong	mentalizing	danger	n/a
165.594	6.352	video	n/a	n/a	mentalizing	danger	task-shortvideo/ses-03_run-01_order-17_content-freesolo.mp4
172.002	1.244	rating	43.22	Strong	mentalizing	danger	n/a
172.402	0.844	rating_mouse_trajectory	43.22	Strong	mentalizing	danger	n/a
177.037	3.144	cue	n/a	n/a	likeability	n/a	n/a
180.181	5.049	video	n/a	n/a	likeability	n/a	task-shortvideo/ses-03_run-01_order-01_content-visswar.mp4
185.29	2.272	rating	24.61	Moderate	likeability	n/a	n/a
185.473	2.089	rating_mouse_trajectory	24.61	Moderate	likeability	n/a	n/a
190.39	5.556	video	n/a	n/a	likeability	n/a	task-shortvideo/ses-03_run-01_order-11_content-menrunning.mp4
196.027	2.968	rating	54.23	Strong	likeability	n/a	n/a
196.361	2.635	rating_mouse_trajectory	54.23	Strong	likeability	n/a	n/a
201.152	5.027	video	n/a	n/a	likeability	n/a	task-shortvideo/ses-03_run-01_order-21_content-iceblock.mp4
206.248	2.951	rating	46.11	Strong	likeability	n/a	n/a
206.998	2.201	rating_mouse_trajectory	46.11	Strong	likeability	n/a	n/a
211.266	3.126	cue	n/a	n/a	mentalizing	tired	n/a
214.393	6.194	video	n/a	n/a	mentalizing	tired	task-shortvideo/ses-03_run-01_order-08_content-dancewithdeath.mp4
220.653	4.118	rating	15.88	Moderate	mentalizing	tired	n/a
222.803	1.968	rating_mouse_trajectory	15.88	Moderate	mentalizing	tired	n/a
225.771	5.558	video	n/a	n/a	mentalizing	tired	task-shortvideo/ses-03_run-01_order-20_content-cupstacking.mp4
231.391	2.422	rating	5.78	Weak	mentalizing	tired	n/a
232.274	1.538	rating_mouse_trajectory	5.78	Weak	mentalizing	tired	n/a
236.498	4.997	video	n/a	n/a	mentalizing	tired	task-shortvideo/ses-03_run-01_order-12_content-photography.mp4
241.561	2.168	rating	24.1	Moderate	mentalizing	tired	n/a
242.044	1.684	rating_mouse_trajectory	24.1	Moderate	mentalizing	tired	n/a
246.58	3.149	cue	n/a	n/a	likeability	n/a	n/a
249.728	4.071	video	n/a	n/a	likeability	n/a	task-shortvideo/ses-03_run-01_order-05_content-parkour.mp4
253.866	2.218	rating	30.49	Strong	likeability	n/a	n/a
254.582	1.501	rating_mouse_trajectory	30.49	Strong	likeability	n/a	n/a
258.937	5.508	video	n/a	n/a	likeability	n/a	task-shortvideo/ses-03_run-01_order-15_content-giving.mp4
264.503	2.593	rating	52.49	Strong	likeability	n/a	n/a
264.903	2.193	rating_mouse_trajectory	52.49	Strong	likeability	n/a	n/a
269.605	6.341	video	n/a	n/a	likeability	n/a	task-shortvideo/ses-03_run-01_order-17_content-freesolo.mp4
276.007	2.222	rating	64.57	Very strong	likeability	n/a	n/a
276.391	1.839	rating_mouse_trajectory	64.57	Very strong	likeability	n/a	n/a
281.026	3.132	cue	n/a	n/a	similarity	n/a	n/a
284.158	5.838	video	n/a	n/a	similarity	n/a	task-shortvideo/ses-03_run-01_order-03_content-bestfriendsweating.mp4
290.062	2.301	rating	20.9	Moderate	similarity	n/a	n/a
290.112	2.251	rating_mouse_trajectory	20.9	Moderate	similarity	n/a	n/a
295.176	6.352	video	n/a	n/a	similarity	n/a	task-shortvideo/ses-03_run-01_order-17_content-freesolo.mp4
301.583	2.668	rating	42.64	Strong	similarity	n/a	n/a
301.65	2.601	rating_mouse_trajectory	42.64	Strong	similarity	n/a	n/a
306.708	5.171	video	n/a	n/a	similarity	n/a	task-shortvideo/ses-03_run-01_order-13_content-wanderers.mp4
311.954	1.958	rating	42.37	Strong	similarity	n/a	n/a
312.487	1.425	rating_mouse_trajectory	42.37	Strong	similarity	n/a	n/a
316.973	3.141	cue	n/a	n/a	mentalizing	heights	n/a
320.113	5.846	video	n/a	n/a	mentalizing	heights	task-shortvideo/ses-03_run-01_order-03_content-bestfriendsweating.mp4
326.026	4.52	rating	40.06	Strong	mentalizing	heights	n/a
327.043	3.503	rating_mouse_trajectory	40.06	Strong	mentalizing	heights	n/a
331.161	5.186	video	n/a	n/a	mentalizing	heights	task-shortvideo/ses-03_run-01_order-09_content-knifegame.mp4
336.413	3.101	rating	14.38	Moderate	mentalizing	heights	n/a
337.113	2.401	rating_mouse_trajectory	14.38	Moderate	mentalizing	heights	n/a
341.524	5.01	video	n/a	n/a	mentalizing	heights	task-shortvideo/ses-03_run-01_order-21_content-iceblock.mp4
346.6	2.868	rating	9.65	Weak	mentalizing	heights	n/a
347.384	2.085	rating_mouse_trajectory	9.65	Weak	mentalizing	heights	n/a
351.619	3.122	cue	n/a	n/a	similarity	n/a	n/a
354.741	5.799	video	n/a	n/a	similarity	n/a	task-shortvideo/ses-03_run-01_order-16_content-huggingpets.mp4
360.589	3.277	rating	44.64	Strong	similarity	n/a	n/a
361.072	2.793	rating_mouse_trajectory	44.64	Strong	similarity	n/a	n/a
365.672	6.19	video	n/a	n/a	similarity	n/a	task-shortvideo/ses-03_run-01_order-08_content-dancewithdeath.mp4
371.926	3.819	rating	21.9	Moderate	similarity	n/a	n/a
372.676	3.069	rating_mouse_trajectory	21.9	Moderate	similarity	n/a	n/a
377.001	5.296	video	n/a	n/a	similarity	n/a	task-shortvideo/ses-03_run-01_order-07_content-youth.mp4
382.364	3.485	rating	40.34	Strong	similarity	n/a	n/a
383.33	2.518	rating_mouse_trajectory	40.34	Strong	similarity	n/a	n/a
387.382	3.168	cue	n/a	n/a	mentalizing	angry	n/a
390.55	5.179	video	n/a	n/a	mentalizing	angry	task-shortvideo/ses-03_run-01_order-13_content-wanderers.mp4
395.785	2.58	rating	6.03	Weak	mentalizing	angry	n/a
396.985	1.38	rating_mouse_trajectory	6.03	Weak	mentalizing	angry	n/a
400.89	4.083	video	n/a	n/a	mentalizing	angry	task-shortvideo/ses-03_run-01_order-05_content-parkour.mp4
405.039	2.274	rating	23.79	Moderate	mentalizing	angry	n/a
405.939	1.374	rating_mouse_trajectory	23.79	Moderate	mentalizing	angry	n/a
410.181	6.682	video	n/a	n/a	mentalizing	angry	task-shortvideo/ses-03_run-01_order-02_content-HB.mp4
416.943	3.503	rating	66.14	Very strong	mentalizing	angry	n/a
417.593	2.853	rating_mouse_trajectory	66.14	Very strong	mentalizing	angry	n/a
421.978	3.112	cue	n/a	n/a	similarity	n/a	n/a
425.091	5.508	video	n/a	n/a	similarity	n/a	task-shortvideo/ses-03_run-01_order-15_content-giving.mp4
430.665	2.401	rating	29.77	Strong	similarity	n/a	n/a
430.832	2.235	rating_mouse_trajectory	29.77	Strong	similarity	n/a	n/a
435.762	6.124	video	n/a	n/a	similarity	n/a	task-shortvideo/ses-03_run-01_order-14_content-alwaysafamily.mp4
441.952	3.285	rating	43.23	Strong	similarity	n/a	n/a
442.736	2.502	rating_mouse_trajectory	43.23	Strong	similarity	n/a	n/a
447.069	5.01	video	n/a	n/a	similarity	n/a	task-shortvideo/ses-03_run-01_order-21_content-iceblock.mp4
452.156	3.173	rating	24.89	Moderate	similarity	n/a	n/a
452.44	2.89	rating_mouse_trajectory	24.89	Moderate	similarity	n/a	n/a
457.175	3.147	cue	n/a	n/a	likeability	n/a	n/a
460.322	5.191	video	n/a	n/a	likeability	n/a	task-shortvideo/ses-03_run-01_order-09_content-knifegame.mp4
465.595	2.785	rating	14.48	Moderate	likeability	n/a	n/a
465.795	2.585	rating_mouse_trajectory	14.48	Moderate	likeability	n/a	n/a
470.666	5.799	video	n/a	n/a	likeability	n/a	task-shortvideo/ses-03_run-01_order-16_content-huggingpets.mp4
476.532	2.401	rating	34.5	Strong	likeability	n/a	n/a
476.865	2.068	rating_mouse_trajectory	34.5	Strong	likeability	n/a	n/a
481.638	6.841	video	n/a	n/a	likeability	n/a	task-shortvideo/ses-03_run-01_order-04_content-unefille.mp4
488.536	4.192	rating	36.1	Strong	likeability	n/a	n/a
489.22	3.509	rating_mouse_trajectory	36.1	Strong	likeability	n/a	n/a
493.555	3.138	cue	n/a	n/a	mentalizing	calm	n/a
496.693	6.836	video	n/a	n/a	mentalizing	calm	task-shortvideo/ses-03_run-01_order-04_content-unefille.mp4
503.592	3.887	rating	74.58	Very strong	mentalizing	calm	n/a
504.275	3.204	rating_mouse_trajectory	74.58	Very strong	mentalizing	calm	n/a
508.666	5.797	video	n/a	n/a	mentalizing	calm	task-shortvideo/ses-03_run-01_order-16_content-huggingpets.mp4
514.53	2.318	rating	58.99	Strong	mentalizing	calm	n/a
514.863	1.984	rating_mouse_trajectory	58.99	Strong	mentalizing	calm	n/a
519.644	5.051	video	n/a	n/a	mentalizing	calm	task-shortvideo/ses-03_run-01_order-01_content-visswar.mp4
524.75	2.601	rating	40.89	Strong	mentalizing	calm	n/a
525.0	2.351	rating_mouse_trajectory	40.89	Strong	mentalizing	calm	n/a
529.785	3.134	cue	n/a	n/a	likeability	n/a	n/a
532.92	5.836	video	n/a	n/a	likeability	n/a	task-shortvideo/ses-03_run-01_order-03_content-bestfriendsweating.mp4
538.805	2.857	rating	42.12	Strong	likeability	n/a	n/a
539.189	2.474	rating_mouse_trajectory	42.12	Strong	likeability	n/a	n/a
543.908	6.121	video	n/a	n/a	likeability	n/a	task-shortvideo/ses-03_run-01_order-14_content-alwaysafamily.mp4
550.093	2.419	rating	62.83	Strong	likeability	n/a	n/a
550.143	2.369	rating_mouse_trajectory	62.83	Strong	likeability	n/a	n/a
555.217	5.164	video	n/a	n/a	likeability	n/a	task-shortvideo/ses-03_run-01_order-13_content-wanderers.mp4
560.447	2.785	rating	58.87	Strong	likeability	n/a	n/a
560.497	2.735	rating_mouse_trajectory	58.87	Strong	likeability	n/a	n/a
565.482	3.143	cue	n/a	n/a	similarity	n/a	n/a
568.624	5.044	video	n/a	n/a	similarity	n/a	task-shortvideo/ses-03_run-01_order-01_content-visswar.mp4
573.735	2.518	rating	4.36	Weak	similarity	n/a	n/a
573.802	2.451	rating_mouse_trajectory	4.36	Weak	similarity	n/a	n/a
578.828	5.001	video	n/a	n/a	similarity	n/a	task-shortvideo/ses-03_run-01_order-12_content-photography.mp4
583.889	2.657	rating	11.85	Moderate	similarity	n/a	n/a
584.239	2.307	rating_mouse_trajectory	11.85	Moderate	similarity	n/a	n/a
588.969	5.226	video	n/a	n/a	similarity	n/a	task-shortvideo/ses-03_run-01_order-10_content-captureflag.mp4
594.259	2.753	rating	36.2	Strong	similarity	n/a	n/a
594.509	2.503	rating_mouse_trajectory	36.2	Strong	similarity	n/a	n/a
599.278	3.188	cue	n/a	n/a	likeability	n/a	n/a
602.466	5.115	video	n/a	n/a	likeability	n/a	task-shortvideo/ses-03_run-01_order-06_content-war.mp4
607.648	2.935	rating	45.7	Strong	likeability	n/a	n/a
608.431	2.151	rating_mouse_trajectory	45.7	Strong	likeability	n/a	n/a
612.731	6.198	video	n/a	n/a	likeability	n/a	task-shortvideo/ses-03_run-01_order-08_content-dancewithdeath.mp4
618.985	2.594	rating	35.51	Strong	likeability	n/a	n/a
619.402	2.177	rating_mouse_trajectory	35.51	Strong	likeability	n/a	n/a
624.1	5.563	video	n/a	n/a	likeability	n/a	task-shortvideo/ses-03_run-01_order-20_content-cupstacking.mp4
629.722	3.223	rating	48.35	Strong	likeability	n/a	n/a
630.706	2.24	rating_mouse_trajectory	48.35	Strong	likeability	n/a	n/a
634.741	3.182	cue	n/a	n/a	similarity	n/a	n/a
637.923	6.689	video	n/a	n/a	similarity	n/a	task-shortvideo/ses-03_run-01_order-02_content-HB.mp4
644.678	2.251	rating	8.0	Weak	similarity	n/a	n/a
645.161	1.768	rating_mouse_trajectory	8.0	Weak	similarity	n/a	n/a
649.774	6.842	video	n/a	n/a	similarity	n/a	task-shortvideo/ses-03_run-01_order-04_content-unefille.mp4
656.683	3.151	rating	22.12	Moderate	similarity	n/a	n/a
657.299	2.535	rating_mouse_trajectory	22.12	Moderate	similarity	n/a	n/a
661.817	5.112	video	n/a	n/a	similarity	n/a	task-shortvideo/ses-03_run-01_order-06_content-war.mp4
667.003	4.018	rating	21.71	Moderate	similarity	n/a	n/a
668.086	2.935	rating_mouse_trajectory	21.71	Moderate	similarity	n/a	n/a
672.038	3.147	cue	n/a	n/a	likeability	n/a	n/a
675.186	5.006	video	n/a	n/a	likeability	n/a	task-shortvideo/ses-03_run-01_order-12_content-photography.mp4
680.258	2.938	rating	46.06	Strong	likeability	n/a	n/a
680.591	2.604	rating_mouse_trajectory	46.06	Strong	likeability	n/a	n/a
685.326	5.387	video	n/a	n/a	likeability	n/a	task-shortvideo/ses-03_run-01_order-19_content-beatbox.mp4
690.779	2.735	rating	56.45	Strong	likeability	n/a	n/a
691.345	2.168	rating_mouse_trajectory	56.45	Strong	likeability	n/a	n/a
695.883	5.333	video	n/a	n/a	likeability	n/a	task-shortvideo/ses-03_run-01_order-18_content-angrygrandpa.mp4
701.283	2.001	rating	50.39	Strong	likeability	n/a	n/a
701.599	1.684	rating_mouse_trajectory	50.39	Strong	likeability	n/a	n/a
706.301	3.151	cue	n/a	n/a	mentalizing	enjoy	n/a
709.452	6.127	video	n/a	n/a	mentalizing	enjoy	task-shortvideo/ses-03_run-01_order-14_content-alwaysafamily.mp4
715.638	3.408	rating	12.13	Moderate	mentalizing	enjoy	n/a
717.221	1.825	rating_mouse_trajectory	12.13	Moderate	mentalizing	enjoy	n/a
720.714	5.395	video	n/a	n/a	mentalizing	enjoy	task-shortvideo/ses-03_run-01_order-19_content-beatbox.mp4
726.175	2.487	rating	100.44	Strongest possible	mentalizing	enjoy	n/a
726.858	1.804	rating_mouse_trajectory	100.44	Strongest possible	mentalizing	enjoy	n/a
731.292	5.321	video	n/a	n/a	mentalizing	enjoy	task-shortvideo/ses-03_run-01_order-18_content-angrygrandpa.mp4
736.679	3.085	rating	92.82	Very strong	mentalizing	enjoy	n/a
737.362	2.401	rating_mouse_trajectory	92.82	Very strong	mentalizing	enjoy	n/a
