onset	duration	run_type	trial_type	trial_index	cue	stimulusintensity	rating_value	rating_glmslabel	rating_value_fillna	rating_glmslabel_fillna	rating_mouseonset	rating_mousedur	stim_file	pain_onset_ttl1	pain_onset_ttl2	pain_onset_ttl3	pain_onset_ttl4	pain_stimulus_delivery_success	cognitive_correct_response	cognitive_participant_response	cognitive_response_accuracy
7.88	1.0	pain	cue	1	high_cue	n/a	n/a	n/a	n/a	n/a	n/a	n/a	task-social/cue/runtype-pain/sch/h026.png	n/a	n/a	n/a	n/a	n/a	n/a	n/a	n/a
10.1	2.63	pain	expectrating	1	high_cue	n/a	23.89	Moderate	23.89	Moderate	0.55	2.08	task-social/cue/runtype-pain/sch/h026.png	n/a	n/a	n/a	n/a	n/a	n/a	n/a	n/a
18.85	11.899999999999999	pain	stimulus	1	high_cue	low_stim	n/a	n/a	n/a	n/a	n/a	n/a	n/a	18.85	22.35	27.35	30.75	success	n/a	n/a	n/a
32.99	1.61	pain	outcomerating	1	high_cue	low_stim	12.26	Moderate	12.26	Moderate	0.55	2.08	task-social/outcomerating/task-pain_scale.png	n/a	n/a	n/a	n/a	success	n/a	n/a	n/a
37.6	1.0	pain	cue	2	low_cue	n/a	n/a	n/a	n/a	n/a	n/a	n/a	task-social/cue/runtype-pain/scl/l010.png	n/a	n/a	n/a	n/a	n/a	n/a	n/a	n/a
40.0	3.44	pain	expectrating	2	low_cue	n/a	21.59	Moderate	21.59	Moderate	0.08	3.35	task-social/cue/runtype-pain/scl/l010.png	n/a	n/a	n/a	n/a	n/a	n/a	n/a	n/a
45.43	12.36	pain	stimulus	2	low_cue	med_stim	n/a	n/a	n/a	n/a	n/a	n/a	n/a	45.43	49.19	54.19	57.8	success	n/a	n/a	n/a
57.49	3.1	pain	outcomerating	2	low_cue	med_stim	20.48	Moderate	20.48	Moderate	0.08	3.35	task-social/outcomerating/task-pain_scale.png	n/a	n/a	n/a	n/a	success	n/a	n/a	n/a
66.69	1.0	pain	cue	3	high_cue	n/a	n/a	n/a	n/a	n/a	n/a	n/a	task-social/cue/runtype-pain/sch/h056.png	n/a	n/a	n/a	n/a	n/a	n/a	n/a	n/a
68.89	2.09	pain	expectrating	3	high_cue	n/a	39.45	Strong	39.45	Strong	0.45	1.64	task-social/cue/runtype-pain/sch/h056.png	n/a	n/a	n/a	n/a	n/a	n/a	n/a	n/a
79.92	11.909999999999997	pain	stimulus	3	high_cue	low_stim	n/a	n/a	n/a	n/a	n/a	n/a	n/a	79.92	83.42	88.42	91.82	success	n/a	n/a	n/a
90.4	2.5	pain	outcomerating	3	high_cue	low_stim	5.05	Weak	5.05	Weak	0.45	1.64	task-social/outcomerating/task-pain_scale.png	n/a	n/a	n/a	n/a	success	n/a	n/a	n/a
95.48	1.0	pain	cue	4	low_cue	n/a	n/a	n/a	n/a	n/a	n/a	n/a	task-social/cue/runtype-pain/scl/l044.png	n/a	n/a	n/a	n/a	n/a	n/a	n/a	n/a
98.99	2.32	pain	expectrating	4	low_cue	n/a	2.31	Barely-detectable	2.31	Barely-detectable	0.42	1.9	task-social/cue/runtype-pain/scl/l044.png	n/a	n/a	n/a	n/a	n/a	n/a	n/a	n/a
105.62	12.36999999999999	pain	stimulus	4	low_cue	med_stim	n/a	n/a	n/a	n/a	n/a	n/a	n/a	105.62	109.38	114.38	117.99	success	n/a	n/a	n/a
120.79	2.19	pain	outcomerating	4	low_cue	med_stim	6.47	Weak	6.47	Weak	0.42	1.9	task-social/outcomerating/task-pain_scale.png	n/a	n/a	n/a	n/a	success	n/a	n/a	n/a
125.9	1.0	pain	cue	5	high_cue	n/a	n/a	n/a	n/a	n/a	n/a	n/a	task-social/cue/runtype-pain/sch/h049.png	n/a	n/a	n/a	n/a	n/a	n/a	n/a	n/a
127.6	2.65	pain	expectrating	5	high_cue	n/a	28.21	Moderate	28.21	Moderate	1.3	1.35	task-social/cue/runtype-pain/sch/h049.png	n/a	n/a	n/a	n/a	n/a	n/a	n/a	n/a
132.23	12.820000000000022	pain	stimulus	5	high_cue	high_stim	n/a	n/a	n/a	n/a	n/a	n/a	n/a	132.23	136.24	141.24	145.05	success	n/a	n/a	n/a
147.39	2.67	pain	outcomerating	5	high_cue	high_stim	14.93	Moderate	14.93	Moderate	1.3	1.35	task-social/outcomerating/task-pain_scale.png	n/a	n/a	n/a	n/a	success	n/a	n/a	n/a
151.99	1.0	pain	cue	6	low_cue	n/a	n/a	n/a	n/a	n/a	n/a	n/a	task-social/cue/runtype-pain/scl/l043.png	n/a	n/a	n/a	n/a	n/a	n/a	n/a	n/a
155.49	1.49	pain	expectrating	6	low_cue	n/a	23.75	Moderate	23.75	Moderate	0.4	1.09	task-social/cue/runtype-pain/scl/l043.png	n/a	n/a	n/a	n/a	n/a	n/a	n/a	n/a
167.71	11.909999999999997	pain	stimulus	6	low_cue	low_stim	n/a	n/a	n/a	n/a	n/a	n/a	n/a	167.71	171.21	176.21	179.61	success	n/a	n/a	n/a
181.9	2.67	pain	outcomerating	6	low_cue	low_stim	10.41	Moderate	10.41	Moderate	0.4	1.09	task-social/outcomerating/task-pain_scale.png	n/a	n/a	n/a	n/a	success	n/a	n/a	n/a
187.48	1.0	pain	cue	7	low_cue	n/a	n/a	n/a	n/a	n/a	n/a	n/a	task-social/cue/runtype-pain/scl/l055.png	n/a	n/a	n/a	n/a	n/a	n/a	n/a	n/a
189.69	2.47	pain	expectrating	7	low_cue	n/a	5.3	Weak	5.3	Weak	0.92	1.55	task-social/cue/runtype-pain/scl/l055.png	n/a	n/a	n/a	n/a	n/a	n/a	n/a	n/a
201.92	12.820000000000022	pain	stimulus	7	low_cue	high_stim	n/a	n/a	n/a	n/a	n/a	n/a	n/a	201.92	205.93	210.93	214.74	success	n/a	n/a	n/a
217.2	2.49	pain	outcomerating	7	low_cue	high_stim	25.64	Moderate	25.64	Moderate	0.92	1.55	task-social/outcomerating/task-pain_scale.png	n/a	n/a	n/a	n/a	success	n/a	n/a	n/a
223.38	1.0	pain	cue	8	low_cue	n/a	n/a	n/a	n/a	n/a	n/a	n/a	task-social/cue/runtype-pain/scl/l006.png	n/a	n/a	n/a	n/a	n/a	n/a	n/a	n/a
225.6	1.97	pain	expectrating	8	low_cue	n/a	21.93	Moderate	21.93	Moderate	0.3	1.67	task-social/cue/runtype-pain/scl/l006.png	n/a	n/a	n/a	n/a	n/a	n/a	n/a	n/a
230.21	11.909999999999997	pain	stimulus	8	low_cue	low_stim	n/a	n/a	n/a	n/a	n/a	n/a	n/a	230.21	233.71	238.71	242.11	success	n/a	n/a	n/a
245.49	1.86	pain	outcomerating	8	low_cue	low_stim	8.66	Weak	8.66	Weak	0.3	1.67	task-social/outcomerating/task-pain_scale.png	n/a	n/a	n/a	n/a	success	n/a	n/a	n/a
259.29	1.0	pain	cue	9	high_cue	n/a	n/a	n/a	n/a	n/a	n/a	n/a	task-social/cue/runtype-pain/sch/h005.png	n/a	n/a	n/a	n/a	n/a	n/a	n/a	n/a
262.8	1.69	pain	expectrating	9	high_cue	n/a	17.34	Moderate	17.34	Moderate	0.3	1.39	task-social/cue/runtype-pain/sch/h005.png	n/a	n/a	n/a	n/a	n/a	n/a	n/a	n/a
269.43	12.829999999999984	pain	stimulus	9	high_cue	high_stim	n/a	n/a	n/a	n/a	n/a	n/a	n/a	269.43	273.44	278.44	282.25	success	n/a	n/a	n/a
281.49	2.98	pain	outcomerating	9	high_cue	high_stim	36.04	Strong	36.04	Strong	0.3	1.39	task-social/outcomerating/task-pain_scale.png	n/a	n/a	n/a	n/a	success	n/a	n/a	n/a
291.69	1.0	pain	cue	10	low_cue	n/a	n/a	n/a	n/a	n/a	n/a	n/a	task-social/cue/runtype-pain/scl/l009.png	n/a	n/a	n/a	n/a	n/a	n/a	n/a	n/a
294.09	3.99	pain	expectrating	10	low_cue	n/a	15.32	Moderate	15.32	Moderate	1.3	2.69	task-social/cue/runtype-pain/scl/l009.png	n/a	n/a	n/a	n/a	n/a	n/a	n/a	n/a
299.71	12.819999999999993	pain	stimulus	10	low_cue	high_stim	n/a	n/a	n/a	n/a	n/a	n/a	n/a	299.71	303.72	308.72	312.53	success	n/a	n/a	n/a
310.2	2.7	pain	outcomerating	10	low_cue	high_stim	36.04	Strong	36.04	Strong	1.3	2.69	task-social/outcomerating/task-pain_scale.png	n/a	n/a	n/a	n/a	success	n/a	n/a	n/a
328.69	1.0	pain	cue	11	high_cue	n/a	n/a	n/a	n/a	n/a	n/a	n/a	task-social/cue/runtype-pain/sch/h010.png	n/a	n/a	n/a	n/a	n/a	n/a	n/a	n/a
331.09	2.28	pain	expectrating	11	high_cue	n/a	51.02	Strong	51.02	Strong	0.37	1.91	task-social/cue/runtype-pain/sch/h010.png	n/a	n/a	n/a	n/a	n/a	n/a	n/a	n/a
344.84	12.370000000000005	pain	stimulus	11	high_cue	med_stim	n/a	n/a	n/a	n/a	n/a	n/a	n/a	344.84	348.6	353.6	357.21	success	n/a	n/a	n/a
359.8	2.98	pain	outcomerating	11	high_cue	med_stim	16.55	Moderate	16.55	Moderate	0.37	1.91	task-social/outcomerating/task-pain_scale.png	n/a	n/a	n/a	n/a	success	n/a	n/a	n/a
369.59	1.0	pain	cue	12	high_cue	n/a	n/a	n/a	n/a	n/a	n/a	n/a	task-social/cue/runtype-pain/sch/h050.png	n/a	n/a	n/a	n/a	n/a	n/a	n/a	n/a
371.59	2.67	pain	expectrating	12	high_cue	n/a	21.12	Moderate	21.12	Moderate	0.07	2.6	task-social/cue/runtype-pain/sch/h050.png	n/a	n/a	n/a	n/a	n/a	n/a	n/a	n/a
382.63	12.360000000000014	pain	stimulus	12	high_cue	med_stim	n/a	n/a	n/a	n/a	n/a	n/a	n/a	382.63	386.39	391.39	395.0	success	n/a	n/a	n/a
394.8	3.05	pain	outcomerating	12	high_cue	med_stim	14.93	Moderate	14.93	Moderate	0.07	2.6	task-social/outcomerating/task-pain_scale.png	n/a	n/a	n/a	n/a	success	n/a	n/a	n/a
