onset	duration	run_type	trial_type	trial_index	cue	stimulusintensity	rating_value	rating_glmslabel	rating_value_fillna	rating_glmslabel_fillna	rating_mouseonset	rating_mousedur	stim_file	pain_onset_ttl1	pain_onset_ttl2	pain_onset_ttl3	pain_onset_ttl4	pain_stimulus_delivery_success	cognitive_correct_response	cognitive_participant_response	cognitive_response_accuracy
7.9	0.98	pain	cue	1	high_cue	n/a	n/a	n/a	n/a	n/a	n/a	n/a	task-social/cue/runtype-pain/sch/h026.png	n/a	n/a	n/a	n/a	n/a	n/a	n/a	n/a
10.1	2.44	pain	expectrating	1	high_cue	n/a	86.09	Very Strong	86.09	Very Strong	0.58	1.85	task-social/cue/runtype-pain/sch/h026.png	n/a	n/a	n/a	n/a	n/a	n/a	n/a	n/a
18.85	11.899999999999999	pain	stimulus	1	high_cue	low_stim	n/a	n/a	n/a	n/a	n/a	n/a	n/a	18.85	22.35	27.35	30.75	success	n/a	n/a	n/a
32.99	2.23	pain	outcomerating	1	high_cue	low_stim	43.36	Strong	43.36	Strong	0.58	1.85	task-social/outcomerating/task-pain_scale.png	n/a	n/a	n/a	n/a	success	n/a	n/a	n/a
37.59	1.0	pain	cue	2	low_cue	n/a	n/a	n/a	n/a	n/a	n/a	n/a	task-social/cue/runtype-pain/scl/l010.png	n/a	n/a	n/a	n/a	n/a	n/a	n/a	n/a
39.99	2.06	pain	expectrating	2	low_cue	n/a	13.92	Moderate	13.92	Moderate	0.43	1.62	task-social/cue/runtype-pain/scl/l010.png	n/a	n/a	n/a	n/a	n/a	n/a	n/a	n/a
45.42	12.36	pain	stimulus	2	low_cue	med_stim	n/a	n/a	n/a	n/a	n/a	n/a	n/a	45.42	49.18	54.18	57.79	success	n/a	n/a	n/a
57.5	2.25	pain	outcomerating	2	low_cue	med_stim	40.73	Strong	40.73	Strong	0.43	1.62	task-social/outcomerating/task-pain_scale.png	n/a	n/a	n/a	n/a	success	n/a	n/a	n/a
66.68	1.0	pain	cue	3	high_cue	n/a	n/a	n/a	n/a	n/a	n/a	n/a	task-social/cue/runtype-pain/sch/h056.png	n/a	n/a	n/a	n/a	n/a	n/a	n/a	n/a
68.89	2.05	pain	expectrating	3	high_cue	n/a	99.93	Strongest sensation of any kind	99.93	Strongest sensation of any kind	0.38	1.67	task-social/cue/runtype-pain/sch/h056.png	n/a	n/a	n/a	n/a	n/a	n/a	n/a	n/a
79.94	11.900000000000006	pain	stimulus	3	high_cue	low_stim	n/a	n/a	n/a	n/a	n/a	n/a	n/a	79.94	83.44	88.44	91.84	success	n/a	n/a	n/a
90.39	2.79	pain	outcomerating	3	high_cue	low_stim	36.22	Strong	36.22	Strong	0.38	1.67	task-social/outcomerating/task-pain_scale.png	n/a	n/a	n/a	n/a	success	n/a	n/a	n/a
95.5	1.0	pain	cue	4	low_cue	n/a	n/a	n/a	n/a	n/a	n/a	n/a	task-social/cue/runtype-pain/scl/l044.png	n/a	n/a	n/a	n/a	n/a	n/a	n/a	n/a
99.0	2.37	pain	expectrating	4	low_cue	n/a	11.63	Moderate	11.63	Moderate	0.32	2.05	task-social/cue/runtype-pain/scl/l044.png	n/a	n/a	n/a	n/a	n/a	n/a	n/a	n/a
105.63	12.370000000000005	pain	stimulus	4	low_cue	med_stim	n/a	n/a	n/a	n/a	n/a	n/a	n/a	105.63	109.39	114.39	118.0	success	n/a	n/a	n/a
120.79	2.15	pain	outcomerating	4	low_cue	med_stim	51.38	Strong	51.38	Strong	0.32	2.05	task-social/outcomerating/task-pain_scale.png	n/a	n/a	n/a	n/a	success	n/a	n/a	n/a
125.89	1.0	pain	cue	5	high_cue	n/a	n/a	n/a	n/a	n/a	n/a	n/a	task-social/cue/runtype-pain/sch/h049.png	n/a	n/a	n/a	n/a	n/a	n/a	n/a	n/a
127.61	1.98	pain	expectrating	5	high_cue	n/a	71.34	Very Strong	71.34	Very Strong	0.63	1.35	task-social/cue/runtype-pain/sch/h049.png	n/a	n/a	n/a	n/a	n/a	n/a	n/a	n/a
132.24	12.819999999999993	pain	stimulus	5	high_cue	high_stim	n/a	n/a	n/a	n/a	n/a	n/a	n/a	132.24	136.25	141.25	145.06	success	n/a	n/a	n/a
147.4	2.22	pain	outcomerating	5	high_cue	high_stim	68.07	Very Strong	68.07	Very Strong	0.63	1.35	task-social/outcomerating/task-pain_scale.png	n/a	n/a	n/a	n/a	success	n/a	n/a	n/a
151.98	1.0	pain	cue	6	low_cue	n/a	n/a	n/a	n/a	n/a	n/a	n/a	task-social/cue/runtype-pain/scl/l043.png	n/a	n/a	n/a	n/a	n/a	n/a	n/a	n/a
155.48	2.17	pain	expectrating	6	low_cue	n/a	13.28	Moderate	13.28	Moderate	0.43	1.73	task-social/cue/runtype-pain/scl/l043.png	n/a	n/a	n/a	n/a	n/a	n/a	n/a	n/a
167.73	11.900000000000006	pain	stimulus	6	low_cue	low_stim	n/a	n/a	n/a	n/a	n/a	n/a	n/a	167.73	171.23	176.23	179.63	success	n/a	n/a	n/a
181.89	1.92	pain	outcomerating	6	low_cue	low_stim	29.55	Strong	29.55	Strong	0.43	1.73	task-social/outcomerating/task-pain_scale.png	n/a	n/a	n/a	n/a	success	n/a	n/a	n/a
187.5	0.98	pain	cue	7	low_cue	n/a	n/a	n/a	n/a	n/a	n/a	n/a	task-social/cue/runtype-pain/scl/l055.png	n/a	n/a	n/a	n/a	n/a	n/a	n/a	n/a
189.7	2.1	pain	expectrating	7	low_cue	n/a	17.05	Moderate	17.05	Moderate	0.33	1.77	task-social/cue/runtype-pain/scl/l055.png	n/a	n/a	n/a	n/a	n/a	n/a	n/a	n/a
201.92	12.820000000000022	pain	stimulus	7	low_cue	high_stim	n/a	n/a	n/a	n/a	n/a	n/a	n/a	201.92	205.93	210.93	214.74	success	n/a	n/a	n/a
217.19	2.34	pain	outcomerating	7	low_cue	high_stim	57.78	Strong	57.78	Strong	0.33	1.77	task-social/outcomerating/task-pain_scale.png	n/a	n/a	n/a	n/a	success	n/a	n/a	n/a
223.39	1.0	pain	cue	8	low_cue	n/a	n/a	n/a	n/a	n/a	n/a	n/a	task-social/cue/runtype-pain/scl/l006.png	n/a	n/a	n/a	n/a	n/a	n/a	n/a	n/a
225.59	2.65	pain	expectrating	8	low_cue	n/a	22.49	Moderate	22.49	Moderate	0.7	1.95	task-social/cue/runtype-pain/scl/l006.png	n/a	n/a	n/a	n/a	n/a	n/a	n/a	n/a
230.2	11.910000000000025	pain	stimulus	8	low_cue	low_stim	n/a	n/a	n/a	n/a	n/a	n/a	n/a	230.2	233.7	238.7	242.1	success	n/a	n/a	n/a
245.48	3.03	pain	outcomerating	8	low_cue	low_stim	28.63	Moderate	28.63	Moderate	0.7	1.95	task-social/outcomerating/task-pain_scale.png	n/a	n/a	n/a	n/a	success	n/a	n/a	n/a
259.29	1.0	pain	cue	9	high_cue	n/a	n/a	n/a	n/a	n/a	n/a	n/a	task-social/cue/runtype-pain/sch/h005.png	n/a	n/a	n/a	n/a	n/a	n/a	n/a	n/a
262.79	2.81	pain	expectrating	9	high_cue	n/a	48.27	Strong	48.27	Strong	0.42	2.39	task-social/cue/runtype-pain/sch/h005.png	n/a	n/a	n/a	n/a	n/a	n/a	n/a	n/a
269.44	12.819999999999993	pain	stimulus	9	high_cue	high_stim	n/a	n/a	n/a	n/a	n/a	n/a	n/a	269.44	273.45	278.45	282.26	success	n/a	n/a	n/a
281.5	1.95	pain	outcomerating	9	high_cue	high_stim	95.05	Very Strong	95.05	Very Strong	0.42	2.39	task-social/outcomerating/task-pain_scale.png	n/a	n/a	n/a	n/a	success	n/a	n/a	n/a
291.69	1.0	pain	cue	10	low_cue	n/a	n/a	n/a	n/a	n/a	n/a	n/a	task-social/cue/runtype-pain/scl/l009.png	n/a	n/a	n/a	n/a	n/a	n/a	n/a	n/a
294.09	1.83	pain	expectrating	10	low_cue	n/a	6.78	Weak	6.78	Weak	0.32	1.52	task-social/cue/runtype-pain/scl/l009.png	n/a	n/a	n/a	n/a	n/a	n/a	n/a	n/a
299.71	12.819999999999993	pain	stimulus	10	low_cue	high_stim	n/a	n/a	n/a	n/a	n/a	n/a	n/a	299.71	303.72	308.72	312.53	success	n/a	n/a	n/a
310.19	2.09	pain	outcomerating	10	low_cue	high_stim	33.88	Strong	33.88	Strong	0.32	1.52	task-social/outcomerating/task-pain_scale.png	n/a	n/a	n/a	n/a	success	n/a	n/a	n/a
328.68	1.0	pain	cue	11	high_cue	n/a	n/a	n/a	n/a	n/a	n/a	n/a	task-social/cue/runtype-pain/sch/h010.png	n/a	n/a	n/a	n/a	n/a	n/a	n/a	n/a
331.1	3.05	pain	expectrating	11	high_cue	n/a	67.34	Very Strong	67.34	Very Strong	0.7	2.35	task-social/cue/runtype-pain/sch/h010.png	n/a	n/a	n/a	n/a	n/a	n/a	n/a	n/a
344.82	12.360000000000014	pain	stimulus	11	high_cue	med_stim	n/a	n/a	n/a	n/a	n/a	n/a	n/a	344.82	348.58	353.58	357.19	success	n/a	n/a	n/a
359.79	1.75	pain	outcomerating	11	high_cue	med_stim	52.02	Strong	52.02	Strong	0.7	2.35	task-social/outcomerating/task-pain_scale.png	n/a	n/a	n/a	n/a	success	n/a	n/a	n/a
369.58	1.0	pain	cue	12	high_cue	n/a	n/a	n/a	n/a	n/a	n/a	n/a	task-social/cue/runtype-pain/sch/h050.png	n/a	n/a	n/a	n/a	n/a	n/a	n/a	n/a
371.6	3.08	pain	expectrating	12	high_cue	n/a	66.04	Very Strong	66.04	Very Strong	0.67	2.42	task-social/cue/runtype-pain/sch/h050.png	n/a	n/a	n/a	n/a	n/a	n/a	n/a	n/a
382.61	12.370000000000005	pain	stimulus	12	high_cue	med_stim	n/a	n/a	n/a	n/a	n/a	n/a	n/a	382.61	386.37	391.37	394.98	success	n/a	n/a	n/a
394.79	3.03	pain	outcomerating	12	high_cue	med_stim	46.95	Strong	46.95	Strong	0.67	2.42	task-social/outcomerating/task-pain_scale.png	n/a	n/a	n/a	n/a	success	n/a	n/a	n/a
