onset	duration	run_type	trial_type	trial_index	cue	stimulusintensity	rating_value	rating_glmslabel	rating_value_fillna	rating_glmslabel_fillna	rating_mouseonset	rating_mousedur	stim_file_TODO	pain_onset_ttl1	pain_onset_ttl2	pain_onset_ttl3	pain_onset_ttl4	pain_stimulus_delivery_success	cognitive_correct_response	cognitive_participant_response	cognitive_response_accuracy
8.01	0.98	cognitive	cue	1	low_cue	n/a	n/a	n/a	n/a	n/a	n/a	n/a	task-social/cue/runtype-cognitive/scl/l011.png	n/a	n/a	n/a	n/a	n/a	n/a	n/a	n/a
11.21	2.2	cognitive	expectrating	1	low_cue	n/a	23.84	Moderate	23.84	Moderate	0.6	1.6	task-social/cue/runtype-cognitive/scl/l011.png	n/a	n/a	n/a	n/a	n/a	n/a	n/a	n/a
21.31	5.0	cognitive	stimulus	1	low_cue	med_stim	n/a	n/a	n/a	n/a	n/a	n/a	task-social/stim/runtype-cognitive/34_100_R.jpg	n/a	n/a	n/a	n/a	n/a	diff	diff	True
33.4	2.9	cognitive	outcomerating	1	low_cue	med_stim	27.08	Moderate	27.08	Moderate	0.6	1.6	task-social/outcomerating/task-cognitive_scale.png	n/a	n/a	n/a	n/a	n/a	n/a	n/a	n/a
40.7	0.99	cognitive	cue	2	high_cue	n/a	n/a	n/a	n/a	n/a	n/a	n/a	task-social/cue/runtype-cognitive/sch/h013.png	n/a	n/a	n/a	n/a	n/a	n/a	n/a	n/a
43.6	2.33	cognitive	expectrating	2	high_cue	n/a	124.39	Strongest sensation of any kind	124.39	Strongest sensation of any kind	1.03	1.3	task-social/cue/runtype-cognitive/sch/h013.png	n/a	n/a	n/a	n/a	n/a	n/a	n/a	n/a
53.71	5.0	cognitive	stimulus	2	high_cue	low_stim	n/a	n/a	n/a	n/a	n/a	n/a	task-social/stim/runtype-cognitive/6_50.jpg	n/a	n/a	n/a	n/a	n/a	same	same	True
61.61	2.58	cognitive	outcomerating	2	high_cue	low_stim	18.51	Moderate	18.51	Moderate	1.03	1.3	task-social/outcomerating/task-cognitive_scale.png	n/a	n/a	n/a	n/a	n/a	n/a	n/a	n/a
70.8	0.99	cognitive	cue	3	high_cue	n/a	n/a	n/a	n/a	n/a	n/a	n/a	task-social/cue/runtype-cognitive/sch/h034.png	n/a	n/a	n/a	n/a	n/a	n/a	n/a	n/a
73.7	3.02	cognitive	expectrating	3	high_cue	n/a	111.63	Strongest sensation of any kind	111.63	Strongest sensation of any kind	1.68	1.34	task-social/cue/runtype-cognitive/sch/h034.png	n/a	n/a	n/a	n/a	n/a	n/a	n/a	n/a
90.91	5.0	cognitive	stimulus	3	high_cue	high_stim	n/a	n/a	n/a	n/a	n/a	n/a	task-social/stim/runtype-cognitive/4_150_R.jpg	n/a	n/a	n/a	n/a	n/a	diff	diff	True
102.91	1.97	cognitive	outcomerating	3	high_cue	high_stim	29.55	Strong	29.55	Strong	1.68	1.34	task-social/outcomerating/task-cognitive_scale.png	n/a	n/a	n/a	n/a	n/a	n/a	n/a	n/a
108.8	0.99	cognitive	cue	4	low_cue	n/a	n/a	n/a	n/a	n/a	n/a	n/a	task-social/cue/runtype-cognitive/scl/l026.png	n/a	n/a	n/a	n/a	n/a	n/a	n/a	n/a
111.61	2.77	cognitive	expectrating	4	low_cue	n/a	30.49	Strong	30.49	Strong	1.15	1.62	task-social/cue/runtype-cognitive/scl/l026.png	n/a	n/a	n/a	n/a	n/a	n/a	n/a	n/a
119.3	5.0	cognitive	stimulus	4	low_cue	med_stim	n/a	n/a	n/a	n/a	n/a	n/a	task-social/stim/runtype-cognitive/31_100_R.jpg	n/a	n/a	n/a	n/a	n/a	diff	diff	True
126.82	3.0	cognitive	outcomerating	4	low_cue	med_stim	30.37	Strong	30.37	Strong	1.15	1.62	task-social/outcomerating/task-cognitive_scale.png	n/a	n/a	n/a	n/a	n/a	n/a	n/a	n/a
134.11	0.99	cognitive	cue	5	high_cue	n/a	n/a	n/a	n/a	n/a	n/a	n/a	task-social/cue/runtype-cognitive/sch/h041.png	n/a	n/a	n/a	n/a	n/a	n/a	n/a	n/a
135.71	3.4	cognitive	expectrating	5	high_cue	n/a	87.26	Very Strong	87.26	Very Strong	2.27	1.13	task-social/cue/runtype-cognitive/sch/h041.png	n/a	n/a	n/a	n/a	n/a	n/a	n/a	n/a
145.81	5.0	cognitive	stimulus	5	high_cue	low_stim	n/a	n/a	n/a	n/a	n/a	n/a	task-social/stim/runtype-cognitive/34_50.jpg	n/a	n/a	n/a	n/a	n/a	same	same	True
153.41	1.9	cognitive	outcomerating	5	high_cue	low_stim	8.36	Weak	8.36	Weak	2.27	1.13	task-social/outcomerating/task-cognitive_scale.png	n/a	n/a	n/a	n/a	n/a	n/a	n/a	n/a
164.6	0.99	cognitive	cue	6	low_cue	n/a	n/a	n/a	n/a	n/a	n/a	n/a	task-social/cue/runtype-cognitive/scl/l046.png	n/a	n/a	n/a	n/a	n/a	n/a	n/a	n/a
166.9	2.54	cognitive	expectrating	6	low_cue	n/a	29.97	Strong	29.97	Strong	0.95	1.59	task-social/cue/runtype-cognitive/scl/l046.png	n/a	n/a	n/a	n/a	n/a	n/a	n/a	n/a
173.9	5.0	cognitive	stimulus	6	low_cue	high_stim	n/a	n/a	n/a	n/a	n/a	n/a	task-social/stim/runtype-cognitive/6_150_R.jpg	n/a	n/a	n/a	n/a	n/a	diff	diff	True
189.71	2.38	cognitive	outcomerating	6	low_cue	high_stim	29.23	Strong	29.23	Strong	0.95	1.59	task-social/outcomerating/task-cognitive_scale.png	n/a	n/a	n/a	n/a	n/a	n/a	n/a	n/a
197.0	1.0	cognitive	cue	7	low_cue	n/a	n/a	n/a	n/a	n/a	n/a	n/a	task-social/cue/runtype-cognitive/scl/l016.png	n/a	n/a	n/a	n/a	n/a	n/a	n/a	n/a
199.01	2.7	cognitive	expectrating	7	low_cue	n/a	32.74	Strong	32.74	Strong	0.68	2.02	task-social/cue/runtype-cognitive/scl/l016.png	n/a	n/a	n/a	n/a	n/a	n/a	n/a	n/a
208.5	5.0	cognitive	stimulus	7	low_cue	low_stim	n/a	n/a	n/a	n/a	n/a	n/a	task-social/stim/runtype-cognitive/29_50_R.jpg	n/a	n/a	n/a	n/a	n/a	diff	diff	True
220.7	2.5	cognitive	outcomerating	7	low_cue	low_stim	19.84	Moderate	19.84	Moderate	0.68	2.02	task-social/outcomerating/task-cognitive_scale.png	n/a	n/a	n/a	n/a	n/a	n/a	n/a	n/a
225.51	0.98	cognitive	cue	8	high_cue	n/a	n/a	n/a	n/a	n/a	n/a	n/a	task-social/cue/runtype-cognitive/sch/h002.png	n/a	n/a	n/a	n/a	n/a	n/a	n/a	n/a
227.91	1.7	cognitive	expectrating	8	high_cue	n/a	90.69	Very Strong	90.69	Very Strong	0.97	0.73	task-social/cue/runtype-cognitive/sch/h002.png	n/a	n/a	n/a	n/a	n/a	n/a	n/a	n/a
237.41	5.0	cognitive	stimulus	8	high_cue	med_stim	n/a	n/a	n/a	n/a	n/a	n/a	task-social/stim/runtype-cognitive/8_100_R.jpg	n/a	n/a	n/a	n/a	n/a	diff	diff	True
247.51	3.72	cognitive	outcomerating	8	high_cue	med_stim	23.7	Moderate	23.7	Moderate	0.97	0.73	task-social/outcomerating/task-cognitive_scale.png	n/a	n/a	n/a	n/a	n/a	n/a	n/a	n/a
255.1	0.99	cognitive	cue	9	low_cue	n/a	n/a	n/a	n/a	n/a	n/a	n/a	task-social/cue/runtype-cognitive/scl/l017.png	n/a	n/a	n/a	n/a	n/a	n/a	n/a	n/a
257.1	3.05	cognitive	expectrating	9	low_cue	n/a	57.85	Strong	57.85	Strong	0.7	2.35	task-social/cue/runtype-cognitive/scl/l017.png	n/a	n/a	n/a	n/a	n/a	n/a	n/a	n/a
264.8	5.0	cognitive	stimulus	9	low_cue	high_stim	n/a	n/a	n/a	n/a	n/a	n/a	task-social/stim/runtype-cognitive/39_150.jpg	n/a	n/a	n/a	n/a	n/a	same	diff	False
278.31	2.6	cognitive	outcomerating	9	low_cue	high_stim	34.07	Strong	34.07	Strong	0.7	2.35	task-social/outcomerating/task-cognitive_scale.png	n/a	n/a	n/a	n/a	n/a	n/a	n/a	n/a
288.6	0.99	cognitive	cue	10	high_cue	n/a	n/a	n/a	n/a	n/a	n/a	n/a	task-social/cue/runtype-cognitive/sch/h048.png	n/a	n/a	n/a	n/a	n/a	n/a	n/a	n/a
291.51	2.59	cognitive	expectrating	10	high_cue	n/a	59.51	Strong	59.51	Strong	1.15	1.44	task-social/cue/runtype-cognitive/sch/h048.png	n/a	n/a	n/a	n/a	n/a	n/a	n/a	n/a
301.7	5.0	cognitive	stimulus	10	high_cue	med_stim	n/a	n/a	n/a	n/a	n/a	n/a	task-social/stim/runtype-cognitive/34_100.jpg	n/a	n/a	n/a	n/a	n/a	same	same	True
311.91	2.45	cognitive	outcomerating	10	high_cue	med_stim	17.85	Moderate	17.85	Moderate	1.15	1.44	task-social/outcomerating/task-cognitive_scale.png	n/a	n/a	n/a	n/a	n/a	n/a	n/a	n/a
319.21	0.98	cognitive	cue	11	low_cue	n/a	n/a	n/a	n/a	n/a	n/a	n/a	task-social/cue/runtype-cognitive/scl/l022.png	n/a	n/a	n/a	n/a	n/a	n/a	n/a	n/a
322.01	1.15	cognitive	expectrating	11	low_cue	n/a	28.22	Moderate	28.22	Moderate	0.4	0.75	task-social/cue/runtype-cognitive/scl/l022.png	n/a	n/a	n/a	n/a	n/a	n/a	n/a	n/a
332.21	5.0	cognitive	stimulus	11	low_cue	low_stim	n/a	n/a	n/a	n/a	n/a	n/a	task-social/stim/runtype-cognitive/39_50.jpg	n/a	n/a	n/a	n/a	n/a	same	same	True
348.0	2.43	cognitive	outcomerating	11	low_cue	low_stim	14.37	Moderate	14.37	Moderate	0.4	0.75	task-social/outcomerating/task-cognitive_scale.png	n/a	n/a	n/a	n/a	n/a	n/a	n/a	n/a
362.51	0.98	cognitive	cue	12	high_cue	n/a	n/a	n/a	n/a	n/a	n/a	n/a	task-social/cue/runtype-cognitive/sch/h051.png	n/a	n/a	n/a	n/a	n/a	n/a	n/a	n/a
364.91	2.38	cognitive	expectrating	12	high_cue	n/a	121.64	Strongest sensation of any kind	121.64	Strongest sensation of any kind	1.23	1.15	task-social/cue/runtype-cognitive/sch/h051.png	n/a	n/a	n/a	n/a	n/a	n/a	n/a	n/a
381.6	5.0	cognitive	stimulus	12	high_cue	high_stim	n/a	n/a	n/a	n/a	n/a	n/a	task-social/stim/runtype-cognitive/39_150_R.jpg	n/a	n/a	n/a	n/a	n/a	diff	diff	True
394.8	1.55	cognitive	outcomerating	12	high_cue	high_stim	25.53	Moderate	25.53	Moderate	1.23	1.15	task-social/outcomerating/task-cognitive_scale.png	n/a	n/a	n/a	n/a	n/a	n/a	n/a	n/a
