onset	duration	subtask_type	question	event_type	participant_response	normative_response	response_accuracy	stim_file
5.0220301151275635	1.2352499961853027	tomspunt	smiling?	how_face	yes	yes	correct	task-tomspunt/F_695.jpg
6.572610139846802	1.142780065536499	tomspunt	smiling?	how_face	no	no	correct	task-tomspunt/F_412.jpg
8.023150205612183	0.7687699794769287	tomspunt	smiling?	how_face	yes	yes	correct	task-tomspunt/F_593.jpg
9.106890201568604	0.9423699378967284	tomspunt	smiling?	how_face	yes	yes	correct	task-tomspunt/F_139.jpg
10.357360124588013	0.7763199806213379	tomspunt	smiling?	how_face	no	no	correct	task-tomspunt/F_712.jpg
11.441090106964111	0.6582200527191162	tomspunt	smiling?	how_face	yes	yes	correct	task-tomspunt/F_759.jpg
12.408120155334473	0.7518298625946045	tomspunt	smiling?	how_face	no	no	correct	task-tomspunt/F_758.jpg
13.475190162658691	0.6353499889373779	tomspunt	smiling?	how_face	yes	yes	correct	task-tomspunt/F_083.jpg
22.862020015716553	0.5034701824188232	tomspunt	admiring?	why_face	yes	yes	correct	task-tomspunt/F_779.jpg
23.678990125656128	0.6194899082183838	tomspunt	admiring?	why_face	no	no	correct	task-tomspunt/F_110.jpg
24.612670183181763	0.619499921798706	tomspunt	admiring?	why_face	yes	yes	correct	task-tomspunt/F_590.jpg
25.54635000228882	0.6521201133728027	tomspunt	admiring?	why_face	yes	yes	correct	task-tomspunt/F_648.jpg
26.51338005065918	0.6356101036071777	tomspunt	admiring?	why_face	yes	yes	correct	task-tomspunt/F_759.jpg
27.46374011039734	0.7017900943756104	tomspunt	admiring?	why_face	no	no	correct	task-tomspunt/F_129.jpg
28.480780124664307	0.7011899948120117	tomspunt	admiring?	why_face	yes	yes	correct	task-tomspunt/F_593.jpg
29.497830152511597	1.0349798202514648	tomspunt	admiring?	why_face	no	no	correct	task-tomspunt/F_692.jpg
41.9191300868988	1.363420009613037	tomspunt	healthy?	why_hand	yes	yes	correct	task-tomspunt/H_364.jpg
43.58641004562378	1.70166015625	tomspunt	healthy?	why_hand	no	no	correct	task-tomspunt/H_007.jpg
45.603830099105835	1.0446500778198242	tomspunt	healthy?	why_hand	yes	yes	correct	task-tomspunt/H_167.jpg
46.9543399810791	0.9114501476287842	tomspunt	healthy?	why_hand	no	no	correct	task-tomspunt/H_130.jpg
48.17146015167236	1.227020025253296	tomspunt	healthy?	why_hand	yes	yes	correct	task-tomspunt/H_438.jpg
49.70536017417908	0.9937398433685304	tomspunt	healthy?	why_hand	no	no	correct	task-tomspunt/H_019.jpg
51.005850076675415	0.8680500984191895	tomspunt	healthy?	why_hand	yes	yes	correct	task-tomspunt/H_362.jpg
52.18962001800537	0.8921501636505127	tomspunt	healthy?	why_hand	yes	yes	correct	task-tomspunt/H_627.jpg
60.8762001991272	0.6394999027252197	tomspunt	pressing button?	how_hand	yes	yes	correct	task-tomspunt/H_126.jpg
61.826550006866455	0.6560699939727783	tomspunt	pressing button?	how_hand	yes	yes	correct	task-tomspunt/H_332.jpg
62.793580055236816	0.8722000122070312	tomspunt	pressing button?	how_hand	no	no	correct	task-tomspunt/H_261.jpg
63.97734999656677	1.0015699863433838	tomspunt	pressing button?	how_hand	no	no	correct	task-tomspunt/H_024.jpg
65.29451012611389	0.7872500419616699	tomspunt	pressing button?	how_hand	yes	yes	correct	task-tomspunt/H_502.jpg
66.39492011070251	0.8013498783111572	tomspunt	pressing button?	how_hand	no	no	correct	task-tomspunt/H_130.jpg
67.51200008392334	0.6699199676513672	tomspunt	pressing button?	how_hand	yes	yes	correct	task-tomspunt/H_019.jpg
68.4957001209259	0.6679399013519287	tomspunt	pressing button?	how_hand	yes	yes	correct	task-tomspunt/H_483.jpg
78.66616010665894	0.7019400596618652	tomspunt	looking to side?	how_face	yes	yes	correct	task-tomspunt/F_590.jpg
79.68321013450623	0.8346400260925293	tomspunt	looking to side?	how_face	no	yes	incorrect	task-tomspunt/F_110.jpg
80.83364009857178	0.7516601085662842	tomspunt	looking to side?	how_face	yes	yes	correct	task-tomspunt/F_760.jpg
81.90070009231567	0.9477999210357666	tomspunt	looking to side?	how_face	no	no	correct	task-tomspunt/F_779.jpg
83.15117001533508	0.7639400959014893	tomspunt	looking to side?	how_face	yes	yes	correct	task-tomspunt/F_433.jpg
84.21823000907898	0.7686901092529297	tomspunt	looking to side?	how_face	no	no	correct	task-tomspunt/F_798.jpg
85.3019700050354	0.6185600757598877	tomspunt	looking to side?	how_face	yes	yes	correct	task-tomspunt/F_716.jpg
86.23565006256104	1.2514901161193848	tomspunt	looking to side?	how_face	no	no	correct	task-tomspunt/F_111.jpg
97.7232701778412	0.6926999092102051	tomspunt	argument?	why_face	yes	yes	correct	task-tomspunt/F_403.jpg
98.72364020347597	0.6354198455810547	tomspunt	argument?	why_face	no	no	correct	task-tomspunt/F_139.jpg
99.67400002479552	0.7187299728393555	tomspunt	argument?	why_face	yes	yes	correct	task-tomspunt/F_743.jpg
100.70772004127502	0.6680600643157959	tomspunt	argument?	why_face	no	no	correct	task-tomspunt/F_433.jpg
101.6914200782776	1.190500020980835	tomspunt	argument?	why_face	yes	yes	correct	task-tomspunt/F_716.jpg
103.1919801235199	0.9240100383758544	tomspunt	argument?	why_face	yes	yes	correct	task-tomspunt/F_758.jpg
104.42577004432678	0.7901501655578613	tomspunt	argument?	why_face	no	no	correct	task-tomspunt/F_844.jpg
105.5261800289154	0.7237801551818848	tomspunt	argument?	why_face	yes	yes	correct	task-tomspunt/F_712.jpg
120.19832015037537	1.3190598487854004	tomspunt	self-protection?	why_hand	yes	yes	correct	task-tomspunt/H_189.jpg
121.83226013183594	1.0685298442840576	tomspunt	self-protection?	why_hand	yes	yes	correct	task-tomspunt/H_038.jpg
123.2161099910736	1.232600212097168	tomspunt	self-protection?	why_hand	no	yes	incorrect	task-tomspunt/H_581.jpg
124.75002002716064	1.6516101360321045	tomspunt	self-protection?	why_hand	no	no	correct	task-tomspunt/H_006.jpg
126.71742010116576	1.0687100887298584	tomspunt	self-protection?	why_hand	yes	yes	correct	task-tomspunt/H_027.jpg
128.10127019882202	1.085359811782837	tomspunt	self-protection?	why_hand	no	no	correct	task-tomspunt/H_332.jpg
129.5017900466919	1.1515700817108154	tomspunt	self-protection?	why_hand	yes	yes	correct	task-tomspunt/H_443.jpg
130.96900010108948	1.3189001083374023	tomspunt	self-protection?	why_hand	no	no	correct	task-tomspunt/H_532.jpg
138.03830003738403	1.1181700229644775	tomspunt	both hands?	how_hand	yes	yes	correct	task-tomspunt/H_581.jpg
139.4721701145172	0.8762998580932617	tomspunt	both hands?	how_hand	yes	yes	correct	task-tomspunt/H_349.jpg
140.6559500694275	0.8091599941253662	tomspunt	both hands?	how_hand	no	no	correct	task-tomspunt/H_159.jpg
141.77303004264832	1.092750072479248	tomspunt	both hands?	how_hand	yes	yes	correct	task-tomspunt/H_111.jpg
143.17355012893677	0.9853298664093018	tomspunt	both hands?	how_hand	no	no	correct	task-tomspunt/H_627.jpg
144.4740400314331	1.2918400764465332	tomspunt	both hands?	how_hand	yes	yes	correct	task-tomspunt/H_167.jpg
146.07463002204895	1.0848400592803955	tomspunt	both hands?	how_hand	yes	yes	correct	task-tomspunt/H_027.jpg
147.47516012191772	0.8738100528717041	tomspunt	both hands?	how_hand	no	no	correct	task-tomspunt/H_091.jpg
155.82827019691467	0.736879825592041	tomspunt	competing?	why_hand	yes	yes	correct	task-tomspunt/H_170.jpg
156.87866020202637	0.8534998893737793	tomspunt	competing?	why_hand	yes	yes	correct	task-tomspunt/H_132.jpg
158.04577016830444	0.7200000286102295	tomspunt	competing?	why_hand	no	no	correct	task-tomspunt/H_126.jpg
159.07949018478394	0.8693599700927734	tomspunt	competing?	why_hand	yes	yes	correct	task-tomspunt/H_003.jpg
160.2632601261139	0.7356698513031006	tomspunt	competing?	why_hand	no	no	correct	task-tomspunt/H_502.jpg
161.3136501312256	1.134850025177002	tomspunt	competing?	why_hand	yes	yes	correct	task-tomspunt/H_136.jpg
162.76419019699097	1.0014197826385498	tomspunt	competing?	why_hand	no	no	correct	task-tomspunt/H_483.jpg
164.0813500881195	0.8680400848388672	tomspunt	competing?	why_hand	yes	yes	correct	task-tomspunt/H_261.jpg
173.7182800769806	0.6849899291992188	tomspunt	lifting?	how_hand	yes	yes	correct	task-tomspunt/H_362.jpg
174.71865010261536	0.851370096206665	tomspunt	lifting?	how_hand	no	no	correct	task-tomspunt/H_012.jpg
175.8857500553131	1.218209981918335	tomspunt	lifting?	how_hand	yes	yes	correct	task-tomspunt/H_136.jpg
177.41966009140015	1.129309892654419	tomspunt	lifting?	how_hand	no	yes	incorrect	task-tomspunt/H_189.jpg
178.85353016853333	0.8184199333190918	tomspunt	lifting?	how_hand	yes	yes	correct	task-tomspunt/H_170.jpg
179.98728013038635	1.161870002746582	tomspunt	lifting?	how_hand	no	no	correct	task-tomspunt/H_077.jpg
181.45450019836423	0.8939898014068604	tomspunt	lifting?	how_hand	yes	yes	correct	task-tomspunt/H_443.jpg
182.6549401283264	0.9106099605560304	tomspunt	lifting?	how_hand	no	no	correct	task-tomspunt/H_038.jpg
191.79168009757996	0.5401499271392822	tomspunt	open mouth?	how_face	yes	yes	correct	task-tomspunt/F_403.jpg
192.64200019836423	0.5180299282073975	tomspunt	open mouth?	how_face	yes	yes	correct	task-tomspunt/F_086.jpg
193.47564005851743	0.5062899589538574	tomspunt	open mouth?	how_face	yes	yes	correct	task-tomspunt/F_844.jpg
194.29262018203735	0.7228899002075195	tomspunt	open mouth?	how_face	no	no	correct	task-tomspunt/F_544.jpg
195.32634019851685	0.6388897895812988	tomspunt	open mouth?	how_face	yes	yes	correct	task-tomspunt/F_776.jpg
196.2766900062561	0.6347000598907471	tomspunt	open mouth?	how_face	no	no	correct	task-tomspunt/F_648.jpg
197.2270400524139	0.5389800071716309	tomspunt	open mouth?	how_face	yes	yes	correct	task-tomspunt/F_692.jpg
198.07736015319824	0.8050198554992676	tomspunt	open mouth?	how_face	no	no	correct	task-tomspunt/F_584.jpg
209.3148901462555	0.718440055847168	tomspunt	proud?	why_face	yes	yes	correct	task-tomspunt/F_582.jpg
210.34860014915463	1.0513999462127686	tomspunt	proud?	why_face	no	no	correct	task-tomspunt/F_776.jpg
211.71578001976013	0.7185301780700684	tomspunt	proud?	why_face	yes	yes	correct	task-tomspunt/F_598.jpg
212.7495000362396	0.9351601600646972	tomspunt	proud?	why_face	no	no	correct	task-tomspunt/F_412.jpg
213.9999701976776	0.7353699207305908	tomspunt	proud?	why_face	yes	yes	correct	task-tomspunt/F_618.jpg
215.0503602027893	0.6853699684143066	tomspunt	proud?	why_face	yes	yes	correct	task-tomspunt/F_083.jpg
216.0507299900055	0.7346701622009277	tomspunt	proud?	why_face	yes	yes	correct	task-tomspunt/F_695.jpg
217.1011199951172	0.7646100521087646	tomspunt	proud?	why_face	no	no	correct	task-tomspunt/F_760.jpg
227.53835010528564	1.185679912567139	tomspunt	helping?	why_hand	yes	yes	correct	task-tomspunt/H_024.jpg
229.03891015052795	1.0014300346374512	tomspunt	helping?	why_hand	yes	yes	correct	task-tomspunt/H_474.jpg
230.3560700416565	0.6521000862121582	tomspunt	helping?	why_hand	yes	yes	correct	task-tomspunt/H_349.jpg
231.32309007644653	0.9421300888061525	tomspunt	helping?	why_hand	no	no	correct	task-tomspunt/H_091.jpg
232.5735599994659	0.8589701652526855	tomspunt	helping?	why_hand	no	no	correct	task-tomspunt/H_012.jpg
233.74066019058228	1.0579798221588137	tomspunt	helping?	why_hand	yes	yes	correct	task-tomspunt/H_077.jpg
235.10784006118777	1.0013999938964844	tomspunt	helping?	why_hand	no	no	correct	task-tomspunt/H_159.jpg
236.42499017715457	0.8902499675750732	tomspunt	helping?	why_hand	yes	yes	correct	task-tomspunt/H_111.jpg
245.0615501403809	0.8209099769592285	tomspunt	reaching?	how_hand	yes	yes	correct	task-tomspunt/H_474.jpg
246.1953101158142	0.6867799758911133	tomspunt	reaching?	how_hand	yes	yes	correct	task-tomspunt/H_003.jpg
247.19568014144895	0.8366899490356445	tomspunt	reaching?	how_hand	no	no	correct	task-tomspunt/H_132.jpg
248.34611010551453	0.8197500705718994	tomspunt	reaching?	how_hand	yes	yes	correct	task-tomspunt/H_364.jpg
249.47986006736755	1.0851800441741943	tomspunt	reaching?	how_hand	yes	yes	correct	task-tomspunt/H_006.jpg
250.88039016723633	1.051649808883667	tomspunt	reaching?	how_hand	no	no	correct	task-tomspunt/H_532.jpg
252.24756002426147	1.3348100185394287	tomspunt	reaching?	how_hand	no	no	correct	task-tomspunt/H_438.jpg
253.89818000793457	0.7854101657867432	tomspunt	reaching?	how_hand	yes	yes	correct	task-tomspunt/H_007.jpg
263.8518900871277	0.8972699642181396	tomspunt	looking at camera?	how_face	yes	yes	correct	task-tomspunt/F_618.jpg
265.05234003067017	0.6520400047302246	tomspunt	looking at camera?	how_face	no	no	correct	task-tomspunt/F_743.jpg
266.0193700790405	0.5853400230407715	tomspunt	looking at camera?	how_face	yes	yes	correct	task-tomspunt/F_598.jpg
266.91970014572144	0.7179899215698242	tomspunt	looking at camera?	how_face	yes	yes	correct	task-tomspunt/F_774.jpg
267.9534201622009	0.6181800365447998	tomspunt	looking at camera?	how_face	yes	yes	correct	task-tomspunt/F_129.jpg
268.887099981308	0.6346900463104248	tomspunt	looking at camera?	how_face	yes	yes	correct	task-tomspunt/F_128.jpg
269.83746004104614	0.9347901344299316	tomspunt	looking at camera?	how_face	no	no	correct	task-tomspunt/F_582.jpg
271.0879201889038	0.751309871673584	tomspunt	looking at camera?	how_face	no	no	correct	task-tomspunt/F_754.jpg
285.3265600204468	1.2561299800872805	tomspunt	self-doubt?	why_face	yes	yes	correct	task-tomspunt/F_798.jpg
286.89382004737854	0.9552299976348876	tomspunt	self-doubt?	why_face	no	no	correct	task-tomspunt/F_128.jpg
288.16096019744873	0.8374099731445312	tomspunt	self-doubt?	why_face	yes	yes	correct	task-tomspunt/F_754.jpg
289.31138014793396	0.7541999816894531	tomspunt	self-doubt?	why_face	yes	yes	correct	task-tomspunt/F_544.jpg
290.3784501552582	1.453510046005249	tomspunt	self-doubt?	why_face	no	no	correct	task-tomspunt/F_086.jpg
292.14578008651733	1.0359399318695068	tomspunt	self-doubt?	why_face	yes	yes	correct	task-tomspunt/F_111.jpg
293.49628019332886	0.7689099311828613	tomspunt	self-doubt?	why_face	no	no	correct	task-tomspunt/F_774.jpg
294.5800201892853	1.5524299144744873	tomspunt	self-doubt?	why_face	no	yes	incorrect	task-tomspunt/F_584.jpg
303.2165701389313	0.6319198608398438	tomspunt	reaching?	how_hand	yes	yes	correct	task-tomspunt/H_006.jpg
304.1502501964569	0.9183897972106934	tomspunt	reaching?	how_hand	no	no	correct	task-tomspunt/H_438.jpg
305.3840501308441	0.5978999137878418	tomspunt	reaching?	how_hand	yes	yes	correct	task-tomspunt/H_003.jpg
306.284380197525	0.6350100040435791	tomspunt	reaching?	how_hand	yes	yes	correct	task-tomspunt/H_474.jpg
307.2347400188446	0.6516401767730713	tomspunt	reaching?	how_hand	no	no	correct	task-tomspunt/H_532.jpg
308.20176005363464	0.6352500915527344	tomspunt	reaching?	how_hand	yes	yes	correct	task-tomspunt/H_364.jpg
309.1521201133728	0.5178999900817871	tomspunt	reaching?	how_hand	yes	yes	correct	task-tomspunt/H_007.jpg
309.985759973526	0.8850700855255127	tomspunt	reaching?	how_hand	no	no	correct	task-tomspunt/H_132.jpg
325.70829010009766	n/a	tomspunt	healthy?	why_hand	n/a	yes	incorrect	task-tomspunt/H_438.jpg
327.7423801422119	1.023360013961792	tomspunt	healthy?	why_hand	no	no	correct	task-tomspunt/H_007.jpg
329.076220035553	1.3057200908660889	tomspunt	healthy?	why_hand	yes	yes	correct	task-tomspunt/H_364.jpg
330.693480014801	0.8387000560760498	tomspunt	healthy?	why_hand	no	no	correct	task-tomspunt/H_019.jpg
331.8439099788666	0.7013201713562012	tomspunt	healthy?	why_hand	yes	yes	correct	task-tomspunt/H_167.jpg
332.86096000671387	1.237490177154541	tomspunt	healthy?	why_hand	no	no	correct	task-tomspunt/H_130.jpg
334.4115400314331	0.8710100650787354	tomspunt	healthy?	why_hand	yes	yes	correct	task-tomspunt/H_627.jpg
335.59530997276306	0.8532299995422363	tomspunt	healthy?	why_hand	yes	yes	correct	task-tomspunt/H_362.jpg
343.78170013427734	0.6340799331665039	tomspunt	proud?	why_face	yes	yes	correct	task-tomspunt/F_083.jpg
344.715380191803	0.6679999828338623	tomspunt	proud?	why_face	no	no	correct	task-tomspunt/F_412.jpg
345.69907999038696	0.7516801357269287	tomspunt	proud?	why_face	yes	yes	correct	task-tomspunt/F_695.jpg
346.76613998413086	0.6019501686096191	tomspunt	proud?	why_face	yes	yes	correct	task-tomspunt/F_598.jpg
347.6831500530243	0.7179701328277588	tomspunt	proud?	why_face	yes	yes	correct	task-tomspunt/F_618.jpg
348.7168700695038	0.6511800289154053	tomspunt	proud?	why_face	yes	yes	correct	task-tomspunt/F_582.jpg
349.68390011787415	0.585319995880127	tomspunt	proud?	why_face	no	no	correct	task-tomspunt/F_760.jpg
350.5842401981354	0.998039960861206	tomspunt	proud?	why_face	no	no	correct	task-tomspunt/F_776.jpg
365.2563700675965	0.5258901119232178	tomspunt	smiling?	how_face	yes	yes	correct	task-tomspunt/F_695.jpg
366.09002017974854	0.7188699245452881	tomspunt	smiling?	how_face	no	no	correct	task-tomspunt/F_412.jpg
367.123740196228	0.518589973449707	tomspunt	smiling?	how_face	yes	yes	correct	task-tomspunt/F_083.jpg
367.9573800563812	0.5417799949645996	tomspunt	smiling?	how_face	yes	yes	correct	task-tomspunt/F_593.jpg
368.8077001571655	0.7414498329162598	tomspunt	smiling?	how_face	no	no	correct	task-tomspunt/F_712.jpg
369.8580901622772	0.5570099353790283	tomspunt	smiling?	how_face	yes	yes	correct	task-tomspunt/F_139.jpg
370.72508001327515	0.5406801700592041	tomspunt	smiling?	how_face	yes	yes	correct	task-tomspunt/F_759.jpg
371.57540011405945	0.6231799125671387	tomspunt	smiling?	how_face	no	no	correct	task-tomspunt/F_758.jpg
384.3635001182556	0.6349999904632568	tomspunt	both hands?	how_hand	yes	yes	correct	task-tomspunt/H_167.jpg
385.31385016441345	0.6346898078918457	tomspunt	both hands?	how_hand	no	no	correct	task-tomspunt/H_159.jpg
386.26420998573303	0.5845701694488525	tomspunt	both hands?	how_hand	yes	yes	correct	task-tomspunt/H_027.jpg
387.16454005241394	0.7686700820922852	tomspunt	both hands?	how_hand	yes	yes	correct	task-tomspunt/H_581.jpg
388.2482800483704	1.1019401550292969	tomspunt	both hands?	how_hand	no	no	correct	task-tomspunt/H_091.jpg
389.66548013687134	0.8520598411560059	tomspunt	both hands?	how_hand	yes	yes	correct	task-tomspunt/H_111.jpg
390.8325800895691	0.8521699905395508	tomspunt	both hands?	how_hand	no	no	correct	task-tomspunt/H_627.jpg
391.9996800422669	0.5518701076507568	tomspunt	both hands?	how_hand	yes	yes	correct	task-tomspunt/H_349.jpg
401.8867001533508	0.6285500526428223	tomspunt	helping?	why_hand	yes	yes	correct	task-tomspunt/H_111.jpg
402.8203799724579	0.7619302272796631	tomspunt	helping?	why_hand	yes	yes	correct	task-tomspunt/H_077.jpg
403.8874499797821	0.751579999923706	tomspunt	helping?	why_hand	no	no	correct	task-tomspunt/H_159.jpg
404.954509973526	0.6846702098846436	tomspunt	helping?	why_hand	yes	yes	correct	task-tomspunt/H_474.jpg
405.9548799991608	0.8180701732635498	tomspunt	helping?	why_hand	no	no	correct	task-tomspunt/H_012.jpg
407.0886399745941	1.1272401809692385	tomspunt	helping?	why_hand	yes	yes	correct	task-tomspunt/H_024.jpg
408.5225100517273	0.8933799266815186	tomspunt	helping?	why_hand	no	no	correct	task-tomspunt/H_091.jpg
409.7229599952698	0.651630163192749	tomspunt	helping?	why_hand	yes	yes	correct	task-tomspunt/H_349.jpg
419.42657017707825	0.7552299499511719	tomspunt	self-doubt?	why_face	no	yes	incorrect	task-tomspunt/F_754.jpg
420.49364018440247	1.1220598220825195	tomspunt	self-doubt?	why_face	no	no	correct	task-tomspunt/F_128.jpg
421.92751002311707	0.7382700443267822	tomspunt	self-doubt?	why_face	yes	yes	correct	task-tomspunt/F_544.jpg
422.9779000282288	0.937960147857666	tomspunt	self-doubt?	why_face	no	no	correct	task-tomspunt/F_086.jpg
424.22837018966675	0.6873199939727783	tomspunt	self-doubt?	why_face	yes	yes	correct	task-tomspunt/F_798.jpg
425.22873997688293	0.8204500675201416	tomspunt	self-doubt?	why_face	no	yes	incorrect	task-tomspunt/F_584.jpg
426.36249017715454	0.8860299587249756	tomspunt	self-doubt?	why_face	yes	yes	correct	task-tomspunt/F_111.jpg
427.562940120697	0.752810001373291	tomspunt	self-doubt?	why_face	no	no	correct	task-tomspunt/F_774.jpg
438.2169201374054	0.91867995262146	tomspunt	looking to side?	how_face	yes	yes	correct	task-tomspunt/F_433.jpg
439.4507100582123	1.118649959564209	tomspunt	looking to side?	how_face	no	no	correct	task-tomspunt/F_779.jpg
440.88458013534546	1.0848100185394287	tomspunt	looking to side?	how_face	yes	yes	correct	task-tomspunt/F_760.jpg
442.28509998321533	0.947230100631714	tomspunt	looking to side?	how_face	no	no	correct	task-tomspunt/F_111.jpg
443.535560131073	0.929650068283081	tomspunt	looking to side?	how_face	yes	no	incorrect	task-tomspunt/F_798.jpg
444.7693600654602	0.935499906539917	tomspunt	looking to side?	how_face	yes	yes	correct	task-tomspunt/F_716.jpg
446.0198299884796	0.8460299968719482	tomspunt	looking to side?	how_face	yes	yes	correct	task-tomspunt/F_590.jpg
447.1702501773834	0.862299919128418	tomspunt	looking to side?	how_face	no	yes	incorrect	task-tomspunt/F_110.jpg
456.0902500152588	0.9583001136779784	tomspunt	argument?	why_face	yes	yes	correct	task-tomspunt/F_716.jpg
457.357390165329	0.6913299560546875	tomspunt	argument?	why_face	no	no	correct	task-tomspunt/F_139.jpg
458.35776019096375	0.8680098056793213	tomspunt	argument?	why_face	yes	yes	correct	task-tomspunt/F_743.jpg
459.5415301322937	0.735069990158081	tomspunt	argument?	why_face	yes	yes	correct	task-tomspunt/F_403.jpg
460.5919201374054	0.9018700122833252	tomspunt	argument?	why_face	yes	yes	correct	task-tomspunt/F_758.jpg
461.8090500831604	0.5729000568389893	tomspunt	argument?	why_face	no	no	correct	task-tomspunt/F_844.jpg
462.6927101612091	1.1401598453521729	tomspunt	argument?	why_face	yes	yes	correct	task-tomspunt/F_712.jpg
464.1432499885559	0.0222702026367187	tomspunt	argument?	why_face	no	no	correct	task-tomspunt/F_433.jpg
475.1973700523377	0.4853799343109131	tomspunt	open mouth?	how_face	yes	yes	correct	task-tomspunt/F_844.jpg
475.997670173645	0.5012998580932617	tomspunt	open mouth?	how_face	yes	yes	correct	task-tomspunt/F_692.jpg
476.814640045166	0.5013599395751953	tomspunt	open mouth?	how_face	no	no	correct	task-tomspunt/F_584.jpg
477.6316101551056	0.6185898780822754	tomspunt	open mouth?	how_face	yes	yes	correct	task-tomspunt/F_086.jpg
478.56528997421265	0.6186602115631104	tomspunt	open mouth?	how_face	yes	yes	correct	task-tomspunt/F_403.jpg
479.4989800453186	0.5853800773620605	tomspunt	open mouth?	how_face	no	no	correct	task-tomspunt/F_544.jpg
480.3993101119995	0.5846600532531738	tomspunt	open mouth?	how_face	no	no	correct	task-tomspunt/F_648.jpg
481.29965019226074	0.5821797847747803	tomspunt	open mouth?	how_face	yes	yes	correct	task-tomspunt/F_776.jpg
494.1544401645661	0.5441298484802246	tomspunt	lifting?	how_hand	yes	yes	correct	task-tomspunt/H_170.jpg
495.00476002693176	1.0441100597381592	tomspunt	lifting?	how_hand	no	no	correct	task-tomspunt/H_077.jpg
496.3552601337433	0.6936700344085693	tomspunt	lifting?	how_hand	yes	yes	correct	task-tomspunt/H_189.jpg
497.3556401729584	0.6521999835968018	tomspunt	lifting?	how_hand	yes	yes	correct	task-tomspunt/H_362.jpg
498.3226602077484	0.8014400005340576	tomspunt	lifting?	how_hand	no	no	correct	task-tomspunt/H_012.jpg
499.4397501945496	0.6093599796295166	tomspunt	lifting?	how_hand	yes	yes	correct	task-tomspunt/H_443.jpg
500.3567600250244	0.825200080871582	tomspunt	lifting?	how_hand	yes	yes	correct	task-tomspunt/H_136.jpg
501.49050998687744	1.01882004737854	tomspunt	lifting?	how_hand	no	no	correct	task-tomspunt/H_038.jpg
511.67764019966125	0.5351200103759766	tomspunt	competing?	why_hand	yes	yes	correct	task-tomspunt/H_003.jpg
512.527960062027	0.6376099586486816	tomspunt	competing?	why_hand	no	no	correct	task-tomspunt/H_483.jpg
513.4783201217651	0.5535199642181396	tomspunt	competing?	why_hand	yes	yes	correct	task-tomspunt/H_132.jpg
514.3453001976013	0.4865498542785644	tomspunt	competing?	why_hand	yes	yes	correct	task-tomspunt/H_170.jpg
515.1456000804901	0.6029200553894043	tomspunt	competing?	why_hand	no	no	correct	task-tomspunt/H_502.jpg
516.0626101493835	0.9533100128173828	tomspunt	competing?	why_hand	yes	yes	correct	task-tomspunt/H_136.jpg
517.3297500610352	0.802030086517334	tomspunt	competing?	why_hand	no	no	correct	task-tomspunt/H_126.jpg
518.446830034256	0.5020201206207275	tomspunt	competing?	why_hand	yes	yes	correct	task-tomspunt/H_261.jpg
529.5509700775146	0.4515900611877441	tomspunt	admiring?	why_face	yes	yes	correct	task-tomspunt/F_759.jpg
530.317929983139	0.535210132598877	tomspunt	admiring?	why_face	yes	yes	correct	task-tomspunt/F_593.jpg
531.1682500839233	0.4973299503326416	tomspunt	admiring?	why_face	no	no	correct	task-tomspunt/F_692.jpg
531.9685401916504	0.5019400119781494	tomspunt	admiring?	why_face	yes	yes	correct	task-tomspunt/F_590.jpg
532.7855100631714	0.5136599540710449	tomspunt	admiring?	why_face	no	no	correct	task-tomspunt/F_129.jpg
533.6024901866913	0.5350699424743652	tomspunt	admiring?	why_face	yes	yes	correct	task-tomspunt/F_648.jpg
534.4528000354767	0.501230001449585	tomspunt	admiring?	why_face	no	no	correct	task-tomspunt/F_110.jpg
535.2697701454163	0.5684299468994141	tomspunt	admiring?	why_face	yes	yes	correct	task-tomspunt/F_779.jpg
547.0741801261902	1.051419973373413	tomspunt	looking at camera?	how_face	yes	yes	correct	task-tomspunt/F_128.jpg
548.4413499832153	0.657940149307251	tomspunt	looking at camera?	how_face	no	no	correct	task-tomspunt/F_754.jpg
549.4083800315857	0.4901700019836426	tomspunt	looking at camera?	how_face	yes	yes	correct	task-tomspunt/F_598.jpg
550.2086801528931	0.5019199848175049	tomspunt	looking at camera?	how_face	yes	yes	correct	task-tomspunt/F_129.jpg
551.0256500244141	0.5020101070404053	tomspunt	looking at camera?	how_face	yes	yes	correct	task-tomspunt/F_618.jpg
551.8426201343536	0.5679199695587158	tomspunt	looking at camera?	how_face	no	no	correct	task-tomspunt/F_743.jpg
552.7262799739838	0.5352401733398438	tomspunt	looking at camera?	how_face	yes	yes	correct	task-tomspunt/F_774.jpg
553.5766000747681	0.6351699829101562	tomspunt	looking at camera?	how_face	no	no	correct	task-tomspunt/F_582.jpg
565.7644801139832	0.4678099155426025	tomspunt	pressing button?	how_hand	yes	yes	correct	task-tomspunt/H_019.jpg
566.5481100082397	0.4682700634002685	tomspunt	pressing button?	how_hand	yes	yes	correct	task-tomspunt/H_126.jpg
567.3317301273346	0.5845799446105957	tomspunt	pressing button?	how_hand	no	no	correct	task-tomspunt/H_130.jpg
568.2320702075958	0.685269832611084	tomspunt	pressing button?	how_hand	yes	yes	correct	task-tomspunt/H_332.jpg
569.232439994812	0.7351601123809814	tomspunt	pressing button?	how_hand	no	no	correct	task-tomspunt/H_024.jpg
570.2828299999237	0.5324501991271973	tomspunt	pressing button?	how_hand	yes	yes	correct	task-tomspunt/H_483.jpg
571.1164801120758	0.6679999828338623	tomspunt	pressing button?	how_hand	no	no	correct	task-tomspunt/H_261.jpg
572.1001801490784	0.5345799922943115	tomspunt	pressing button?	how_hand	yes	yes	correct	task-tomspunt/H_502.jpg
583.9712700843811	0.4513800144195556	tomspunt	self-protection?	why_hand	yes	yes	correct	task-tomspunt/H_443.jpg
584.7382199764252	0.8013701438903809	tomspunt	self-protection?	why_hand	yes	yes	correct	task-tomspunt/H_189.jpg
585.8553102016449	0.7765297889709473	tomspunt	self-protection?	why_hand	yes	yes	correct	task-tomspunt/H_027.jpg
586.939040184021	0.6517999172210693	tomspunt	self-protection?	why_hand	no	no	correct	task-tomspunt/H_532.jpg
587.9060699939728	0.6591401100158691	tomspunt	self-protection?	why_hand	yes	yes	correct	task-tomspunt/H_038.jpg
588.8731000423431	0.8093199729919434	tomspunt	self-protection?	why_hand	no	no	correct	task-tomspunt/H_006.jpg
589.990180015564	0.875770092010498	tomspunt	self-protection?	why_hand	no	no	correct	task-tomspunt/H_332.jpg
591.1739602088928	0.5852599143981934	tomspunt	self-protection?	why_hand	yes	yes	correct	task-tomspunt/H_581.jpg
0.0778827571868894	2.03409218788147	tomspunt	smiling?	block_question_presentation	n/a	n/a	n/a	n/a
0.0778827571868894	0.3	tomspunt	smiling?	block_question_presentation	n/a	n/a	n/a	n/a
17.8511767292023	2.10078430175781	tomspunt	admiring?	block_question_presentation	n/a	n/a	n/a	n/a
17.8511767292023	0.3	tomspunt	admiring?	block_question_presentation	n/a	n/a	n/a	n/a
36.9082841777802	2.10078430175781	tomspunt	healthy?	block_question_presentation	n/a	n/a	n/a	n/a
36.9082841777802	0.3	tomspunt	healthy?	block_question_presentation	n/a	n/a	n/a	n/a
55.8653542900085	2.10078263282776	tomspunt	pressing button?	block_question_presentation	n/a	n/a	n/a	n/a
55.8653542900085	0.3	tomspunt	pressing button?	block_question_presentation	n/a	n/a	n/a	n/a
73.6719944381714	2.08411026000977	tomspunt	looking to side?	block_question_presentation	n/a	n/a	n/a	n/a
73.6719944381714	0.3	tomspunt	looking to side?	block_question_presentation	n/a	n/a	n/a	n/a
92.7124276065826	2.10078454017639	tomspunt	argument?	block_question_presentation	n/a	n/a	n/a	n/a
92.7124276065826	0.3	tomspunt	argument?	block_question_presentation	n/a	n/a	n/a	n/a
115.204149713516	2.08411002159119	tomspunt	self-protection?	block_question_presentation	n/a	n/a	n/a	n/a
115.204149713516	0.3	tomspunt	self-protection?	block_question_presentation	n/a	n/a	n/a	n/a
133.044134845734	2.08411145210266	tomspunt	both hands?	block_question_presentation	n/a	n/a	n/a	n/a
133.044134845734	0.3	tomspunt	both hands?	block_question_presentation	n/a	n/a	n/a	n/a
150.834102621079	2.08411073684692	tomspunt	competing?	block_question_presentation	n/a	n/a	n/a	n/a
150.834102621079	0.3	tomspunt	competing?	block_question_presentation	n/a	n/a	n/a	n/a
168.72410820961	2.08411026000977	tomspunt	lifting?	block_question_presentation	n/a	n/a	n/a	n/a
168.72410820961	0.3	tomspunt	lifting?	block_question_presentation	n/a	n/a	n/a	n/a
186.780841817856	2.1007833480835	tomspunt	open mouth?	block_question_presentation	n/a	n/a	n/a	n/a
186.780841817856	0.3	tomspunt	open mouth?	block_question_presentation	n/a	n/a	n/a	n/a
204.304043045044	2.10078406333923	tomspunt	proud?	block_question_presentation	n/a	n/a	n/a	n/a
204.304043045044	0.3	tomspunt	proud?	block_question_presentation	n/a	n/a	n/a	n/a
222.527506818771	2.10078239440918	tomspunt	helping?	block_question_presentation	n/a	n/a	n/a	n/a
222.527506818771	0.3	tomspunt	helping?	block_question_presentation	n/a	n/a	n/a	n/a
240.050706853867	2.10078430175781	tomspunt	reaching?	block_question_presentation	n/a	n/a	n/a	n/a
240.050706853867	0.3	tomspunt	reaching?	block_question_presentation	n/a	n/a	n/a	n/a
258.841047992706	2.1007833480835	tomspunt	looking at camera?	block_question_presentation	n/a	n/a	n/a	n/a
258.841047992706	0.3	tomspunt	looking at camera?	block_question_presentation	n/a	n/a	n/a	n/a
280.332395782471	2.08411049842834	tomspunt	self-doubt?	block_question_presentation	n/a	n/a	n/a	n/a
280.332395782471	0.3	tomspunt	self-doubt?	block_question_presentation	n/a	n/a	n/a	n/a
298.20572804451	2.1007833480835	tomspunt	reaching?	block_question_presentation	n/a	n/a	n/a	n/a
298.20572804451	0.3	tomspunt	reaching?	block_question_presentation	n/a	n/a	n/a	n/a
320.697449674606	2.10078287124634	tomspunt	healthy?	block_question_presentation	n/a	n/a	n/a	n/a
320.697449674606	0.3	tomspunt	healthy?	block_question_presentation	n/a	n/a	n/a	n/a
338.770854701996	2.10078406333923	tomspunt	proud?	block_question_presentation	n/a	n/a	n/a	n/a
338.770854701996	0.3	tomspunt	proud?	block_question_presentation	n/a	n/a	n/a	n/a
360.245530357361	2.10078382492065	tomspunt	smiling?	block_question_presentation	n/a	n/a	n/a	n/a
360.245530357361	0.3	tomspunt	smiling?	block_question_presentation	n/a	n/a	n/a	n/a
379.352655878067	2.10078287124634	tomspunt	both hands?	block_question_presentation	n/a	n/a	n/a	n/a
379.352655878067	0.3	tomspunt	both hands?	block_question_presentation	n/a	n/a	n/a	n/a
396.875856866837	2.10078454017639	tomspunt	helping?	block_question_presentation	n/a	n/a	n/a	n/a
396.875856866837	0.3	tomspunt	helping?	block_question_presentation	n/a	n/a	n/a	n/a
414.415731897354	2.10078358650208	tomspunt	self-doubt?	block_question_presentation	n/a	n/a	n/a	n/a
414.415731897354	0.3	tomspunt	self-doubt?	block_question_presentation	n/a	n/a	n/a	n/a
433.206071844101	2.10078430175781	tomspunt	looking to side?	block_question_presentation	n/a	n/a	n/a	n/a
433.206071844101	0.3	tomspunt	looking to side?	block_question_presentation	n/a	n/a	n/a	n/a
451.07940410614	2.10078382492065	tomspunt	argument?	block_question_presentation	n/a	n/a	n/a	n/a
451.07940410614	0.3	tomspunt	argument?	block_question_presentation	n/a	n/a	n/a	n/a
470.186530103683	2.10078287124634	tomspunt	open mouth?	block_question_presentation	n/a	n/a	n/a	n/a
470.186530103683	0.3	tomspunt	open mouth?	block_question_presentation	n/a	n/a	n/a	n/a
489.1435987854	2.10078406333923	tomspunt	lifting?	block_question_presentation	n/a	n/a	n/a	n/a
489.1435987854	0.3	tomspunt	lifting?	block_question_presentation	n/a	n/a	n/a	n/a
506.666800727844	2.10078430175781	tomspunt	competing?	block_question_presentation	n/a	n/a	n/a	n/a
506.666800727844	0.3	tomspunt	competing?	block_question_presentation	n/a	n/a	n/a	n/a
524.540133228302	2.10078287124634	tomspunt	admiring?	block_question_presentation	n/a	n/a	n/a	n/a
524.540133228302	0.3	tomspunt	admiring?	block_question_presentation	n/a	n/a	n/a	n/a
542.080007066727	2.08411073684692	tomspunt	looking at camera?	block_question_presentation	n/a	n/a	n/a	n/a
542.080007066727	0.3	tomspunt	looking at camera?	block_question_presentation	n/a	n/a	n/a	n/a
560.753637781143	2.10078358650208	tomspunt	pressing button?	block_question_presentation	n/a	n/a	n/a	n/a
560.753637781143	0.3	tomspunt	pressing button?	block_question_presentation	n/a	n/a	n/a	n/a
578.960427274704	2.10078406333923	tomspunt	self-protection?	block_question_presentation	n/a	n/a	n/a	n/a
578.960427274704	0.3	tomspunt	self-protection?	block_question_presentation	n/a	n/a	n/a	n/a
