onset	duration	subtask_type	question	event_type	participant_response	normative_response	response_accuracy	stim_file	trial_index
0.078	2.034	tomspunt	smiling?	block_question_presentation	n/a	n/a	n/a	n/a	0
0.078	0.3	tomspunt	smiling?	block_question_presentation	n/a	n/a	n/a	n/a	1
0.078	0.3	tomspunt	smiling?	block_question_presentation	n/a	n/a	n/a	n/a	2
0.078	0.3	tomspunt	smiling?	block_question_presentation	n/a	n/a	n/a	n/a	3
0.078	0.3	tomspunt	smiling?	block_question_presentation	n/a	n/a	n/a	n/a	4
0.078	0.3	tomspunt	smiling?	block_question_presentation	n/a	n/a	n/a	n/a	5
0.078	0.3	tomspunt	smiling?	block_question_presentation	n/a	n/a	n/a	n/a	6
0.078	0.3	tomspunt	smiling?	block_question_presentation	n/a	n/a	n/a	n/a	7
5.022	1.235	tomspunt	smiling?	how_face	yes	yes	correct	task-tomspunt/F_695.jpg	0
6.573	1.143	tomspunt	smiling?	how_face	no	no	correct	task-tomspunt/F_412.jpg	1
8.023	0.769	tomspunt	smiling?	how_face	yes	yes	correct	task-tomspunt/F_593.jpg	2
9.107	0.942	tomspunt	smiling?	how_face	yes	yes	correct	task-tomspunt/F_139.jpg	3
10.357	0.776	tomspunt	smiling?	how_face	no	no	correct	task-tomspunt/F_712.jpg	4
11.441	0.658	tomspunt	smiling?	how_face	yes	yes	correct	task-tomspunt/F_759.jpg	5
12.408	0.752	tomspunt	smiling?	how_face	no	no	correct	task-tomspunt/F_758.jpg	6
13.475	0.635	tomspunt	smiling?	how_face	yes	yes	correct	task-tomspunt/F_083.jpg	7
17.851	2.101	tomspunt	admiring?	block_question_presentation	n/a	n/a	n/a	n/a	8
17.851	0.3	tomspunt	admiring?	block_question_presentation	n/a	n/a	n/a	n/a	9
17.851	0.3	tomspunt	admiring?	block_question_presentation	n/a	n/a	n/a	n/a	10
17.851	0.3	tomspunt	admiring?	block_question_presentation	n/a	n/a	n/a	n/a	11
17.851	0.3	tomspunt	admiring?	block_question_presentation	n/a	n/a	n/a	n/a	12
17.851	0.3	tomspunt	admiring?	block_question_presentation	n/a	n/a	n/a	n/a	13
17.851	0.3	tomspunt	admiring?	block_question_presentation	n/a	n/a	n/a	n/a	14
17.851	0.3	tomspunt	admiring?	block_question_presentation	n/a	n/a	n/a	n/a	15
22.862	0.503	tomspunt	admiring?	why_face	yes	yes	correct	task-tomspunt/F_779.jpg	8
23.679	0.619	tomspunt	admiring?	why_face	no	no	correct	task-tomspunt/F_110.jpg	9
24.613	0.619	tomspunt	admiring?	why_face	yes	yes	correct	task-tomspunt/F_590.jpg	10
25.546	0.652	tomspunt	admiring?	why_face	yes	yes	correct	task-tomspunt/F_648.jpg	11
26.513	0.636	tomspunt	admiring?	why_face	yes	yes	correct	task-tomspunt/F_759.jpg	12
27.464	0.702	tomspunt	admiring?	why_face	no	no	correct	task-tomspunt/F_129.jpg	13
28.481	0.701	tomspunt	admiring?	why_face	yes	yes	correct	task-tomspunt/F_593.jpg	14
29.498	1.035	tomspunt	admiring?	why_face	no	no	correct	task-tomspunt/F_692.jpg	15
36.908	2.101	tomspunt	healthy?	block_question_presentation	n/a	n/a	n/a	n/a	16
36.908	0.3	tomspunt	healthy?	block_question_presentation	n/a	n/a	n/a	n/a	17
36.908	0.3	tomspunt	healthy?	block_question_presentation	n/a	n/a	n/a	n/a	18
36.908	0.3	tomspunt	healthy?	block_question_presentation	n/a	n/a	n/a	n/a	19
36.908	0.3	tomspunt	healthy?	block_question_presentation	n/a	n/a	n/a	n/a	20
36.908	0.3	tomspunt	healthy?	block_question_presentation	n/a	n/a	n/a	n/a	21
36.908	0.3	tomspunt	healthy?	block_question_presentation	n/a	n/a	n/a	n/a	22
36.908	0.3	tomspunt	healthy?	block_question_presentation	n/a	n/a	n/a	n/a	23
41.919	1.363	tomspunt	healthy?	why_hand	yes	yes	correct	task-tomspunt/H_364.jpg	16
43.586	1.702	tomspunt	healthy?	why_hand	no	no	correct	task-tomspunt/H_007.jpg	17
45.604	1.045	tomspunt	healthy?	why_hand	yes	yes	correct	task-tomspunt/H_167.jpg	18
46.954	0.911	tomspunt	healthy?	why_hand	no	no	correct	task-tomspunt/H_130.jpg	19
48.171	1.227	tomspunt	healthy?	why_hand	yes	yes	correct	task-tomspunt/H_438.jpg	20
49.705	0.994	tomspunt	healthy?	why_hand	no	no	correct	task-tomspunt/H_019.jpg	21
51.006	0.868	tomspunt	healthy?	why_hand	yes	yes	correct	task-tomspunt/H_362.jpg	22
52.19	0.892	tomspunt	healthy?	why_hand	yes	yes	correct	task-tomspunt/H_627.jpg	23
55.865	2.101	tomspunt	pressing button?	block_question_presentation	n/a	n/a	n/a	n/a	24
55.865	0.3	tomspunt	pressing button?	block_question_presentation	n/a	n/a	n/a	n/a	25
55.865	0.3	tomspunt	pressing button?	block_question_presentation	n/a	n/a	n/a	n/a	26
55.865	0.3	tomspunt	pressing button?	block_question_presentation	n/a	n/a	n/a	n/a	27
55.865	0.3	tomspunt	pressing button?	block_question_presentation	n/a	n/a	n/a	n/a	28
55.865	0.3	tomspunt	pressing button?	block_question_presentation	n/a	n/a	n/a	n/a	29
55.865	0.3	tomspunt	pressing button?	block_question_presentation	n/a	n/a	n/a	n/a	30
55.865	0.3	tomspunt	pressing button?	block_question_presentation	n/a	n/a	n/a	n/a	31
60.876	0.639	tomspunt	pressing button?	how_hand	yes	yes	correct	task-tomspunt/H_126.jpg	24
61.827	0.656	tomspunt	pressing button?	how_hand	yes	yes	correct	task-tomspunt/H_332.jpg	25
62.794	0.872	tomspunt	pressing button?	how_hand	no	no	correct	task-tomspunt/H_261.jpg	26
63.977	1.002	tomspunt	pressing button?	how_hand	no	no	correct	task-tomspunt/H_024.jpg	27
65.295	0.787	tomspunt	pressing button?	how_hand	yes	yes	correct	task-tomspunt/H_502.jpg	28
66.395	0.801	tomspunt	pressing button?	how_hand	no	no	correct	task-tomspunt/H_130.jpg	29
67.512	0.67	tomspunt	pressing button?	how_hand	yes	yes	correct	task-tomspunt/H_019.jpg	30
68.496	0.668	tomspunt	pressing button?	how_hand	yes	yes	correct	task-tomspunt/H_483.jpg	31
73.672	2.084	tomspunt	looking to side?	block_question_presentation	n/a	n/a	n/a	n/a	32
73.672	0.3	tomspunt	looking to side?	block_question_presentation	n/a	n/a	n/a	n/a	33
73.672	0.3	tomspunt	looking to side?	block_question_presentation	n/a	n/a	n/a	n/a	34
73.672	0.3	tomspunt	looking to side?	block_question_presentation	n/a	n/a	n/a	n/a	35
73.672	0.3	tomspunt	looking to side?	block_question_presentation	n/a	n/a	n/a	n/a	36
73.672	0.3	tomspunt	looking to side?	block_question_presentation	n/a	n/a	n/a	n/a	37
73.672	0.3	tomspunt	looking to side?	block_question_presentation	n/a	n/a	n/a	n/a	38
73.672	0.3	tomspunt	looking to side?	block_question_presentation	n/a	n/a	n/a	n/a	39
78.666	0.702	tomspunt	looking to side?	how_face	yes	yes	correct	task-tomspunt/F_590.jpg	32
79.683	0.835	tomspunt	looking to side?	how_face	no	yes	incorrect	task-tomspunt/F_110.jpg	33
80.834	0.752	tomspunt	looking to side?	how_face	yes	yes	correct	task-tomspunt/F_760.jpg	34
81.901	0.948	tomspunt	looking to side?	how_face	no	no	correct	task-tomspunt/F_779.jpg	35
83.151	0.764	tomspunt	looking to side?	how_face	yes	yes	correct	task-tomspunt/F_433.jpg	36
84.218	0.769	tomspunt	looking to side?	how_face	no	no	correct	task-tomspunt/F_798.jpg	37
85.302	0.619	tomspunt	looking to side?	how_face	yes	yes	correct	task-tomspunt/F_716.jpg	38
86.236	1.251	tomspunt	looking to side?	how_face	no	no	correct	task-tomspunt/F_111.jpg	39
92.712	2.101	tomspunt	argument?	block_question_presentation	n/a	n/a	n/a	n/a	40
92.712	0.3	tomspunt	argument?	block_question_presentation	n/a	n/a	n/a	n/a	41
92.712	0.3	tomspunt	argument?	block_question_presentation	n/a	n/a	n/a	n/a	42
92.712	0.3	tomspunt	argument?	block_question_presentation	n/a	n/a	n/a	n/a	43
92.712	0.3	tomspunt	argument?	block_question_presentation	n/a	n/a	n/a	n/a	44
92.712	0.3	tomspunt	argument?	block_question_presentation	n/a	n/a	n/a	n/a	45
92.712	0.3	tomspunt	argument?	block_question_presentation	n/a	n/a	n/a	n/a	46
92.712	0.3	tomspunt	argument?	block_question_presentation	n/a	n/a	n/a	n/a	47
97.723	0.693	tomspunt	argument?	why_face	yes	yes	correct	task-tomspunt/F_403.jpg	40
98.724	0.635	tomspunt	argument?	why_face	no	no	correct	task-tomspunt/F_139.jpg	41
99.674	0.719	tomspunt	argument?	why_face	yes	yes	correct	task-tomspunt/F_743.jpg	42
100.708	0.668	tomspunt	argument?	why_face	no	no	correct	task-tomspunt/F_433.jpg	43
101.691	1.191	tomspunt	argument?	why_face	yes	yes	correct	task-tomspunt/F_716.jpg	44
103.192	0.924	tomspunt	argument?	why_face	yes	yes	correct	task-tomspunt/F_758.jpg	45
104.426	0.79	tomspunt	argument?	why_face	no	no	correct	task-tomspunt/F_844.jpg	46
105.526	0.724	tomspunt	argument?	why_face	yes	yes	correct	task-tomspunt/F_712.jpg	47
115.204	2.084	tomspunt	self-protection?	block_question_presentation	n/a	n/a	n/a	n/a	48
115.204	0.3	tomspunt	self-protection?	block_question_presentation	n/a	n/a	n/a	n/a	49
115.204	0.3	tomspunt	self-protection?	block_question_presentation	n/a	n/a	n/a	n/a	50
115.204	0.3	tomspunt	self-protection?	block_question_presentation	n/a	n/a	n/a	n/a	51
115.204	0.3	tomspunt	self-protection?	block_question_presentation	n/a	n/a	n/a	n/a	52
115.204	0.3	tomspunt	self-protection?	block_question_presentation	n/a	n/a	n/a	n/a	53
115.204	0.3	tomspunt	self-protection?	block_question_presentation	n/a	n/a	n/a	n/a	54
115.204	0.3	tomspunt	self-protection?	block_question_presentation	n/a	n/a	n/a	n/a	55
120.198	1.319	tomspunt	self-protection?	why_hand	yes	yes	correct	task-tomspunt/H_189.jpg	48
121.832	1.069	tomspunt	self-protection?	why_hand	yes	yes	correct	task-tomspunt/H_038.jpg	49
123.216	1.233	tomspunt	self-protection?	why_hand	no	yes	incorrect	task-tomspunt/H_581.jpg	50
124.75	1.652	tomspunt	self-protection?	why_hand	no	no	correct	task-tomspunt/H_006.jpg	51
126.717	1.069	tomspunt	self-protection?	why_hand	yes	yes	correct	task-tomspunt/H_027.jpg	52
128.101	1.085	tomspunt	self-protection?	why_hand	no	no	correct	task-tomspunt/H_332.jpg	53
129.502	1.152	tomspunt	self-protection?	why_hand	yes	yes	correct	task-tomspunt/H_443.jpg	54
130.969	1.319	tomspunt	self-protection?	why_hand	no	no	correct	task-tomspunt/H_532.jpg	55
133.044	2.084	tomspunt	both hands?	block_question_presentation	n/a	n/a	n/a	n/a	56
133.044	0.3	tomspunt	both hands?	block_question_presentation	n/a	n/a	n/a	n/a	57
133.044	0.3	tomspunt	both hands?	block_question_presentation	n/a	n/a	n/a	n/a	58
133.044	0.3	tomspunt	both hands?	block_question_presentation	n/a	n/a	n/a	n/a	59
133.044	0.3	tomspunt	both hands?	block_question_presentation	n/a	n/a	n/a	n/a	60
133.044	0.3	tomspunt	both hands?	block_question_presentation	n/a	n/a	n/a	n/a	61
133.044	0.3	tomspunt	both hands?	block_question_presentation	n/a	n/a	n/a	n/a	62
133.044	0.3	tomspunt	both hands?	block_question_presentation	n/a	n/a	n/a	n/a	63
138.038	1.118	tomspunt	both hands?	how_hand	yes	yes	correct	task-tomspunt/H_581.jpg	56
139.472	0.876	tomspunt	both hands?	how_hand	yes	yes	correct	task-tomspunt/H_349.jpg	57
140.656	0.809	tomspunt	both hands?	how_hand	no	no	correct	task-tomspunt/H_159.jpg	58
141.773	1.093	tomspunt	both hands?	how_hand	yes	yes	correct	task-tomspunt/H_111.jpg	59
143.174	0.985	tomspunt	both hands?	how_hand	no	no	correct	task-tomspunt/H_627.jpg	60
144.474	1.292	tomspunt	both hands?	how_hand	yes	yes	correct	task-tomspunt/H_167.jpg	61
146.075	1.085	tomspunt	both hands?	how_hand	yes	yes	correct	task-tomspunt/H_027.jpg	62
147.475	0.874	tomspunt	both hands?	how_hand	no	no	correct	task-tomspunt/H_091.jpg	63
150.834	2.084	tomspunt	competing?	block_question_presentation	n/a	n/a	n/a	n/a	64
150.834	0.3	tomspunt	competing?	block_question_presentation	n/a	n/a	n/a	n/a	65
150.834	0.3	tomspunt	competing?	block_question_presentation	n/a	n/a	n/a	n/a	66
150.834	0.3	tomspunt	competing?	block_question_presentation	n/a	n/a	n/a	n/a	67
150.834	0.3	tomspunt	competing?	block_question_presentation	n/a	n/a	n/a	n/a	68
150.834	0.3	tomspunt	competing?	block_question_presentation	n/a	n/a	n/a	n/a	69
150.834	0.3	tomspunt	competing?	block_question_presentation	n/a	n/a	n/a	n/a	70
150.834	0.3	tomspunt	competing?	block_question_presentation	n/a	n/a	n/a	n/a	71
155.828	0.737	tomspunt	competing?	why_hand	yes	yes	correct	task-tomspunt/H_170.jpg	64
156.879	0.853	tomspunt	competing?	why_hand	yes	yes	correct	task-tomspunt/H_132.jpg	65
158.046	0.72	tomspunt	competing?	why_hand	no	no	correct	task-tomspunt/H_126.jpg	66
159.079	0.869	tomspunt	competing?	why_hand	yes	yes	correct	task-tomspunt/H_003.jpg	67
160.263	0.736	tomspunt	competing?	why_hand	no	no	correct	task-tomspunt/H_502.jpg	68
161.314	1.135	tomspunt	competing?	why_hand	yes	yes	correct	task-tomspunt/H_136.jpg	69
162.764	1.001	tomspunt	competing?	why_hand	no	no	correct	task-tomspunt/H_483.jpg	70
164.081	0.868	tomspunt	competing?	why_hand	yes	yes	correct	task-tomspunt/H_261.jpg	71
168.724	2.084	tomspunt	lifting?	block_question_presentation	n/a	n/a	n/a	n/a	72
168.724	0.3	tomspunt	lifting?	block_question_presentation	n/a	n/a	n/a	n/a	73
168.724	0.3	tomspunt	lifting?	block_question_presentation	n/a	n/a	n/a	n/a	74
168.724	0.3	tomspunt	lifting?	block_question_presentation	n/a	n/a	n/a	n/a	75
168.724	0.3	tomspunt	lifting?	block_question_presentation	n/a	n/a	n/a	n/a	76
168.724	0.3	tomspunt	lifting?	block_question_presentation	n/a	n/a	n/a	n/a	77
168.724	0.3	tomspunt	lifting?	block_question_presentation	n/a	n/a	n/a	n/a	78
168.724	0.3	tomspunt	lifting?	block_question_presentation	n/a	n/a	n/a	n/a	79
173.718	0.685	tomspunt	lifting?	how_hand	yes	yes	correct	task-tomspunt/H_362.jpg	72
174.719	0.851	tomspunt	lifting?	how_hand	no	no	correct	task-tomspunt/H_012.jpg	73
175.886	1.218	tomspunt	lifting?	how_hand	yes	yes	correct	task-tomspunt/H_136.jpg	74
177.42	1.129	tomspunt	lifting?	how_hand	no	yes	incorrect	task-tomspunt/H_189.jpg	75
178.854	0.818	tomspunt	lifting?	how_hand	yes	yes	correct	task-tomspunt/H_170.jpg	76
179.987	1.162	tomspunt	lifting?	how_hand	no	no	correct	task-tomspunt/H_077.jpg	77
181.455	0.894	tomspunt	lifting?	how_hand	yes	yes	correct	task-tomspunt/H_443.jpg	78
182.655	0.911	tomspunt	lifting?	how_hand	no	no	correct	task-tomspunt/H_038.jpg	79
186.781	2.101	tomspunt	open mouth?	block_question_presentation	n/a	n/a	n/a	n/a	80
186.781	0.3	tomspunt	open mouth?	block_question_presentation	n/a	n/a	n/a	n/a	81
186.781	0.3	tomspunt	open mouth?	block_question_presentation	n/a	n/a	n/a	n/a	82
186.781	0.3	tomspunt	open mouth?	block_question_presentation	n/a	n/a	n/a	n/a	83
186.781	0.3	tomspunt	open mouth?	block_question_presentation	n/a	n/a	n/a	n/a	84
186.781	0.3	tomspunt	open mouth?	block_question_presentation	n/a	n/a	n/a	n/a	85
186.781	0.3	tomspunt	open mouth?	block_question_presentation	n/a	n/a	n/a	n/a	86
186.781	0.3	tomspunt	open mouth?	block_question_presentation	n/a	n/a	n/a	n/a	87
191.792	0.54	tomspunt	open mouth?	how_face	yes	yes	correct	task-tomspunt/F_403.jpg	80
192.642	0.518	tomspunt	open mouth?	how_face	yes	yes	correct	task-tomspunt/F_086.jpg	81
193.476	0.506	tomspunt	open mouth?	how_face	yes	yes	correct	task-tomspunt/F_844.jpg	82
194.293	0.723	tomspunt	open mouth?	how_face	no	no	correct	task-tomspunt/F_544.jpg	83
195.326	0.639	tomspunt	open mouth?	how_face	yes	yes	correct	task-tomspunt/F_776.jpg	84
196.277	0.635	tomspunt	open mouth?	how_face	no	no	correct	task-tomspunt/F_648.jpg	85
197.227	0.539	tomspunt	open mouth?	how_face	yes	yes	correct	task-tomspunt/F_692.jpg	86
198.077	0.805	tomspunt	open mouth?	how_face	no	no	correct	task-tomspunt/F_584.jpg	87
204.304	2.101	tomspunt	proud?	block_question_presentation	n/a	n/a	n/a	n/a	88
204.304	0.3	tomspunt	proud?	block_question_presentation	n/a	n/a	n/a	n/a	89
204.304	0.3	tomspunt	proud?	block_question_presentation	n/a	n/a	n/a	n/a	90
204.304	0.3	tomspunt	proud?	block_question_presentation	n/a	n/a	n/a	n/a	91
204.304	0.3	tomspunt	proud?	block_question_presentation	n/a	n/a	n/a	n/a	92
204.304	0.3	tomspunt	proud?	block_question_presentation	n/a	n/a	n/a	n/a	93
204.304	0.3	tomspunt	proud?	block_question_presentation	n/a	n/a	n/a	n/a	94
204.304	0.3	tomspunt	proud?	block_question_presentation	n/a	n/a	n/a	n/a	95
209.315	0.718	tomspunt	proud?	why_face	yes	yes	correct	task-tomspunt/F_582.jpg	88
210.349	1.051	tomspunt	proud?	why_face	no	no	correct	task-tomspunt/F_776.jpg	89
211.716	0.719	tomspunt	proud?	why_face	yes	yes	correct	task-tomspunt/F_598.jpg	90
212.75	0.935	tomspunt	proud?	why_face	no	no	correct	task-tomspunt/F_412.jpg	91
214.0	0.735	tomspunt	proud?	why_face	yes	yes	correct	task-tomspunt/F_618.jpg	92
215.05	0.685	tomspunt	proud?	why_face	yes	yes	correct	task-tomspunt/F_083.jpg	93
216.051	0.735	tomspunt	proud?	why_face	yes	yes	correct	task-tomspunt/F_695.jpg	94
217.101	0.765	tomspunt	proud?	why_face	no	no	correct	task-tomspunt/F_760.jpg	95
222.528	2.101	tomspunt	helping?	block_question_presentation	n/a	n/a	n/a	n/a	96
222.528	0.3	tomspunt	helping?	block_question_presentation	n/a	n/a	n/a	n/a	97
222.528	0.3	tomspunt	helping?	block_question_presentation	n/a	n/a	n/a	n/a	98
222.528	0.3	tomspunt	helping?	block_question_presentation	n/a	n/a	n/a	n/a	99
222.528	0.3	tomspunt	helping?	block_question_presentation	n/a	n/a	n/a	n/a	100
222.528	0.3	tomspunt	helping?	block_question_presentation	n/a	n/a	n/a	n/a	101
222.528	0.3	tomspunt	helping?	block_question_presentation	n/a	n/a	n/a	n/a	102
222.528	0.3	tomspunt	helping?	block_question_presentation	n/a	n/a	n/a	n/a	103
227.538	1.186	tomspunt	helping?	why_hand	yes	yes	correct	task-tomspunt/H_024.jpg	96
229.039	1.001	tomspunt	helping?	why_hand	yes	yes	correct	task-tomspunt/H_474.jpg	97
230.356	0.652	tomspunt	helping?	why_hand	yes	yes	correct	task-tomspunt/H_349.jpg	98
231.323	0.942	tomspunt	helping?	why_hand	no	no	correct	task-tomspunt/H_091.jpg	99
232.574	0.859	tomspunt	helping?	why_hand	no	no	correct	task-tomspunt/H_012.jpg	100
233.741	1.058	tomspunt	helping?	why_hand	yes	yes	correct	task-tomspunt/H_077.jpg	101
235.108	1.001	tomspunt	helping?	why_hand	no	no	correct	task-tomspunt/H_159.jpg	102
236.425	0.89	tomspunt	helping?	why_hand	yes	yes	correct	task-tomspunt/H_111.jpg	103
240.051	2.101	tomspunt	reaching?	block_question_presentation	n/a	n/a	n/a	n/a	104
240.051	0.3	tomspunt	reaching?	block_question_presentation	n/a	n/a	n/a	n/a	105
240.051	0.3	tomspunt	reaching?	block_question_presentation	n/a	n/a	n/a	n/a	106
240.051	0.3	tomspunt	reaching?	block_question_presentation	n/a	n/a	n/a	n/a	107
240.051	0.3	tomspunt	reaching?	block_question_presentation	n/a	n/a	n/a	n/a	108
240.051	0.3	tomspunt	reaching?	block_question_presentation	n/a	n/a	n/a	n/a	109
240.051	0.3	tomspunt	reaching?	block_question_presentation	n/a	n/a	n/a	n/a	110
240.051	0.3	tomspunt	reaching?	block_question_presentation	n/a	n/a	n/a	n/a	111
245.062	0.821	tomspunt	reaching?	how_hand	yes	yes	correct	task-tomspunt/H_474.jpg	104
246.195	0.687	tomspunt	reaching?	how_hand	yes	yes	correct	task-tomspunt/H_003.jpg	105
247.196	0.837	tomspunt	reaching?	how_hand	no	no	correct	task-tomspunt/H_132.jpg	106
248.346	0.82	tomspunt	reaching?	how_hand	yes	yes	correct	task-tomspunt/H_364.jpg	107
249.48	1.085	tomspunt	reaching?	how_hand	yes	yes	correct	task-tomspunt/H_006.jpg	108
250.88	1.052	tomspunt	reaching?	how_hand	no	no	correct	task-tomspunt/H_532.jpg	109
252.248	1.335	tomspunt	reaching?	how_hand	no	no	correct	task-tomspunt/H_438.jpg	110
253.898	0.785	tomspunt	reaching?	how_hand	yes	yes	correct	task-tomspunt/H_007.jpg	111
258.841	2.101	tomspunt	looking at camera?	block_question_presentation	n/a	n/a	n/a	n/a	112
258.841	0.3	tomspunt	looking at camera?	block_question_presentation	n/a	n/a	n/a	n/a	113
258.841	0.3	tomspunt	looking at camera?	block_question_presentation	n/a	n/a	n/a	n/a	114
258.841	0.3	tomspunt	looking at camera?	block_question_presentation	n/a	n/a	n/a	n/a	115
258.841	0.3	tomspunt	looking at camera?	block_question_presentation	n/a	n/a	n/a	n/a	116
258.841	0.3	tomspunt	looking at camera?	block_question_presentation	n/a	n/a	n/a	n/a	117
258.841	0.3	tomspunt	looking at camera?	block_question_presentation	n/a	n/a	n/a	n/a	118
258.841	0.3	tomspunt	looking at camera?	block_question_presentation	n/a	n/a	n/a	n/a	119
263.852	0.897	tomspunt	looking at camera?	how_face	yes	yes	correct	task-tomspunt/F_618.jpg	112
265.052	0.652	tomspunt	looking at camera?	how_face	no	no	correct	task-tomspunt/F_743.jpg	113
266.019	0.585	tomspunt	looking at camera?	how_face	yes	yes	correct	task-tomspunt/F_598.jpg	114
266.92	0.718	tomspunt	looking at camera?	how_face	yes	yes	correct	task-tomspunt/F_774.jpg	115
267.953	0.618	tomspunt	looking at camera?	how_face	yes	yes	correct	task-tomspunt/F_129.jpg	116
268.887	0.635	tomspunt	looking at camera?	how_face	yes	yes	correct	task-tomspunt/F_128.jpg	117
269.837	0.935	tomspunt	looking at camera?	how_face	no	no	correct	task-tomspunt/F_582.jpg	118
271.088	0.751	tomspunt	looking at camera?	how_face	no	no	correct	task-tomspunt/F_754.jpg	119
280.332	2.084	tomspunt	self-doubt?	block_question_presentation	n/a	n/a	n/a	n/a	120
280.332	0.3	tomspunt	self-doubt?	block_question_presentation	n/a	n/a	n/a	n/a	121
280.332	0.3	tomspunt	self-doubt?	block_question_presentation	n/a	n/a	n/a	n/a	122
280.332	0.3	tomspunt	self-doubt?	block_question_presentation	n/a	n/a	n/a	n/a	123
280.332	0.3	tomspunt	self-doubt?	block_question_presentation	n/a	n/a	n/a	n/a	124
280.332	0.3	tomspunt	self-doubt?	block_question_presentation	n/a	n/a	n/a	n/a	125
280.332	0.3	tomspunt	self-doubt?	block_question_presentation	n/a	n/a	n/a	n/a	126
280.332	0.3	tomspunt	self-doubt?	block_question_presentation	n/a	n/a	n/a	n/a	127
285.327	1.256	tomspunt	self-doubt?	why_face	yes	yes	correct	task-tomspunt/F_798.jpg	120
286.894	0.955	tomspunt	self-doubt?	why_face	no	no	correct	task-tomspunt/F_128.jpg	121
288.161	0.837	tomspunt	self-doubt?	why_face	yes	yes	correct	task-tomspunt/F_754.jpg	122
289.311	0.754	tomspunt	self-doubt?	why_face	yes	yes	correct	task-tomspunt/F_544.jpg	123
290.378	1.454	tomspunt	self-doubt?	why_face	no	no	correct	task-tomspunt/F_086.jpg	124
292.146	1.036	tomspunt	self-doubt?	why_face	yes	yes	correct	task-tomspunt/F_111.jpg	125
293.496	0.769	tomspunt	self-doubt?	why_face	no	no	correct	task-tomspunt/F_774.jpg	126
294.58	1.552	tomspunt	self-doubt?	why_face	no	yes	incorrect	task-tomspunt/F_584.jpg	127
298.206	2.101	tomspunt	reaching?	block_question_presentation	n/a	n/a	n/a	n/a	128
298.206	0.3	tomspunt	reaching?	block_question_presentation	n/a	n/a	n/a	n/a	129
298.206	0.3	tomspunt	reaching?	block_question_presentation	n/a	n/a	n/a	n/a	130
298.206	0.3	tomspunt	reaching?	block_question_presentation	n/a	n/a	n/a	n/a	131
298.206	0.3	tomspunt	reaching?	block_question_presentation	n/a	n/a	n/a	n/a	132
298.206	0.3	tomspunt	reaching?	block_question_presentation	n/a	n/a	n/a	n/a	133
298.206	0.3	tomspunt	reaching?	block_question_presentation	n/a	n/a	n/a	n/a	134
298.206	0.3	tomspunt	reaching?	block_question_presentation	n/a	n/a	n/a	n/a	135
303.217	0.632	tomspunt	reaching?	how_hand	yes	yes	correct	task-tomspunt/H_006.jpg	128
304.15	0.918	tomspunt	reaching?	how_hand	no	no	correct	task-tomspunt/H_438.jpg	129
305.384	0.598	tomspunt	reaching?	how_hand	yes	yes	correct	task-tomspunt/H_003.jpg	130
306.284	0.635	tomspunt	reaching?	how_hand	yes	yes	correct	task-tomspunt/H_474.jpg	131
307.235	0.652	tomspunt	reaching?	how_hand	no	no	correct	task-tomspunt/H_532.jpg	132
308.202	0.635	tomspunt	reaching?	how_hand	yes	yes	correct	task-tomspunt/H_364.jpg	133
309.152	0.518	tomspunt	reaching?	how_hand	yes	yes	correct	task-tomspunt/H_007.jpg	134
309.986	0.885	tomspunt	reaching?	how_hand	no	no	correct	task-tomspunt/H_132.jpg	135
320.697	2.101	tomspunt	healthy?	block_question_presentation	n/a	n/a	n/a	n/a	136
320.697	0.3	tomspunt	healthy?	block_question_presentation	n/a	n/a	n/a	n/a	137
320.697	0.3	tomspunt	healthy?	block_question_presentation	n/a	n/a	n/a	n/a	138
320.697	0.3	tomspunt	healthy?	block_question_presentation	n/a	n/a	n/a	n/a	139
320.697	0.3	tomspunt	healthy?	block_question_presentation	n/a	n/a	n/a	n/a	140
320.697	0.3	tomspunt	healthy?	block_question_presentation	n/a	n/a	n/a	n/a	141
320.697	0.3	tomspunt	healthy?	block_question_presentation	n/a	n/a	n/a	n/a	142
320.697	0.3	tomspunt	healthy?	block_question_presentation	n/a	n/a	n/a	n/a	143
325.708	n/a	tomspunt	healthy?	why_hand	n/a	yes	incorrect	task-tomspunt/H_438.jpg	136
327.742	1.023	tomspunt	healthy?	why_hand	no	no	correct	task-tomspunt/H_007.jpg	137
329.076	1.306	tomspunt	healthy?	why_hand	yes	yes	correct	task-tomspunt/H_364.jpg	138
330.693	0.839	tomspunt	healthy?	why_hand	no	no	correct	task-tomspunt/H_019.jpg	139
331.844	0.701	tomspunt	healthy?	why_hand	yes	yes	correct	task-tomspunt/H_167.jpg	140
332.861	1.237	tomspunt	healthy?	why_hand	no	no	correct	task-tomspunt/H_130.jpg	141
334.412	0.871	tomspunt	healthy?	why_hand	yes	yes	correct	task-tomspunt/H_627.jpg	142
335.595	0.853	tomspunt	healthy?	why_hand	yes	yes	correct	task-tomspunt/H_362.jpg	143
338.771	2.101	tomspunt	proud?	block_question_presentation	n/a	n/a	n/a	n/a	144
338.771	0.3	tomspunt	proud?	block_question_presentation	n/a	n/a	n/a	n/a	145
338.771	0.3	tomspunt	proud?	block_question_presentation	n/a	n/a	n/a	n/a	146
338.771	0.3	tomspunt	proud?	block_question_presentation	n/a	n/a	n/a	n/a	147
338.771	0.3	tomspunt	proud?	block_question_presentation	n/a	n/a	n/a	n/a	148
338.771	0.3	tomspunt	proud?	block_question_presentation	n/a	n/a	n/a	n/a	149
338.771	0.3	tomspunt	proud?	block_question_presentation	n/a	n/a	n/a	n/a	150
338.771	0.3	tomspunt	proud?	block_question_presentation	n/a	n/a	n/a	n/a	151
343.782	0.634	tomspunt	proud?	why_face	yes	yes	correct	task-tomspunt/F_083.jpg	144
344.715	0.668	tomspunt	proud?	why_face	no	no	correct	task-tomspunt/F_412.jpg	145
345.699	0.752	tomspunt	proud?	why_face	yes	yes	correct	task-tomspunt/F_695.jpg	146
346.766	0.602	tomspunt	proud?	why_face	yes	yes	correct	task-tomspunt/F_598.jpg	147
347.683	0.718	tomspunt	proud?	why_face	yes	yes	correct	task-tomspunt/F_618.jpg	148
348.717	0.651	tomspunt	proud?	why_face	yes	yes	correct	task-tomspunt/F_582.jpg	149
349.684	0.585	tomspunt	proud?	why_face	no	no	correct	task-tomspunt/F_760.jpg	150
350.584	0.998	tomspunt	proud?	why_face	no	no	correct	task-tomspunt/F_776.jpg	151
360.246	2.101	tomspunt	smiling?	block_question_presentation	n/a	n/a	n/a	n/a	152
360.246	0.3	tomspunt	smiling?	block_question_presentation	n/a	n/a	n/a	n/a	153
360.246	0.3	tomspunt	smiling?	block_question_presentation	n/a	n/a	n/a	n/a	154
360.246	0.3	tomspunt	smiling?	block_question_presentation	n/a	n/a	n/a	n/a	155
360.246	0.3	tomspunt	smiling?	block_question_presentation	n/a	n/a	n/a	n/a	156
360.246	0.3	tomspunt	smiling?	block_question_presentation	n/a	n/a	n/a	n/a	157
360.246	0.3	tomspunt	smiling?	block_question_presentation	n/a	n/a	n/a	n/a	158
360.246	0.3	tomspunt	smiling?	block_question_presentation	n/a	n/a	n/a	n/a	159
365.256	0.526	tomspunt	smiling?	how_face	yes	yes	correct	task-tomspunt/F_695.jpg	152
366.09	0.719	tomspunt	smiling?	how_face	no	no	correct	task-tomspunt/F_412.jpg	153
367.124	0.519	tomspunt	smiling?	how_face	yes	yes	correct	task-tomspunt/F_083.jpg	154
367.957	0.542	tomspunt	smiling?	how_face	yes	yes	correct	task-tomspunt/F_593.jpg	155
368.808	0.741	tomspunt	smiling?	how_face	no	no	correct	task-tomspunt/F_712.jpg	156
369.858	0.557	tomspunt	smiling?	how_face	yes	yes	correct	task-tomspunt/F_139.jpg	157
370.725	0.541	tomspunt	smiling?	how_face	yes	yes	correct	task-tomspunt/F_759.jpg	158
371.575	0.623	tomspunt	smiling?	how_face	no	no	correct	task-tomspunt/F_758.jpg	159
379.353	2.101	tomspunt	both hands?	block_question_presentation	n/a	n/a	n/a	n/a	160
379.353	0.3	tomspunt	both hands?	block_question_presentation	n/a	n/a	n/a	n/a	161
379.353	0.3	tomspunt	both hands?	block_question_presentation	n/a	n/a	n/a	n/a	162
379.353	0.3	tomspunt	both hands?	block_question_presentation	n/a	n/a	n/a	n/a	163
379.353	0.3	tomspunt	both hands?	block_question_presentation	n/a	n/a	n/a	n/a	164
379.353	0.3	tomspunt	both hands?	block_question_presentation	n/a	n/a	n/a	n/a	165
379.353	0.3	tomspunt	both hands?	block_question_presentation	n/a	n/a	n/a	n/a	166
379.353	0.3	tomspunt	both hands?	block_question_presentation	n/a	n/a	n/a	n/a	167
384.364	0.635	tomspunt	both hands?	how_hand	yes	yes	correct	task-tomspunt/H_167.jpg	160
385.314	0.635	tomspunt	both hands?	how_hand	no	no	correct	task-tomspunt/H_159.jpg	161
386.264	0.585	tomspunt	both hands?	how_hand	yes	yes	correct	task-tomspunt/H_027.jpg	162
387.165	0.769	tomspunt	both hands?	how_hand	yes	yes	correct	task-tomspunt/H_581.jpg	163
388.248	1.102	tomspunt	both hands?	how_hand	no	no	correct	task-tomspunt/H_091.jpg	164
389.665	0.852	tomspunt	both hands?	how_hand	yes	yes	correct	task-tomspunt/H_111.jpg	165
390.833	0.852	tomspunt	both hands?	how_hand	no	no	correct	task-tomspunt/H_627.jpg	166
392.0	0.552	tomspunt	both hands?	how_hand	yes	yes	correct	task-tomspunt/H_349.jpg	167
396.876	2.101	tomspunt	helping?	block_question_presentation	n/a	n/a	n/a	n/a	168
396.876	0.3	tomspunt	helping?	block_question_presentation	n/a	n/a	n/a	n/a	169
396.876	0.3	tomspunt	helping?	block_question_presentation	n/a	n/a	n/a	n/a	170
396.876	0.3	tomspunt	helping?	block_question_presentation	n/a	n/a	n/a	n/a	171
396.876	0.3	tomspunt	helping?	block_question_presentation	n/a	n/a	n/a	n/a	172
396.876	0.3	tomspunt	helping?	block_question_presentation	n/a	n/a	n/a	n/a	173
396.876	0.3	tomspunt	helping?	block_question_presentation	n/a	n/a	n/a	n/a	174
396.876	0.3	tomspunt	helping?	block_question_presentation	n/a	n/a	n/a	n/a	175
401.887	0.629	tomspunt	helping?	why_hand	yes	yes	correct	task-tomspunt/H_111.jpg	168
402.82	0.762	tomspunt	helping?	why_hand	yes	yes	correct	task-tomspunt/H_077.jpg	169
403.887	0.752	tomspunt	helping?	why_hand	no	no	correct	task-tomspunt/H_159.jpg	170
404.955	0.685	tomspunt	helping?	why_hand	yes	yes	correct	task-tomspunt/H_474.jpg	171
405.955	0.818	tomspunt	helping?	why_hand	no	no	correct	task-tomspunt/H_012.jpg	172
407.089	1.127	tomspunt	helping?	why_hand	yes	yes	correct	task-tomspunt/H_024.jpg	173
408.523	0.893	tomspunt	helping?	why_hand	no	no	correct	task-tomspunt/H_091.jpg	174
409.723	0.652	tomspunt	helping?	why_hand	yes	yes	correct	task-tomspunt/H_349.jpg	175
414.416	2.101	tomspunt	self-doubt?	block_question_presentation	n/a	n/a	n/a	n/a	176
414.416	0.3	tomspunt	self-doubt?	block_question_presentation	n/a	n/a	n/a	n/a	177
414.416	0.3	tomspunt	self-doubt?	block_question_presentation	n/a	n/a	n/a	n/a	178
414.416	0.3	tomspunt	self-doubt?	block_question_presentation	n/a	n/a	n/a	n/a	179
414.416	0.3	tomspunt	self-doubt?	block_question_presentation	n/a	n/a	n/a	n/a	180
414.416	0.3	tomspunt	self-doubt?	block_question_presentation	n/a	n/a	n/a	n/a	181
414.416	0.3	tomspunt	self-doubt?	block_question_presentation	n/a	n/a	n/a	n/a	182
414.416	0.3	tomspunt	self-doubt?	block_question_presentation	n/a	n/a	n/a	n/a	183
419.427	0.755	tomspunt	self-doubt?	why_face	no	yes	incorrect	task-tomspunt/F_754.jpg	176
420.494	1.122	tomspunt	self-doubt?	why_face	no	no	correct	task-tomspunt/F_128.jpg	177
421.928	0.738	tomspunt	self-doubt?	why_face	yes	yes	correct	task-tomspunt/F_544.jpg	178
422.978	0.938	tomspunt	self-doubt?	why_face	no	no	correct	task-tomspunt/F_086.jpg	179
424.228	0.687	tomspunt	self-doubt?	why_face	yes	yes	correct	task-tomspunt/F_798.jpg	180
425.229	0.82	tomspunt	self-doubt?	why_face	no	yes	incorrect	task-tomspunt/F_584.jpg	181
426.362	0.886	tomspunt	self-doubt?	why_face	yes	yes	correct	task-tomspunt/F_111.jpg	182
427.563	0.753	tomspunt	self-doubt?	why_face	no	no	correct	task-tomspunt/F_774.jpg	183
433.206	2.101	tomspunt	looking to side?	block_question_presentation	n/a	n/a	n/a	n/a	184
433.206	0.3	tomspunt	looking to side?	block_question_presentation	n/a	n/a	n/a	n/a	185
433.206	0.3	tomspunt	looking to side?	block_question_presentation	n/a	n/a	n/a	n/a	186
433.206	0.3	tomspunt	looking to side?	block_question_presentation	n/a	n/a	n/a	n/a	187
433.206	0.3	tomspunt	looking to side?	block_question_presentation	n/a	n/a	n/a	n/a	188
433.206	0.3	tomspunt	looking to side?	block_question_presentation	n/a	n/a	n/a	n/a	189
433.206	0.3	tomspunt	looking to side?	block_question_presentation	n/a	n/a	n/a	n/a	190
433.206	0.3	tomspunt	looking to side?	block_question_presentation	n/a	n/a	n/a	n/a	191
438.217	0.919	tomspunt	looking to side?	how_face	yes	yes	correct	task-tomspunt/F_433.jpg	184
439.451	1.119	tomspunt	looking to side?	how_face	no	no	correct	task-tomspunt/F_779.jpg	185
440.885	1.085	tomspunt	looking to side?	how_face	yes	yes	correct	task-tomspunt/F_760.jpg	186
442.285	0.947	tomspunt	looking to side?	how_face	no	no	correct	task-tomspunt/F_111.jpg	187
443.536	0.93	tomspunt	looking to side?	how_face	yes	no	incorrect	task-tomspunt/F_798.jpg	188
444.769	0.935	tomspunt	looking to side?	how_face	yes	yes	correct	task-tomspunt/F_716.jpg	189
446.02	0.846	tomspunt	looking to side?	how_face	yes	yes	correct	task-tomspunt/F_590.jpg	190
447.17	0.862	tomspunt	looking to side?	how_face	no	yes	incorrect	task-tomspunt/F_110.jpg	191
451.079	2.101	tomspunt	argument?	block_question_presentation	n/a	n/a	n/a	n/a	192
451.079	0.3	tomspunt	argument?	block_question_presentation	n/a	n/a	n/a	n/a	193
451.079	0.3	tomspunt	argument?	block_question_presentation	n/a	n/a	n/a	n/a	194
451.079	0.3	tomspunt	argument?	block_question_presentation	n/a	n/a	n/a	n/a	195
451.079	0.3	tomspunt	argument?	block_question_presentation	n/a	n/a	n/a	n/a	196
451.079	0.3	tomspunt	argument?	block_question_presentation	n/a	n/a	n/a	n/a	197
451.079	0.3	tomspunt	argument?	block_question_presentation	n/a	n/a	n/a	n/a	198
451.079	0.3	tomspunt	argument?	block_question_presentation	n/a	n/a	n/a	n/a	199
456.09	0.958	tomspunt	argument?	why_face	yes	yes	correct	task-tomspunt/F_716.jpg	192
457.357	0.691	tomspunt	argument?	why_face	no	no	correct	task-tomspunt/F_139.jpg	193
458.358	0.868	tomspunt	argument?	why_face	yes	yes	correct	task-tomspunt/F_743.jpg	194
459.542	0.735	tomspunt	argument?	why_face	yes	yes	correct	task-tomspunt/F_403.jpg	195
460.592	0.902	tomspunt	argument?	why_face	yes	yes	correct	task-tomspunt/F_758.jpg	196
461.809	0.573	tomspunt	argument?	why_face	no	no	correct	task-tomspunt/F_844.jpg	197
462.693	1.14	tomspunt	argument?	why_face	yes	yes	correct	task-tomspunt/F_712.jpg	198
464.143	0.022	tomspunt	argument?	why_face	no	no	correct	task-tomspunt/F_433.jpg	199
470.187	2.101	tomspunt	open mouth?	block_question_presentation	n/a	n/a	n/a	n/a	200
470.187	0.3	tomspunt	open mouth?	block_question_presentation	n/a	n/a	n/a	n/a	201
470.187	0.3	tomspunt	open mouth?	block_question_presentation	n/a	n/a	n/a	n/a	202
470.187	0.3	tomspunt	open mouth?	block_question_presentation	n/a	n/a	n/a	n/a	203
470.187	0.3	tomspunt	open mouth?	block_question_presentation	n/a	n/a	n/a	n/a	204
470.187	0.3	tomspunt	open mouth?	block_question_presentation	n/a	n/a	n/a	n/a	205
470.187	0.3	tomspunt	open mouth?	block_question_presentation	n/a	n/a	n/a	n/a	206
470.187	0.3	tomspunt	open mouth?	block_question_presentation	n/a	n/a	n/a	n/a	207
475.197	0.485	tomspunt	open mouth?	how_face	yes	yes	correct	task-tomspunt/F_844.jpg	200
475.998	0.501	tomspunt	open mouth?	how_face	yes	yes	correct	task-tomspunt/F_692.jpg	201
476.815	0.501	tomspunt	open mouth?	how_face	no	no	correct	task-tomspunt/F_584.jpg	202
477.632	0.619	tomspunt	open mouth?	how_face	yes	yes	correct	task-tomspunt/F_086.jpg	203
478.565	0.619	tomspunt	open mouth?	how_face	yes	yes	correct	task-tomspunt/F_403.jpg	204
479.499	0.585	tomspunt	open mouth?	how_face	no	no	correct	task-tomspunt/F_544.jpg	205
480.399	0.585	tomspunt	open mouth?	how_face	no	no	correct	task-tomspunt/F_648.jpg	206
481.3	0.582	tomspunt	open mouth?	how_face	yes	yes	correct	task-tomspunt/F_776.jpg	207
489.144	2.101	tomspunt	lifting?	block_question_presentation	n/a	n/a	n/a	n/a	208
489.144	0.3	tomspunt	lifting?	block_question_presentation	n/a	n/a	n/a	n/a	209
489.144	0.3	tomspunt	lifting?	block_question_presentation	n/a	n/a	n/a	n/a	210
489.144	0.3	tomspunt	lifting?	block_question_presentation	n/a	n/a	n/a	n/a	211
489.144	0.3	tomspunt	lifting?	block_question_presentation	n/a	n/a	n/a	n/a	212
489.144	0.3	tomspunt	lifting?	block_question_presentation	n/a	n/a	n/a	n/a	213
489.144	0.3	tomspunt	lifting?	block_question_presentation	n/a	n/a	n/a	n/a	214
489.144	0.3	tomspunt	lifting?	block_question_presentation	n/a	n/a	n/a	n/a	215
494.154	0.544	tomspunt	lifting?	how_hand	yes	yes	correct	task-tomspunt/H_170.jpg	208
495.005	1.044	tomspunt	lifting?	how_hand	no	no	correct	task-tomspunt/H_077.jpg	209
496.355	0.694	tomspunt	lifting?	how_hand	yes	yes	correct	task-tomspunt/H_189.jpg	210
497.356	0.652	tomspunt	lifting?	how_hand	yes	yes	correct	task-tomspunt/H_362.jpg	211
498.323	0.801	tomspunt	lifting?	how_hand	no	no	correct	task-tomspunt/H_012.jpg	212
499.44	0.609	tomspunt	lifting?	how_hand	yes	yes	correct	task-tomspunt/H_443.jpg	213
500.357	0.825	tomspunt	lifting?	how_hand	yes	yes	correct	task-tomspunt/H_136.jpg	214
501.491	1.019	tomspunt	lifting?	how_hand	no	no	correct	task-tomspunt/H_038.jpg	215
506.667	2.101	tomspunt	competing?	block_question_presentation	n/a	n/a	n/a	n/a	216
506.667	0.3	tomspunt	competing?	block_question_presentation	n/a	n/a	n/a	n/a	217
506.667	0.3	tomspunt	competing?	block_question_presentation	n/a	n/a	n/a	n/a	218
506.667	0.3	tomspunt	competing?	block_question_presentation	n/a	n/a	n/a	n/a	219
506.667	0.3	tomspunt	competing?	block_question_presentation	n/a	n/a	n/a	n/a	220
506.667	0.3	tomspunt	competing?	block_question_presentation	n/a	n/a	n/a	n/a	221
506.667	0.3	tomspunt	competing?	block_question_presentation	n/a	n/a	n/a	n/a	222
506.667	0.3	tomspunt	competing?	block_question_presentation	n/a	n/a	n/a	n/a	223
511.678	0.535	tomspunt	competing?	why_hand	yes	yes	correct	task-tomspunt/H_003.jpg	216
512.528	0.638	tomspunt	competing?	why_hand	no	no	correct	task-tomspunt/H_483.jpg	217
513.478	0.554	tomspunt	competing?	why_hand	yes	yes	correct	task-tomspunt/H_132.jpg	218
514.345	0.487	tomspunt	competing?	why_hand	yes	yes	correct	task-tomspunt/H_170.jpg	219
515.146	0.603	tomspunt	competing?	why_hand	no	no	correct	task-tomspunt/H_502.jpg	220
516.063	0.953	tomspunt	competing?	why_hand	yes	yes	correct	task-tomspunt/H_136.jpg	221
517.33	0.802	tomspunt	competing?	why_hand	no	no	correct	task-tomspunt/H_126.jpg	222
518.447	0.502	tomspunt	competing?	why_hand	yes	yes	correct	task-tomspunt/H_261.jpg	223
524.54	2.101	tomspunt	admiring?	block_question_presentation	n/a	n/a	n/a	n/a	224
524.54	0.3	tomspunt	admiring?	block_question_presentation	n/a	n/a	n/a	n/a	225
524.54	0.3	tomspunt	admiring?	block_question_presentation	n/a	n/a	n/a	n/a	226
524.54	0.3	tomspunt	admiring?	block_question_presentation	n/a	n/a	n/a	n/a	227
524.54	0.3	tomspunt	admiring?	block_question_presentation	n/a	n/a	n/a	n/a	228
524.54	0.3	tomspunt	admiring?	block_question_presentation	n/a	n/a	n/a	n/a	229
524.54	0.3	tomspunt	admiring?	block_question_presentation	n/a	n/a	n/a	n/a	230
524.54	0.3	tomspunt	admiring?	block_question_presentation	n/a	n/a	n/a	n/a	231
529.551	0.452	tomspunt	admiring?	why_face	yes	yes	correct	task-tomspunt/F_759.jpg	224
530.318	0.535	tomspunt	admiring?	why_face	yes	yes	correct	task-tomspunt/F_593.jpg	225
531.168	0.497	tomspunt	admiring?	why_face	no	no	correct	task-tomspunt/F_692.jpg	226
531.969	0.502	tomspunt	admiring?	why_face	yes	yes	correct	task-tomspunt/F_590.jpg	227
532.786	0.514	tomspunt	admiring?	why_face	no	no	correct	task-tomspunt/F_129.jpg	228
533.602	0.535	tomspunt	admiring?	why_face	yes	yes	correct	task-tomspunt/F_648.jpg	229
534.453	0.501	tomspunt	admiring?	why_face	no	no	correct	task-tomspunt/F_110.jpg	230
535.27	0.568	tomspunt	admiring?	why_face	yes	yes	correct	task-tomspunt/F_779.jpg	231
542.08	2.084	tomspunt	looking at camera?	block_question_presentation	n/a	n/a	n/a	n/a	232
542.08	0.3	tomspunt	looking at camera?	block_question_presentation	n/a	n/a	n/a	n/a	233
542.08	0.3	tomspunt	looking at camera?	block_question_presentation	n/a	n/a	n/a	n/a	234
542.08	0.3	tomspunt	looking at camera?	block_question_presentation	n/a	n/a	n/a	n/a	235
542.08	0.3	tomspunt	looking at camera?	block_question_presentation	n/a	n/a	n/a	n/a	236
542.08	0.3	tomspunt	looking at camera?	block_question_presentation	n/a	n/a	n/a	n/a	237
542.08	0.3	tomspunt	looking at camera?	block_question_presentation	n/a	n/a	n/a	n/a	238
542.08	0.3	tomspunt	looking at camera?	block_question_presentation	n/a	n/a	n/a	n/a	239
547.074	1.051	tomspunt	looking at camera?	how_face	yes	yes	correct	task-tomspunt/F_128.jpg	232
548.441	0.658	tomspunt	looking at camera?	how_face	no	no	correct	task-tomspunt/F_754.jpg	233
549.408	0.49	tomspunt	looking at camera?	how_face	yes	yes	correct	task-tomspunt/F_598.jpg	234
550.209	0.502	tomspunt	looking at camera?	how_face	yes	yes	correct	task-tomspunt/F_129.jpg	235
551.026	0.502	tomspunt	looking at camera?	how_face	yes	yes	correct	task-tomspunt/F_618.jpg	236
551.843	0.568	tomspunt	looking at camera?	how_face	no	no	correct	task-tomspunt/F_743.jpg	237
552.726	0.535	tomspunt	looking at camera?	how_face	yes	yes	correct	task-tomspunt/F_774.jpg	238
553.577	0.635	tomspunt	looking at camera?	how_face	no	no	correct	task-tomspunt/F_582.jpg	239
560.754	2.101	tomspunt	pressing button?	block_question_presentation	n/a	n/a	n/a	n/a	240
560.754	0.3	tomspunt	pressing button?	block_question_presentation	n/a	n/a	n/a	n/a	241
560.754	0.3	tomspunt	pressing button?	block_question_presentation	n/a	n/a	n/a	n/a	242
560.754	0.3	tomspunt	pressing button?	block_question_presentation	n/a	n/a	n/a	n/a	243
560.754	0.3	tomspunt	pressing button?	block_question_presentation	n/a	n/a	n/a	n/a	244
560.754	0.3	tomspunt	pressing button?	block_question_presentation	n/a	n/a	n/a	n/a	245
560.754	0.3	tomspunt	pressing button?	block_question_presentation	n/a	n/a	n/a	n/a	246
560.754	0.3	tomspunt	pressing button?	block_question_presentation	n/a	n/a	n/a	n/a	247
565.764	0.468	tomspunt	pressing button?	how_hand	yes	yes	correct	task-tomspunt/H_019.jpg	240
566.548	0.468	tomspunt	pressing button?	how_hand	yes	yes	correct	task-tomspunt/H_126.jpg	241
567.332	0.585	tomspunt	pressing button?	how_hand	no	no	correct	task-tomspunt/H_130.jpg	242
568.232	0.685	tomspunt	pressing button?	how_hand	yes	yes	correct	task-tomspunt/H_332.jpg	243
569.232	0.735	tomspunt	pressing button?	how_hand	no	no	correct	task-tomspunt/H_024.jpg	244
570.283	0.532	tomspunt	pressing button?	how_hand	yes	yes	correct	task-tomspunt/H_483.jpg	245
571.116	0.668	tomspunt	pressing button?	how_hand	no	no	correct	task-tomspunt/H_261.jpg	246
572.1	0.535	tomspunt	pressing button?	how_hand	yes	yes	correct	task-tomspunt/H_502.jpg	247
578.96	2.101	tomspunt	self-protection?	block_question_presentation	n/a	n/a	n/a	n/a	248
578.96	0.3	tomspunt	self-protection?	block_question_presentation	n/a	n/a	n/a	n/a	249
578.96	0.3	tomspunt	self-protection?	block_question_presentation	n/a	n/a	n/a	n/a	250
578.96	0.3	tomspunt	self-protection?	block_question_presentation	n/a	n/a	n/a	n/a	251
578.96	0.3	tomspunt	self-protection?	block_question_presentation	n/a	n/a	n/a	n/a	252
578.96	0.3	tomspunt	self-protection?	block_question_presentation	n/a	n/a	n/a	n/a	253
578.96	0.3	tomspunt	self-protection?	block_question_presentation	n/a	n/a	n/a	n/a	254
578.96	0.3	tomspunt	self-protection?	block_question_presentation	n/a	n/a	n/a	n/a	255
583.971	0.451	tomspunt	self-protection?	why_hand	yes	yes	correct	task-tomspunt/H_443.jpg	248
584.738	0.801	tomspunt	self-protection?	why_hand	yes	yes	correct	task-tomspunt/H_189.jpg	249
585.855	0.777	tomspunt	self-protection?	why_hand	yes	yes	correct	task-tomspunt/H_027.jpg	250
586.939	0.652	tomspunt	self-protection?	why_hand	no	no	correct	task-tomspunt/H_532.jpg	251
587.906	0.659	tomspunt	self-protection?	why_hand	yes	yes	correct	task-tomspunt/H_038.jpg	252
588.873	0.809	tomspunt	self-protection?	why_hand	no	no	correct	task-tomspunt/H_006.jpg	253
589.99	0.876	tomspunt	self-protection?	why_hand	no	no	correct	task-tomspunt/H_332.jpg	254
591.174	0.585	tomspunt	self-protection?	why_hand	yes	yes	correct	task-tomspunt/H_581.jpg	255
