onset	duration	run_type	trial_type	trial_index	cue	stimulusintensity	rating_value	rating_glmslabel	rating_value_fillna	rating_glmslabel_fillna	rating_mouseonset	rating_mousedur	stim_file	pain_onset_ttl1	pain_onset_ttl2	pain_onset_ttl3	pain_onset_ttl4	pain_stimulus_delivery_success	cognitive_correct_response	cognitive_participant_response	cognitive_response_accuracy
5.69	0.99	vicarious	cue	1	low_cue	n/a	n/a	n/a	n/a	n/a	n/a	n/a	task-social/cue/runtype-vicarious/scl/l015.png	n/a	n/a	n/a	n/a	n/a	n/a	n/a	n/a
9.02	0.78	vicarious	expectrating	1	low_cue	n/a	0.23	No sensation	0.23	No sensation	0.15	0.63	task-social/cue/runtype-vicarious/scl/l015.png	n/a	n/a	n/a	n/a	n/a	n/a	n/a	n/a
19.39	5.0	vicarious	stimulus	1	low_cue	med_stim	n/a	n/a	n/a	n/a	n/a	n/a	task-social/stim/runtype-vicarious/aa048t2afunaff_M.mp4	n/a	n/a	n/a	n/a	n/a	n/a	n/a	n/a
28.11	1.15	vicarious	outcomerating	1	low_cue	med_stim	5.09	Weak	5.09	Weak	0.15	0.63	task-social/outcomerating/task-vicarious_scale.png	n/a	n/a	n/a	n/a	n/a	n/a	n/a	n/a
35.0	0.98	vicarious	cue	2	high_cue	n/a	n/a	n/a	n/a	n/a	n/a	n/a	task-social/cue/runtype-vicarious/sch/h026.png	n/a	n/a	n/a	n/a	n/a	n/a	n/a	n/a
37.7	1.48	vicarious	expectrating	2	high_cue	n/a	54.65	Strong	54.65	Strong	0.35	1.13	task-social/cue/runtype-vicarious/sch/h026.png	n/a	n/a	n/a	n/a	n/a	n/a	n/a	n/a
44.68	5.0	vicarious	stimulus	2	high_cue	low_stim	n/a	n/a	n/a	n/a	n/a	n/a	task-social/stim/runtype-vicarious/mg066t2aeunaff_L.mp4	n/a	n/a	n/a	n/a	n/a	n/a	n/a	n/a
58.21	2.66	vicarious	outcomerating	2	high_cue	low_stim	23.89	Moderate	23.89	Moderate	0.35	1.13	task-social/outcomerating/task-vicarious_scale.png	n/a	n/a	n/a	n/a	n/a	n/a	n/a	n/a
62.69	0.99	vicarious	cue	3	low_cue	n/a	n/a	n/a	n/a	n/a	n/a	n/a	task-social/cue/runtype-vicarious/scl/l026.png	n/a	n/a	n/a	n/a	n/a	n/a	n/a	n/a
65.89	2.06	vicarious	expectrating	3	low_cue	n/a	16.32	Moderate	16.32	Moderate	0.57	1.49	task-social/cue/runtype-vicarious/scl/l026.png	n/a	n/a	n/a	n/a	n/a	n/a	n/a	n/a
78.38	5.0	vicarious	stimulus	3	low_cue	high_stim	n/a	n/a	n/a	n/a	n/a	n/a	task-social/stim/runtype-vicarious/ib109t1aiaff_H.mp4	n/a	n/a	n/a	n/a	n/a	n/a	n/a	n/a
91.6	3.82	vicarious	outcomerating	3	low_cue	high_stim	17.05	Moderate	17.05	Moderate	0.57	1.49	task-social/outcomerating/task-vicarious_scale.png	n/a	n/a	n/a	n/a	n/a	n/a	n/a	n/a
96.09	0.99	vicarious	cue	4	high_cue	n/a	n/a	n/a	n/a	n/a	n/a	n/a	task-social/cue/runtype-vicarious/sch/h025.png	n/a	n/a	n/a	n/a	n/a	n/a	n/a	n/a
98.39	2.82	vicarious	expectrating	4	high_cue	n/a	56.31	Strong	56.31	Strong	1.15	1.67	task-social/cue/runtype-vicarious/sch/h025.png	n/a	n/a	n/a	n/a	n/a	n/a	n/a	n/a
106.58	5.0	vicarious	stimulus	4	high_cue	med_stim	n/a	n/a	n/a	n/a	n/a	n/a	task-social/stim/runtype-vicarious/jk103t2aaunaff_M.mp4	n/a	n/a	n/a	n/a	n/a	n/a	n/a	n/a
114.8	2.0	vicarious	outcomerating	4	high_cue	med_stim	53.78	Strong	53.78	Strong	1.15	1.67	task-social/outcomerating/task-vicarious_scale.png	n/a	n/a	n/a	n/a	n/a	n/a	n/a	n/a
131.6	0.98	vicarious	cue	5	low_cue	n/a	n/a	n/a	n/a	n/a	n/a	n/a	task-social/cue/runtype-vicarious/scl/l043.png	n/a	n/a	n/a	n/a	n/a	n/a	n/a	n/a
134.3	2.08	vicarious	expectrating	5	low_cue	n/a	12.98	Moderate	12.98	Moderate	0.05	2.03	task-social/cue/runtype-vicarious/scl/l043.png	n/a	n/a	n/a	n/a	n/a	n/a	n/a	n/a
142.99	5.0	vicarious	stimulus	5	low_cue	med_stim	n/a	n/a	n/a	n/a	n/a	n/a	task-social/stim/runtype-vicarious/mg066t2aaunaff_M.mp4	n/a	n/a	n/a	n/a	n/a	n/a	n/a	n/a
156.21	2.64	vicarious	outcomerating	5	low_cue	med_stim	13.92	Moderate	13.92	Moderate	0.05	2.03	task-social/outcomerating/task-vicarious_scale.png	n/a	n/a	n/a	n/a	n/a	n/a	n/a	n/a
163.4	0.98	vicarious	cue	6	low_cue	n/a	n/a	n/a	n/a	n/a	n/a	n/a	task-social/cue/runtype-vicarious/scl/l017.png	n/a	n/a	n/a	n/a	n/a	n/a	n/a	n/a
165.7	1.72	vicarious	expectrating	6	low_cue	n/a	0.46	No sensation	0.46	No sensation	0.27	1.45	task-social/cue/runtype-vicarious/scl/l017.png	n/a	n/a	n/a	n/a	n/a	n/a	n/a	n/a
180.78	5.0	vicarious	stimulus	6	low_cue	high_stim	n/a	n/a	n/a	n/a	n/a	n/a	task-social/stim/runtype-vicarious/aa048t2aeaff_H.mp4	n/a	n/a	n/a	n/a	n/a	n/a	n/a	n/a
188.61	2.18	vicarious	outcomerating	6	low_cue	high_stim	0.46	No sensation	0.46	No sensation	0.27	1.45	task-social/outcomerating/task-vicarious_scale.png	n/a	n/a	n/a	n/a	n/a	n/a	n/a	n/a
193.39	0.99	vicarious	cue	7	high_cue	n/a	n/a	n/a	n/a	n/a	n/a	n/a	task-social/cue/runtype-vicarious/sch/h003.png	n/a	n/a	n/a	n/a	n/a	n/a	n/a	n/a
194.99	2.79	vicarious	expectrating	7	high_cue	n/a	48.08	Strong	48.08	Strong	1.23	1.56	task-social/cue/runtype-vicarious/sch/h003.png	n/a	n/a	n/a	n/a	n/a	n/a	n/a	n/a
203.18	5.0	vicarious	stimulus	7	high_cue	high_stim	n/a	n/a	n/a	n/a	n/a	n/a	task-social/stim/runtype-vicarious/jl047t1aiaff_H.mp4	n/a	n/a	n/a	n/a	n/a	n/a	n/a	n/a
227.91	2.35	vicarious	outcomerating	7	high_cue	high_stim	38.3	Strong	38.3	Strong	1.23	1.56	task-social/outcomerating/task-vicarious_scale.png	n/a	n/a	n/a	n/a	n/a	n/a	n/a	n/a
234.39	0.99	vicarious	cue	8	low_cue	n/a	n/a	n/a	n/a	n/a	n/a	n/a	task-social/cue/runtype-vicarious/scl/l002.png	n/a	n/a	n/a	n/a	n/a	n/a	n/a	n/a
235.99	1.39	vicarious	expectrating	8	low_cue	n/a	0.0	n/a	0.0	n/a	0.05	1.34	task-social/cue/runtype-vicarious/scl/l002.png	n/a	n/a	n/a	n/a	n/a	n/a	n/a	n/a
243.88	5.0	vicarious	stimulus	8	low_cue	low_stim	n/a	n/a	n/a	n/a	n/a	n/a	task-social/stim/runtype-vicarious/jk103t1aaunaff_L.mp4	n/a	n/a	n/a	n/a	n/a	n/a	n/a	n/a
252.9	1.3	vicarious	outcomerating	8	low_cue	low_stim	15.56	Moderate	15.56	Moderate	0.05	1.34	task-social/outcomerating/task-vicarious_scale.png	n/a	n/a	n/a	n/a	n/a	n/a	n/a	n/a
259.1	0.98	vicarious	cue	9	low_cue	n/a	n/a	n/a	n/a	n/a	n/a	n/a	task-social/cue/runtype-vicarious/scl/l053.png	n/a	n/a	n/a	n/a	n/a	n/a	n/a	n/a
261.0	1.47	vicarious	expectrating	9	low_cue	n/a	8.39	Weak	8.39	Weak	0.15	1.32	task-social/cue/runtype-vicarious/scl/l053.png	n/a	n/a	n/a	n/a	n/a	n/a	n/a	n/a
276.08	5.0	vicarious	stimulus	9	low_cue	low_stim	n/a	n/a	n/a	n/a	n/a	n/a	task-social/stim/runtype-vicarious/ib109t1aiunaff_L.mp4	n/a	n/a	n/a	n/a	n/a	n/a	n/a	n/a
291.0	1.44	vicarious	outcomerating	9	low_cue	low_stim	3.0	Barely detectable	3.0	Barely detectable	0.15	1.32	task-social/outcomerating/task-vicarious_scale.png	n/a	n/a	n/a	n/a	n/a	n/a	n/a	n/a
307.78	1.0	vicarious	cue	10	high_cue	n/a	n/a	n/a	n/a	n/a	n/a	n/a	task-social/cue/runtype-vicarious/sch/h014.png	n/a	n/a	n/a	n/a	n/a	n/a	n/a	n/a
311.0	1.25	vicarious	expectrating	10	high_cue	n/a	53.08	Strong	53.08	Strong	0.05	1.2	task-social/cue/runtype-vicarious/sch/h014.png	n/a	n/a	n/a	n/a	n/a	n/a	n/a	n/a
318.88	5.0	vicarious	stimulus	10	high_cue	low_stim	n/a	n/a	n/a	n/a	n/a	n/a	task-social/stim/runtype-vicarious/jl047t1aaunaff_L.mp4	n/a	n/a	n/a	n/a	n/a	n/a	n/a	n/a
327.61	1.96	vicarious	outcomerating	10	high_cue	low_stim	13.53	Moderate	13.53	Moderate	0.05	1.2	task-social/outcomerating/task-vicarious_scale.png	n/a	n/a	n/a	n/a	n/a	n/a	n/a	n/a
340.7	0.98	vicarious	cue	11	high_cue	n/a	n/a	n/a	n/a	n/a	n/a	n/a	task-social/cue/runtype-vicarious/sch/h055.png	n/a	n/a	n/a	n/a	n/a	n/a	n/a	n/a
342.6	1.9	vicarious	expectrating	11	high_cue	n/a	66.41	Very Strong	66.41	Very Strong	0.52	1.39	task-social/cue/runtype-vicarious/sch/h055.png	n/a	n/a	n/a	n/a	n/a	n/a	n/a	n/a
355.28	5.0	vicarious	stimulus	11	high_cue	med_stim	n/a	n/a	n/a	n/a	n/a	n/a	task-social/stim/runtype-vicarious/jy115t1aeaff_M.mp4	n/a	n/a	n/a	n/a	n/a	n/a	n/a	n/a
363.81	1.9	vicarious	outcomerating	11	high_cue	med_stim	32.99	Strong	32.99	Strong	0.52	1.39	task-social/outcomerating/task-vicarious_scale.png	n/a	n/a	n/a	n/a	n/a	n/a	n/a	n/a
371.49	0.99	vicarious	cue	12	high_cue	n/a	n/a	n/a	n/a	n/a	n/a	n/a	task-social/cue/runtype-vicarious/sch/h038.png	n/a	n/a	n/a	n/a	n/a	n/a	n/a	n/a
374.79	1.17	vicarious	expectrating	12	high_cue	n/a	31.71	Strong	31.71	Strong	0.17	1.01	task-social/cue/runtype-vicarious/sch/h038.png	n/a	n/a	n/a	n/a	n/a	n/a	n/a	n/a
387.28	5.0	vicarious	stimulus	12	high_cue	high_stim	n/a	n/a	n/a	n/a	n/a	n/a	task-social/stim/runtype-vicarious/tv095t1afaff_H.mp4	n/a	n/a	n/a	n/a	n/a	n/a	n/a	n/a
395.1	2.72	vicarious	outcomerating	12	high_cue	high_stim	47.46	Strong	47.46	Strong	0.17	1.01	task-social/outcomerating/task-vicarious_scale.png	n/a	n/a	n/a	n/a	n/a	n/a	n/a	n/a
