onset	duration	run_type	trial_type	trial_index	cue	stimulusintensity	rating_value	rating_glmslabel	rating_value_fillna	rating_glmslabel_fillna	rating_mouseonset	rating_mousedur	stim_file	pain_onset_ttl1	pain_onset_ttl2	pain_onset_ttl3	pain_onset_ttl4	pain_stimulus_delivery_success	cognitive_correct_response	cognitive_participant_response	cognitive_response_accuracy
4.1	0.98	vicarious	cue	1	high_cue	n/a	n/a	n/a	n/a	n/a	n/a	n/a	task-social/cue/runtype-vicarious/sch/h012.png	n/a	n/a	n/a	n/a	n/a	n/a	n/a	n/a
7.2	1.64	vicarious	expectrating	1	high_cue	n/a	30.32	Strong	30.32	Strong	0.57	1.07	task-social/cue/runtype-vicarious/sch/h012.png	n/a	n/a	n/a	n/a	n/a	n/a	n/a	n/a
14.48	5.0	vicarious	stimulus	1	high_cue	med_stim	n/a	n/a	n/a	n/a	n/a	n/a	task-social/stim/runtype-vicarious/jy115t1aeaff_M.mp4	n/a	n/a	n/a	n/a	n/a	n/a	n/a	n/a
23.7	2.1	vicarious	outcomerating	1	high_cue	med_stim	27.49	Moderate	27.49	Moderate	0.4	1.7	task-social/outcomerating/task-vicarious_scale.png	n/a	n/a	n/a	n/a	n/a	n/a	n/a	n/a
33.49	0.99	vicarious	cue	2	low_cue	n/a	n/a	n/a	n/a	n/a	n/a	n/a	task-social/cue/runtype-vicarious/scl/l043.png	n/a	n/a	n/a	n/a	n/a	n/a	n/a	n/a
36.59	2.05	vicarious	expectrating	2	low_cue	n/a	9.46	Weak	9.46	Weak	0.38	1.67	task-social/cue/runtype-vicarious/scl/l043.png	n/a	n/a	n/a	n/a	n/a	n/a	n/a	n/a
49.48	5.0	vicarious	stimulus	2	low_cue	low_stim	n/a	n/a	n/a	n/a	n/a	n/a	task-social/stim/runtype-vicarious/jy115t1aaunaff_L.mp4	n/a	n/a	n/a	n/a	n/a	n/a	n/a	n/a
62.4	2.17	vicarious	outcomerating	2	low_cue	low_stim	2.99	Barely detectable	2.99	Barely detectable	0.38	1.78	task-social/outcomerating/task-vicarious_scale.png	n/a	n/a	n/a	n/a	n/a	n/a	n/a	n/a
71.59	0.99	vicarious	cue	3	high_cue	n/a	n/a	n/a	n/a	n/a	n/a	n/a	task-social/cue/runtype-vicarious/sch/h017.png	n/a	n/a	n/a	n/a	n/a	n/a	n/a	n/a
73.59	2.88	vicarious	expectrating	3	high_cue	n/a	38.66	Strong	38.66	Strong	0.48	2.4	task-social/cue/runtype-vicarious/sch/h017.png	n/a	n/a	n/a	n/a	n/a	n/a	n/a	n/a
86.48	5.0	vicarious	stimulus	3	high_cue	low_stim	n/a	n/a	n/a	n/a	n/a	n/a	task-social/stim/runtype-vicarious/dr052t1aeunaff_L.mp4	n/a	n/a	n/a	n/a	n/a	n/a	n/a	n/a
97.1	2.0	vicarious	outcomerating	3	high_cue	low_stim	3.46	Weak	3.46	Weak	0.52	1.49	task-social/outcomerating/task-vicarious_scale.png	n/a	n/a	n/a	n/a	n/a	n/a	n/a	n/a
105.6	0.98	vicarious	cue	4	high_cue	n/a	n/a	n/a	n/a	n/a	n/a	n/a	task-social/cue/runtype-vicarious/sch/h033.png	n/a	n/a	n/a	n/a	n/a	n/a	n/a	n/a
108.7	1.45	vicarious	expectrating	4	high_cue	n/a	4.59	Weak	4.59	Weak	0.33	1.12	task-social/cue/runtype-vicarious/sch/h033.png	n/a	n/a	n/a	n/a	n/a	n/a	n/a	n/a
119.88	5.0	vicarious	stimulus	4	high_cue	high_stim	n/a	n/a	n/a	n/a	n/a	n/a	task-social/stim/runtype-vicarious/jh123t1aeaff_H.mp4	n/a	n/a	n/a	n/a	n/a	n/a	n/a	n/a
127.51	2.35	vicarious	outcomerating	4	high_cue	high_stim	37.01	Strong	37.01	Strong	0.45	1.9	task-social/outcomerating/task-vicarious_scale.png	n/a	n/a	n/a	n/a	n/a	n/a	n/a	n/a
132.79	0.99	vicarious	cue	5	high_cue	n/a	n/a	n/a	n/a	n/a	n/a	n/a	task-social/cue/runtype-vicarious/sch/h026.png	n/a	n/a	n/a	n/a	n/a	n/a	n/a	n/a
135.89	2.32	vicarious	expectrating	5	high_cue	n/a	11.81	Moderate	11.81	Moderate	0.78	1.54	task-social/cue/runtype-vicarious/sch/h026.png	n/a	n/a	n/a	n/a	n/a	n/a	n/a	n/a
143.19	5.0	vicarious	stimulus	5	high_cue	low_stim	n/a	n/a	n/a	n/a	n/a	n/a	task-social/stim/runtype-vicarious/mg066t2aeunaff_L.mp4	n/a	n/a	n/a	n/a	n/a	n/a	n/a	n/a
152.4	1.43	vicarious	outcomerating	5	high_cue	low_stim	4.13	Weak	4.13	Weak	0.38	1.05	task-social/outcomerating/task-vicarious_scale.png	n/a	n/a	n/a	n/a	n/a	n/a	n/a	n/a
163.29	0.99	vicarious	cue	6	high_cue	n/a	n/a	n/a	n/a	n/a	n/a	n/a	task-social/cue/runtype-vicarious/sch/h021.png	n/a	n/a	n/a	n/a	n/a	n/a	n/a	n/a
165.29	2.07	vicarious	expectrating	6	high_cue	n/a	12.53	Moderate	12.53	Moderate	0.55	1.52	task-social/cue/runtype-vicarious/sch/h021.png	n/a	n/a	n/a	n/a	n/a	n/a	n/a	n/a
176.48	5.0	vicarious	stimulus	6	high_cue	med_stim	n/a	n/a	n/a	n/a	n/a	n/a	task-social/stim/runtype-vicarious/tv095t2afaff_M.mp4	n/a	n/a	n/a	n/a	n/a	n/a	n/a	n/a
184.5	2.34	vicarious	outcomerating	6	high_cue	med_stim	24.71	Moderate	24.71	Moderate	0.38	1.95	task-social/outcomerating/task-vicarious_scale.png	n/a	n/a	n/a	n/a	n/a	n/a	n/a	n/a
196.88	0.99	vicarious	cue	7	low_cue	n/a	n/a	n/a	n/a	n/a	n/a	n/a	task-social/cue/runtype-vicarious/scl/l008.png	n/a	n/a	n/a	n/a	n/a	n/a	n/a	n/a
199.3	1.88	vicarious	expectrating	7	low_cue	n/a	7.18	Weak	7.18	Weak	0.38	1.5	task-social/cue/runtype-vicarious/scl/l008.png	n/a	n/a	n/a	n/a	n/a	n/a	n/a	n/a
207.88	5.0	vicarious	stimulus	7	low_cue	high_stim	n/a	n/a	n/a	n/a	n/a	n/a	task-social/stim/runtype-vicarious/dr052t1aiaff_H.mp4	n/a	n/a	n/a	n/a	n/a	n/a	n/a	n/a
224.39	2.76	vicarious	outcomerating	7	low_cue	high_stim	37.01	Strong	37.01	Strong	0.57	2.19	task-social/outcomerating/task-vicarious_scale.png	n/a	n/a	n/a	n/a	n/a	n/a	n/a	n/a
231.4	0.98	vicarious	cue	8	low_cue	n/a	n/a	n/a	n/a	n/a	n/a	n/a	task-social/cue/runtype-vicarious/scl/l025.png	n/a	n/a	n/a	n/a	n/a	n/a	n/a	n/a
234.3	1.4	vicarious	expectrating	8	low_cue	n/a	18.94	Moderate	18.94	Moderate	0.35	1.05	task-social/cue/runtype-vicarious/scl/l025.png	n/a	n/a	n/a	n/a	n/a	n/a	n/a	n/a
242.88	5.0	vicarious	stimulus	8	low_cue	med_stim	n/a	n/a	n/a	n/a	n/a	n/a	task-social/stim/runtype-vicarious/aa048t2afunaff_M.mp4	n/a	n/a	n/a	n/a	n/a	n/a	n/a	n/a
257.01	2.58	vicarious	outcomerating	8	low_cue	med_stim	5.55	Weak	5.55	Weak	0.77	1.82	task-social/outcomerating/task-vicarious_scale.png	n/a	n/a	n/a	n/a	n/a	n/a	n/a	n/a
270.39	0.98	vicarious	cue	9	high_cue	n/a	n/a	n/a	n/a	n/a	n/a	n/a	task-social/cue/runtype-vicarious/sch/h007.png	n/a	n/a	n/a	n/a	n/a	n/a	n/a	n/a
272.2	2.81	vicarious	expectrating	9	high_cue	n/a	24.2	Moderate	24.2	Moderate	0.52	2.29	task-social/cue/runtype-vicarious/sch/h007.png	n/a	n/a	n/a	n/a	n/a	n/a	n/a	n/a
280.78	5.0	vicarious	stimulus	9	high_cue	high_stim	n/a	n/a	n/a	n/a	n/a	n/a	task-social/stim/runtype-vicarious/jy115t2aaaff_H.mp4	n/a	n/a	n/a	n/a	n/a	n/a	n/a	n/a
292.4	3.12	vicarious	outcomerating	9	high_cue	high_stim	15.85	Moderate	15.85	Moderate	0.72	2.4	task-social/outcomerating/task-vicarious_scale.png	n/a	n/a	n/a	n/a	n/a	n/a	n/a	n/a
297.69	0.99	vicarious	cue	10	low_cue	n/a	n/a	n/a	n/a	n/a	n/a	n/a	task-social/cue/runtype-vicarious/scl/l024.png	n/a	n/a	n/a	n/a	n/a	n/a	n/a	n/a
300.19	1.85	vicarious	expectrating	10	low_cue	n/a	20.61	Moderate	20.61	Moderate	0.42	1.43	task-social/cue/runtype-vicarious/scl/l024.png	n/a	n/a	n/a	n/a	n/a	n/a	n/a	n/a
308.28	5.0	vicarious	stimulus	10	low_cue	med_stim	n/a	n/a	n/a	n/a	n/a	n/a	task-social/stim/runtype-vicarious/mg066t2aaunaff_M.mp4	n/a	n/a	n/a	n/a	n/a	n/a	n/a	n/a
318.0	1.62	vicarious	outcomerating	10	low_cue	med_stim	3.45	Weak	3.45	Weak	0.55	1.07	task-social/outcomerating/task-vicarious_scale.png	n/a	n/a	n/a	n/a	n/a	n/a	n/a	n/a
327.2	0.98	vicarious	cue	11	low_cue	n/a	n/a	n/a	n/a	n/a	n/a	n/a	task-social/cue/runtype-vicarious/scl/l041.png	n/a	n/a	n/a	n/a	n/a	n/a	n/a	n/a
329.1	1.37	vicarious	expectrating	11	low_cue	n/a	9.42	Weak	9.42	Weak	0.43	0.93	task-social/cue/runtype-vicarious/scl/l041.png	n/a	n/a	n/a	n/a	n/a	n/a	n/a	n/a
346.58	5.0	vicarious	stimulus	11	low_cue	low_stim	n/a	n/a	n/a	n/a	n/a	n/a	task-social/stim/runtype-vicarious/th108t1aaunaff_L.mp4	n/a	n/a	n/a	n/a	n/a	n/a	n/a	n/a
367.0	1.67	vicarious	outcomerating	11	low_cue	low_stim	5.98	Weak	5.98	Weak	0.47	1.2	task-social/outcomerating/task-vicarious_scale.png	n/a	n/a	n/a	n/a	n/a	n/a	n/a	n/a
372.58	1.0	vicarious	cue	12	low_cue	n/a	n/a	n/a	n/a	n/a	n/a	n/a	task-social/cue/runtype-vicarious/scl/l030.png	n/a	n/a	n/a	n/a	n/a	n/a	n/a	n/a
374.6	2.5	vicarious	expectrating	12	low_cue	n/a	18.07	Moderate	18.07	Moderate	0.68	1.82	task-social/cue/runtype-vicarious/scl/l030.png	n/a	n/a	n/a	n/a	n/a	n/a	n/a	n/a
386.38	5.0	vicarious	stimulus	12	low_cue	high_stim	n/a	n/a	n/a	n/a	n/a	n/a	task-social/stim/runtype-vicarious/th108t1aeaff_H.mp4	n/a	n/a	n/a	n/a	n/a	n/a	n/a	n/a
394.41	2.67	vicarious	outcomerating	12	low_cue	high_stim	35.54	Strong	35.54	Strong	0.43	2.23	task-social/outcomerating/task-vicarious_scale.png	n/a	n/a	n/a	n/a	n/a	n/a	n/a	n/a
