onset	duration	run_type	trial_type	trial_index	cue	stimulusintensity	rating_value	rating_glmslabel	rating_value_fillna	rating_glmslabel_fillna	rating_mouseonset	rating_mousedur	stim_file	pain_onset_ttl1	pain_onset_ttl2	pain_onset_ttl3	pain_onset_ttl4	pain_stimulus_delivery_success	cognitive_correct_response	cognitive_participant_response	cognitive_response_accuracy
3.38	0.99	vicarious	cue	1	low_cue	n/a	n/a	n/a	n/a	n/a	n/a	n/a	task-social/cue/runtype-vicarious/scl/l005.png	n/a	n/a	n/a	n/a	n/a	n/a	n/a	n/a
6.09	2.77	vicarious	expectrating	1	low_cue	n/a	29.35	Strong	29.35	Strong	0.47	2.3	task-social/cue/runtype-vicarious/scl/l005.png	n/a	n/a	n/a	n/a	n/a	n/a	n/a	n/a
18.47	5.0	vicarious	stimulus	1	low_cue	high_stim	n/a	n/a	n/a	n/a	n/a	n/a	task-social/stim/runtype-vicarious/jl047t1aiaff_H.mp4	n/a	n/a	n/a	n/a	n/a	n/a	n/a	n/a
32.59	3.59	vicarious	outcomerating	1	low_cue	high_stim	50.19	Strong	50.19	Strong	0.47	2.3	task-social/outcomerating/task-vicarious_scale.png	n/a	n/a	n/a	n/a	n/a	n/a	n/a	n/a
41.59	0.98	vicarious	cue	2	high_cue	n/a	n/a	n/a	n/a	n/a	n/a	n/a	task-social/cue/runtype-vicarious/sch/h018.png	n/a	n/a	n/a	n/a	n/a	n/a	n/a	n/a
44.69	3.02	vicarious	expectrating	2	high_cue	n/a	41.73	Strong	41.73	Strong	0.58	2.43	task-social/cue/runtype-vicarious/sch/h018.png	n/a	n/a	n/a	n/a	n/a	n/a	n/a	n/a
55.17	5.0	vicarious	stimulus	2	high_cue	med_stim	n/a	n/a	n/a	n/a	n/a	n/a	task-social/stim/runtype-vicarious/ll042t1afunaff_M.mp4	n/a	n/a	n/a	n/a	n/a	n/a	n/a	n/a
69.28	2.66	vicarious	outcomerating	2	high_cue	med_stim	3.01	Weak	3.01	Weak	0.58	2.43	task-social/outcomerating/task-vicarious_scale.png	n/a	n/a	n/a	n/a	n/a	n/a	n/a	n/a
78.39	0.98	vicarious	cue	3	low_cue	n/a	n/a	n/a	n/a	n/a	n/a	n/a	task-social/cue/runtype-vicarious/scl/l047.png	n/a	n/a	n/a	n/a	n/a	n/a	n/a	n/a
81.49	2.14	vicarious	expectrating	3	low_cue	n/a	0.0	n/a	0.0	n/a	0.12	2.02	task-social/cue/runtype-vicarious/scl/l047.png	n/a	n/a	n/a	n/a	n/a	n/a	n/a	n/a
87.97	5.0	vicarious	stimulus	3	low_cue	low_stim	n/a	n/a	n/a	n/a	n/a	n/a	task-social/stim/runtype-vicarious/jl047t1aaunaff_L.mp4	n/a	n/a	n/a	n/a	n/a	n/a	n/a	n/a
97.79	n/a	vicarious	outcomerating	3	low_cue	low_stim	n/a	n/a	9.73	Weak	0.12	2.02	task-social/outcomerating/task-vicarious_scale.png	n/a	n/a	n/a	n/a	n/a	n/a	n/a	n/a
105.88	0.99	vicarious	cue	4	low_cue	n/a	n/a	n/a	n/a	n/a	n/a	n/a	task-social/cue/runtype-vicarious/scl/l002.png	n/a	n/a	n/a	n/a	n/a	n/a	n/a	n/a
107.4	1.4	vicarious	expectrating	4	low_cue	n/a	0.0	n/a	0.0	n/a	0.33	1.07	task-social/cue/runtype-vicarious/scl/l002.png	n/a	n/a	n/a	n/a	n/a	n/a	n/a	n/a
114.17	5.0	vicarious	stimulus	4	low_cue	low_stim	n/a	n/a	n/a	n/a	n/a	n/a	task-social/stim/runtype-vicarious/gf097t2aiunaff_L.mp4	n/a	n/a	n/a	n/a	n/a	n/a	n/a	n/a
127.99	1.6	vicarious	outcomerating	4	low_cue	low_stim	1.16	Barely detectable	1.16	Barely detectable	0.33	1.07	task-social/outcomerating/task-vicarious_scale.png	n/a	n/a	n/a	n/a	n/a	n/a	n/a	n/a
137.08	0.99	vicarious	cue	5	high_cue	n/a	n/a	n/a	n/a	n/a	n/a	n/a	task-social/cue/runtype-vicarious/sch/h039.png	n/a	n/a	n/a	n/a	n/a	n/a	n/a	n/a
140.18	n/a	vicarious	expectrating	5	high_cue	n/a	n/a	n/a	62.81	Strong	0.67	3.77	task-social/cue/runtype-vicarious/sch/h039.png	n/a	n/a	n/a	n/a	n/a	n/a	n/a	n/a
149.87	5.0	vicarious	stimulus	5	high_cue	low_stim	n/a	n/a	n/a	n/a	n/a	n/a	task-social/stim/runtype-vicarious/ll042t1aaunaff_L.mp4	n/a	n/a	n/a	n/a	n/a	n/a	n/a	n/a
159.88	3.27	vicarious	outcomerating	5	high_cue	low_stim	13.75	Moderate	13.75	Moderate	0.67	3.77	task-social/outcomerating/task-vicarious_scale.png	n/a	n/a	n/a	n/a	n/a	n/a	n/a	n/a
168.99	0.98	vicarious	cue	6	high_cue	n/a	n/a	n/a	n/a	n/a	n/a	n/a	task-social/cue/runtype-vicarious/sch/h013.png	n/a	n/a	n/a	n/a	n/a	n/a	n/a	n/a
170.99	n/a	vicarious	expectrating	6	high_cue	n/a	n/a	n/a	51.56	Strong	0.22	3.9	task-social/cue/runtype-vicarious/sch/h013.png	n/a	n/a	n/a	n/a	n/a	n/a	n/a	n/a
177.47	5.0	vicarious	stimulus	6	high_cue	med_stim	n/a	n/a	n/a	n/a	n/a	n/a	task-social/stim/runtype-vicarious/ak064t1aiaff_M.mp4	n/a	n/a	n/a	n/a	n/a	n/a	n/a	n/a
187.29	2.27	vicarious	outcomerating	6	high_cue	med_stim	16.32	Moderate	16.32	Moderate	0.22	3.9	task-social/outcomerating/task-vicarious_scale.png	n/a	n/a	n/a	n/a	n/a	n/a	n/a	n/a
194.38	0.99	vicarious	cue	7	high_cue	n/a	n/a	n/a	n/a	n/a	n/a	n/a	task-social/cue/runtype-vicarious/sch/h022.png	n/a	n/a	n/a	n/a	n/a	n/a	n/a	n/a
196.38	1.91	vicarious	expectrating	7	high_cue	n/a	87.69	Very Strong	87.69	Very Strong	0.22	1.69	task-social/cue/runtype-vicarious/sch/h022.png	n/a	n/a	n/a	n/a	n/a	n/a	n/a	n/a
209.37	5.0	vicarious	stimulus	7	high_cue	low_stim	n/a	n/a	n/a	n/a	n/a	n/a	task-social/stim/runtype-vicarious/dn124t1aaunaff_L.mp4	n/a	n/a	n/a	n/a	n/a	n/a	n/a	n/a
222.29	3.25	vicarious	outcomerating	7	high_cue	low_stim	37.61	Strong	37.61	Strong	0.22	1.69	task-social/outcomerating/task-vicarious_scale.png	n/a	n/a	n/a	n/a	n/a	n/a	n/a	n/a
234.78	0.99	vicarious	cue	8	low_cue	n/a	n/a	n/a	n/a	n/a	n/a	n/a	task-social/cue/runtype-vicarious/scl/l040.png	n/a	n/a	n/a	n/a	n/a	n/a	n/a	n/a
237.28	n/a	vicarious	expectrating	8	low_cue	n/a	n/a	n/a	13.92	Moderate	0.12	3.85	task-social/cue/runtype-vicarious/scl/l040.png	n/a	n/a	n/a	n/a	n/a	n/a	n/a	n/a
251.27	5.0	vicarious	stimulus	8	low_cue	high_stim	n/a	n/a	n/a	n/a	n/a	n/a	task-social/stim/runtype-vicarious/nm106t1afaff_H.mp4	n/a	n/a	n/a	n/a	n/a	n/a	n/a	n/a
262.69	n/a	vicarious	outcomerating	8	low_cue	high_stim	n/a	n/a	27.8	Moderate	0.12	3.85	task-social/outcomerating/task-vicarious_scale.png	n/a	n/a	n/a	n/a	n/a	n/a	n/a	n/a
271.78	0.99	vicarious	cue	9	low_cue	n/a	n/a	n/a	n/a	n/a	n/a	n/a	task-social/cue/runtype-vicarious/scl/l031.png	n/a	n/a	n/a	n/a	n/a	n/a	n/a	n/a
274.88	1.53	vicarious	expectrating	9	low_cue	n/a	2.11	Barely detectable	2.11	Barely detectable	0.32	1.22	task-social/cue/runtype-vicarious/scl/l031.png	n/a	n/a	n/a	n/a	n/a	n/a	n/a	n/a
286.57	5.0	vicarious	stimulus	9	low_cue	med_stim	n/a	n/a	n/a	n/a	n/a	n/a	task-social/stim/runtype-vicarious/jl047t1aiunaff_M.mp4	n/a	n/a	n/a	n/a	n/a	n/a	n/a	n/a
294.38	n/a	vicarious	outcomerating	9	low_cue	med_stim	n/a	n/a	20.69	Moderate	0.32	1.22	task-social/outcomerating/task-vicarious_scale.png	n/a	n/a	n/a	n/a	n/a	n/a	n/a	n/a
299.89	0.98	vicarious	cue	10	low_cue	n/a	n/a	n/a	n/a	n/a	n/a	n/a	task-social/cue/runtype-vicarious/scl/l037.png	n/a	n/a	n/a	n/a	n/a	n/a	n/a	n/a
301.79	n/a	vicarious	expectrating	10	low_cue	n/a	n/a	n/a	1.64	Barely detectable	0.05	3.98	task-social/cue/runtype-vicarious/scl/l037.png	n/a	n/a	n/a	n/a	n/a	n/a	n/a	n/a
315.47	5.0	vicarious	stimulus	10	low_cue	med_stim	n/a	n/a	n/a	n/a	n/a	n/a	task-social/stim/runtype-vicarious/gf097t1aiaff_M.mp4	n/a	n/a	n/a	n/a	n/a	n/a	n/a	n/a
326.1	n/a	vicarious	outcomerating	10	low_cue	med_stim	n/a	n/a	n/a	n/a	0.05	3.98	task-social/outcomerating/task-vicarious_scale.png	n/a	n/a	n/a	n/a	n/a	n/a	n/a	n/a
337.88	0.99	vicarious	cue	11	high_cue	n/a	n/a	n/a	n/a	n/a	n/a	n/a	task-social/cue/runtype-vicarious/sch/h048.png	n/a	n/a	n/a	n/a	n/a	n/a	n/a	n/a
340.58	2.36	vicarious	expectrating	11	high_cue	n/a	43.7	Strong	43.7	Strong	0.07	2.29	task-social/cue/runtype-vicarious/sch/h048.png	n/a	n/a	n/a	n/a	n/a	n/a	n/a	n/a
347.97	5.0	vicarious	stimulus	11	high_cue	high_stim	n/a	n/a	n/a	n/a	n/a	n/a	task-social/stim/runtype-vicarious/hs107t1afaff_H.mp4	n/a	n/a	n/a	n/a	n/a	n/a	n/a	n/a
355.49	2.98	vicarious	outcomerating	11	high_cue	high_stim	58.29	Strong	58.29	Strong	0.07	2.29	task-social/outcomerating/task-vicarious_scale.png	n/a	n/a	n/a	n/a	n/a	n/a	n/a	n/a
362.58	0.99	vicarious	cue	12	high_cue	n/a	n/a	n/a	n/a	n/a	n/a	n/a	task-social/cue/runtype-vicarious/sch/h038.png	n/a	n/a	n/a	n/a	n/a	n/a	n/a	n/a
364.78	n/a	vicarious	expectrating	12	high_cue	n/a	n/a	n/a	8.05	Weak	3.18	3.95	task-social/cue/runtype-vicarious/sch/h038.png	n/a	n/a	n/a	n/a	n/a	n/a	n/a	n/a
378.47	5.0	vicarious	stimulus	12	high_cue	high_stim	n/a	n/a	n/a	n/a	n/a	n/a	task-social/stim/runtype-vicarious/jh043t2aeaff_H.mp4	n/a	n/a	n/a	n/a	n/a	n/a	n/a	n/a
394.59	3.87	vicarious	outcomerating	12	high_cue	high_stim	18.87	Moderate	18.87	Moderate	3.18	3.95	task-social/outcomerating/task-vicarious_scale.png	n/a	n/a	n/a	n/a	n/a	n/a	n/a	n/a
