onset	duration	run_type	trial_type	trial_index	cue	stimulusintensity	rating_value	rating_glmslabel	rating_value_fillna	rating_glmslabel_fillna	rating_mouseonset	rating_mousedur	stim_file	pain_onset_ttl1	pain_onset_ttl2	pain_onset_ttl3	pain_onset_ttl4	pain_stimulus_delivery_success	cognitive_correct_response	cognitive_participant_response	cognitive_response_accuracy
10.61	0.98	cognitive	cue	1	low_cue	n/a	n/a	n/a	n/a	n/a	n/a	n/a	task-social/cue/runtype-cognitive/scl/l017.png	n/a	n/a	n/a	n/a	n/a	n/a	n/a	n/a
12.34	2.78	cognitive	expectrating	1	low_cue	n/a	37.75	Strong	37.75	Strong	1.35	1.43	task-social/cue/runtype-cognitive/scl/l017.png	n/a	n/a	n/a	n/a	n/a	n/a	n/a	n/a
23.11	5.0	cognitive	stimulus	1	low_cue	low_stim	n/a	n/a	n/a	n/a	n/a	n/a	task-social/stim/runtype-cognitive/24_50_R.jpg	n/a	n/a	n/a	n/a	n/a	diff	diff	True
31.12	2.83	cognitive	outcomerating	1	low_cue	low_stim	33.02	Strong	33.02	Strong	1.35	1.43	task-social/outcomerating/task-cognitive_scale.png	n/a	n/a	n/a	n/a	n/a	n/a	n/a	n/a
35.7	0.99	cognitive	cue	2	low_cue	n/a	n/a	n/a	n/a	n/a	n/a	n/a	task-social/cue/runtype-cognitive/scl/l002.png	n/a	n/a	n/a	n/a	n/a	n/a	n/a	n/a
38.0	2.36	cognitive	expectrating	2	low_cue	n/a	23.68	Moderate	23.68	Moderate	0.88	1.47	task-social/cue/runtype-cognitive/scl/l002.png	n/a	n/a	n/a	n/a	n/a	n/a	n/a	n/a
45.8	5.0	cognitive	stimulus	2	low_cue	med_stim	n/a	n/a	n/a	n/a	n/a	n/a	task-social/stim/runtype-cognitive/45_100_R.jpg	n/a	n/a	n/a	n/a	n/a	diff	diff	True
56.31	2.18	cognitive	outcomerating	2	low_cue	med_stim	45.82	Strong	45.82	Strong	0.88	1.47	task-social/outcomerating/task-cognitive_scale.png	n/a	n/a	n/a	n/a	n/a	n/a	n/a	n/a
61.31	0.98	cognitive	cue	3	low_cue	n/a	n/a	n/a	n/a	n/a	n/a	n/a	task-social/cue/runtype-cognitive/scl/l006.png	n/a	n/a	n/a	n/a	n/a	n/a	n/a	n/a
64.21	2.63	cognitive	expectrating	3	low_cue	n/a	42.64	Strong	42.64	Strong	1.48	1.15	task-social/cue/runtype-cognitive/scl/l006.png	n/a	n/a	n/a	n/a	n/a	n/a	n/a	n/a
74.2	5.0	cognitive	stimulus	3	low_cue	low_stim	n/a	n/a	n/a	n/a	n/a	n/a	task-social/stim/runtype-cognitive/9_50.jpg	n/a	n/a	n/a	n/a	n/a	same	same	True
86.3	2.29	cognitive	outcomerating	3	low_cue	low_stim	30.57	Strong	30.57	Strong	1.48	1.15	task-social/outcomerating/task-cognitive_scale.png	n/a	n/a	n/a	n/a	n/a	n/a	n/a	n/a
91.31	0.98	cognitive	cue	4	low_cue	n/a	n/a	n/a	n/a	n/a	n/a	n/a	task-social/cue/runtype-cognitive/scl/l016.png	n/a	n/a	n/a	n/a	n/a	n/a	n/a	n/a
93.71	2.12	cognitive	expectrating	4	low_cue	n/a	37.65	Strong	37.65	Strong	0.88	1.24	task-social/cue/runtype-cognitive/scl/l016.png	n/a	n/a	n/a	n/a	n/a	n/a	n/a	n/a
101.81	5.0	cognitive	stimulus	4	low_cue	high_stim	n/a	n/a	n/a	n/a	n/a	n/a	task-social/stim/runtype-cognitive/9_150.jpg	n/a	n/a	n/a	n/a	n/a	same	same	True
112.31	2.42	cognitive	outcomerating	4	low_cue	high_stim	46.63	Strong	46.63	Strong	0.88	1.24	task-social/outcomerating/task-cognitive_scale.png	n/a	n/a	n/a	n/a	n/a	n/a	n/a	n/a
120.0	0.99	cognitive	cue	5	high_cue	n/a	n/a	n/a	n/a	n/a	n/a	n/a	task-social/cue/runtype-cognitive/sch/h024.png	n/a	n/a	n/a	n/a	n/a	n/a	n/a	n/a
122.92	2.72	cognitive	expectrating	5	high_cue	n/a	30.44	Strong	30.44	Strong	1.97	0.75	task-social/cue/runtype-cognitive/sch/h024.png	n/a	n/a	n/a	n/a	n/a	n/a	n/a	n/a
133.82	5.0	cognitive	stimulus	5	high_cue	med_stim	n/a	n/a	n/a	n/a	n/a	n/a	task-social/stim/runtype-cognitive/45_100.jpg	n/a	n/a	n/a	n/a	n/a	same	diff	False
142.81	2.55	cognitive	outcomerating	5	high_cue	med_stim	48.97	Strong	48.97	Strong	1.97	0.75	task-social/outcomerating/task-cognitive_scale.png	n/a	n/a	n/a	n/a	n/a	n/a	n/a	n/a
153.9	0.99	cognitive	cue	6	high_cue	n/a	n/a	n/a	n/a	n/a	n/a	n/a	task-social/cue/runtype-cognitive/sch/h052.png	n/a	n/a	n/a	n/a	n/a	n/a	n/a	n/a
155.81	2.33	cognitive	expectrating	6	high_cue	n/a	47.93	Strong	47.93	Strong	0.75	1.58	task-social/cue/runtype-cognitive/sch/h052.png	n/a	n/a	n/a	n/a	n/a	n/a	n/a	n/a
169.8	5.0	cognitive	stimulus	6	high_cue	high_stim	n/a	n/a	n/a	n/a	n/a	n/a	task-social/stim/runtype-cognitive/24_150.jpg	n/a	n/a	n/a	n/a	n/a	same	same	True
184.21	1.85	cognitive	outcomerating	6	high_cue	high_stim	50.1	Strong	50.1	Strong	0.75	1.58	task-social/outcomerating/task-cognitive_scale.png	n/a	n/a	n/a	n/a	n/a	n/a	n/a	n/a
194.19	1.0	cognitive	cue	7	high_cue	n/a	n/a	n/a	n/a	n/a	n/a	n/a	task-social/cue/runtype-cognitive/sch/h027.png	n/a	n/a	n/a	n/a	n/a	n/a	n/a	n/a
197.01	2.07	cognitive	expectrating	7	high_cue	n/a	47.62	Strong	47.62	Strong	1.18	0.88	task-social/cue/runtype-cognitive/sch/h027.png	n/a	n/a	n/a	n/a	n/a	n/a	n/a	n/a
206.2	5.0	cognitive	stimulus	7	high_cue	med_stim	n/a	n/a	n/a	n/a	n/a	n/a	task-social/stim/runtype-cognitive/34_100_R.jpg	n/a	n/a	n/a	n/a	n/a	diff	diff	True
214.2	1.99	cognitive	outcomerating	7	high_cue	med_stim	25.43	Moderate	25.43	Moderate	1.18	0.88	task-social/outcomerating/task-cognitive_scale.png	n/a	n/a	n/a	n/a	n/a	n/a	n/a	n/a
219.2	0.99	cognitive	cue	8	high_cue	n/a	n/a	n/a	n/a	n/a	n/a	n/a	task-social/cue/runtype-cognitive/sch/h037.png	n/a	n/a	n/a	n/a	n/a	n/a	n/a	n/a
222.1	2.65	cognitive	expectrating	8	high_cue	n/a	38.48	Strong	38.48	Strong	0.88	1.77	task-social/cue/runtype-cognitive/sch/h037.png	n/a	n/a	n/a	n/a	n/a	n/a	n/a	n/a
234.51	5.0	cognitive	stimulus	8	high_cue	low_stim	n/a	n/a	n/a	n/a	n/a	n/a	task-social/stim/runtype-cognitive/48_50.jpg	n/a	n/a	n/a	n/a	n/a	same	same	True
242.71	2.65	cognitive	outcomerating	8	high_cue	low_stim	35.86	Strong	35.86	Strong	0.88	1.77	task-social/outcomerating/task-cognitive_scale.png	n/a	n/a	n/a	n/a	n/a	n/a	n/a	n/a
251.4	0.99	cognitive	cue	9	high_cue	n/a	n/a	n/a	n/a	n/a	n/a	n/a	task-social/cue/runtype-cognitive/sch/h002.png	n/a	n/a	n/a	n/a	n/a	n/a	n/a	n/a
253.8	2.19	cognitive	expectrating	9	high_cue	n/a	40.45	Strong	40.45	Strong	0.7	1.49	task-social/cue/runtype-cognitive/sch/h002.png	n/a	n/a	n/a	n/a	n/a	n/a	n/a	n/a
266.7	5.0	cognitive	stimulus	9	high_cue	low_stim	n/a	n/a	n/a	n/a	n/a	n/a	task-social/stim/runtype-cognitive/43_50.jpg	n/a	n/a	n/a	n/a	n/a	same	same	True
280.81	3.22	cognitive	outcomerating	9	high_cue	low_stim	36.87	Strong	36.87	Strong	0.7	1.49	task-social/outcomerating/task-cognitive_scale.png	n/a	n/a	n/a	n/a	n/a	n/a	n/a	n/a
285.8	0.99	cognitive	cue	10	high_cue	n/a	n/a	n/a	n/a	n/a	n/a	n/a	task-social/cue/runtype-cognitive/sch/h044.png	n/a	n/a	n/a	n/a	n/a	n/a	n/a	n/a
289.01	2.9	cognitive	expectrating	10	high_cue	n/a	43.05	Strong	43.05	Strong	0.82	2.08	task-social/cue/runtype-cognitive/sch/h044.png	n/a	n/a	n/a	n/a	n/a	n/a	n/a	n/a
298.0	5.0	cognitive	stimulus	10	high_cue	high_stim	n/a	n/a	n/a	n/a	n/a	n/a	task-social/stim/runtype-cognitive/23_150.jpg	n/a	n/a	n/a	n/a	n/a	same	same	True
311.3	2.64	cognitive	outcomerating	10	high_cue	high_stim	48.25	Strong	48.25	Strong	0.82	2.08	task-social/outcomerating/task-cognitive_scale.png	n/a	n/a	n/a	n/a	n/a	n/a	n/a	n/a
326.19	1.0	cognitive	cue	11	low_cue	n/a	n/a	n/a	n/a	n/a	n/a	n/a	task-social/cue/runtype-cognitive/scl/l031.png	n/a	n/a	n/a	n/a	n/a	n/a	n/a	n/a
328.11	2.78	cognitive	expectrating	11	low_cue	n/a	39.81	Strong	39.81	Strong	0.62	2.17	task-social/cue/runtype-cognitive/scl/l031.png	n/a	n/a	n/a	n/a	n/a	n/a	n/a	n/a
342.4	5.0	cognitive	stimulus	11	low_cue	med_stim	n/a	n/a	n/a	n/a	n/a	n/a	task-social/stim/runtype-cognitive/34_100.jpg	n/a	n/a	n/a	n/a	n/a	same	diff	False
353.3	3.57	cognitive	outcomerating	11	low_cue	med_stim	47.93	Strong	47.93	Strong	0.62	2.17	task-social/outcomerating/task-cognitive_scale.png	n/a	n/a	n/a	n/a	n/a	n/a	n/a	n/a
366.41	0.98	cognitive	cue	12	low_cue	n/a	n/a	n/a	n/a	n/a	n/a	n/a	task-social/cue/runtype-cognitive/scl/l042.png	n/a	n/a	n/a	n/a	n/a	n/a	n/a	n/a
369.21	2.82	cognitive	expectrating	12	low_cue	n/a	40.1	Strong	40.1	Strong	0.65	2.17	task-social/cue/runtype-cognitive/scl/l042.png	n/a	n/a	n/a	n/a	n/a	n/a	n/a	n/a
375.8	5.0	cognitive	stimulus	12	low_cue	high_stim	n/a	n/a	n/a	n/a	n/a	n/a	task-social/stim/runtype-cognitive/22_150.jpg	n/a	n/a	n/a	n/a	n/a	same	same	True
394.8	3.19	cognitive	outcomerating	12	low_cue	high_stim	30.36	Strong	30.36	Strong	0.65	2.17	task-social/outcomerating/task-cognitive_scale.png	n/a	n/a	n/a	n/a	n/a	n/a	n/a	n/a
