onset	duration	run_type	trial_type	trial_index	cue	stimulusintensity	rating_value	rating_glmslabel	rating_value_fillna	rating_glmslabel_fillna	rating_mouseonset	rating_mousedur	stim_file	pain_onset_ttl1	pain_onset_ttl2	pain_onset_ttl3	pain_onset_ttl4	pain_stimulus_delivery_success	cognitive_correct_response	cognitive_participant_response	cognitive_response_accuracy
9.79	1.0	pain	cue	1	high_cue	n/a	n/a	n/a	n/a	n/a	n/a	n/a	task-social/cue/runtype-pain/sch/h006.png	n/a	n/a	n/a	n/a	n/a	n/a	n/a	n/a
12.49	3.52	pain	expectrating	1	high_cue	n/a	33.37	Strong	33.37	Strong	1.2	2.32	task-social/cue/runtype-pain/sch/h006.png	n/a	n/a	n/a	n/a	n/a	n/a	n/a	n/a
18.65	12.370000000000001	pain	stimulus	1	high_cue	med_stim	n/a	n/a	n/a	n/a	n/a	n/a	n/a	18.65	22.41	27.41	31.02	success	n/a	n/a	n/a
29.38	3.03	pain	outcomerating	1	high_cue	med_stim	40.93	Strong	40.93	Strong	0.48	2.55	task-social/outcomerating/task-pain_scale.png	n/a	n/a	n/a	n/a	success	n/a	n/a	n/a
34.79	1.0	pain	cue	2	high_cue	n/a	n/a	n/a	n/a	n/a	n/a	n/a	task-social/cue/runtype-pain/sch/h005.png	n/a	n/a	n/a	n/a	n/a	n/a	n/a	n/a
36.29	3.45	pain	expectrating	2	high_cue	n/a	57.78	Strong	57.78	Strong	0.43	3.02	task-social/cue/runtype-pain/sch/h005.png	n/a	n/a	n/a	n/a	n/a	n/a	n/a	n/a
42.41	12.82	pain	stimulus	2	high_cue	high_stim	n/a	n/a	n/a	n/a	n/a	n/a	n/a	42.41	46.42	51.42	55.23	success	n/a	n/a	n/a
52.79	2.22	pain	outcomerating	2	high_cue	high_stim	64.36	Very Strong	64.36	Very Strong	0.57	1.65	task-social/outcomerating/task-pain_scale.png	n/a	n/a	n/a	n/a	success	n/a	n/a	n/a
60.68	1.0	pain	cue	3	low_cue	n/a	n/a	n/a	n/a	n/a	n/a	n/a	task-social/cue/runtype-pain/scl/l010.png	n/a	n/a	n/a	n/a	n/a	n/a	n/a	n/a
62.8	2.72	pain	expectrating	3	low_cue	n/a	30.06	Strong	30.06	Strong	0.05	2.67	task-social/cue/runtype-pain/scl/l010.png	n/a	n/a	n/a	n/a	n/a	n/a	n/a	n/a
69.03	12.819999999999993	pain	stimulus	3	low_cue	high_stim	n/a	n/a	n/a	n/a	n/a	n/a	n/a	69.03	73.04	78.04	81.85	success	n/a	n/a	n/a
80.79	2.5	pain	outcomerating	3	low_cue	high_stim	30.69	Strong	30.69	Strong	0.45	2.05	task-social/outcomerating/task-pain_scale.png	n/a	n/a	n/a	n/a	success	n/a	n/a	n/a
90.09	1.0	pain	cue	4	high_cue	n/a	n/a	n/a	n/a	n/a	n/a	n/a	task-social/cue/runtype-pain/sch/h015.png	n/a	n/a	n/a	n/a	n/a	n/a	n/a	n/a
93.99	2.42	pain	expectrating	4	high_cue	n/a	58.09	Strong	58.09	Strong	0.05	2.37	task-social/cue/runtype-pain/sch/h015.png	n/a	n/a	n/a	n/a	n/a	n/a	n/a	n/a
102.22	11.900000000000006	pain	stimulus	4	high_cue	low_stim	n/a	n/a	n/a	n/a	n/a	n/a	n/a	102.22	105.72	110.72	114.12	success	n/a	n/a	n/a
112.6	3.5	pain	outcomerating	4	high_cue	low_stim	24.61	Moderate	24.61	Moderate	0.52	2.98	task-social/outcomerating/task-pain_scale.png	n/a	n/a	n/a	n/a	success	n/a	n/a	n/a
118.58	1.0	pain	cue	5	high_cue	n/a	n/a	n/a	n/a	n/a	n/a	n/a	task-social/cue/runtype-pain/sch/h007.png	n/a	n/a	n/a	n/a	n/a	n/a	n/a	n/a
122.48	2.22	pain	expectrating	5	high_cue	n/a	63.43	Strong	63.43	Strong	0.07	2.15	task-social/cue/runtype-pain/sch/h007.png	n/a	n/a	n/a	n/a	n/a	n/a	n/a	n/a
131.65	12.359999999999985	pain	stimulus	5	high_cue	med_stim	n/a	n/a	n/a	n/a	n/a	n/a	n/a	131.65	135.41	140.41	144.02	success	n/a	n/a	n/a
143.39	2.7	pain	outcomerating	5	high_cue	med_stim	38.59	Strong	38.59	Strong	0.2	2.5	task-social/outcomerating/task-pain_scale.png	n/a	n/a	n/a	n/a	success	n/a	n/a	n/a
157.58	1.0	pain	cue	6	low_cue	n/a	n/a	n/a	n/a	n/a	n/a	n/a	task-social/cue/runtype-pain/scl/l039.png	n/a	n/a	n/a	n/a	n/a	n/a	n/a	n/a
161.48	3.0	pain	expectrating	6	low_cue	n/a	25.31	Moderate	25.31	Moderate	0.5	2.5	task-social/cue/runtype-pain/scl/l039.png	n/a	n/a	n/a	n/a	n/a	n/a	n/a	n/a
166.42	11.900000000000006	pain	stimulus	6	low_cue	low_stim	n/a	n/a	n/a	n/a	n/a	n/a	n/a	166.42	169.92	174.92	178.32	success	n/a	n/a	n/a
178.29	3.01	pain	outcomerating	6	low_cue	low_stim	21.84	Moderate	21.84	Moderate	0.07	2.94	task-social/outcomerating/task-pain_scale.png	n/a	n/a	n/a	n/a	success	n/a	n/a	n/a
184.89	1.0	pain	cue	7	low_cue	n/a	n/a	n/a	n/a	n/a	n/a	n/a	task-social/cue/runtype-pain/scl/l003.png	n/a	n/a	n/a	n/a	n/a	n/a	n/a	n/a
186.39	3.17	pain	expectrating	7	low_cue	n/a	26.87	Moderate	26.87	Moderate	0.05	3.12	task-social/cue/runtype-pain/scl/l003.png	n/a	n/a	n/a	n/a	n/a	n/a	n/a	n/a
198.31	12.359999999999985	pain	stimulus	7	low_cue	med_stim	n/a	n/a	n/a	n/a	n/a	n/a	n/a	198.31	202.07	207.07	210.68	success	n/a	n/a	n/a
219.09	3.31	pain	outcomerating	7	low_cue	med_stim	37.83	Strong	37.83	Strong	0.83	2.48	task-social/outcomerating/task-pain_scale.png	n/a	n/a	n/a	n/a	success	n/a	n/a	n/a
225.09	1.0	pain	cue	8	low_cue	n/a	n/a	n/a	n/a	n/a	n/a	n/a	task-social/cue/runtype-pain/scl/l036.png	n/a	n/a	n/a	n/a	n/a	n/a	n/a	n/a
227.19	n/a	pain	expectrating	8	low_cue	n/a	n/a	n/a	30.37	Strong	0.57	3.25	task-social/cue/runtype-pain/scl/l036.png	n/a	n/a	n/a	n/a	n/a	n/a	n/a	n/a
238.13	12.360000000000014	pain	stimulus	8	low_cue	med_stim	n/a	n/a	n/a	n/a	n/a	n/a	n/a	238.13	241.89	246.89	250.5	success	n/a	n/a	n/a
249.98	n/a	pain	outcomerating	8	low_cue	med_stim	n/a	n/a	43.86	Strong	0.05	3.6	task-social/outcomerating/task-pain_scale.png	n/a	n/a	n/a	n/a	success	n/a	n/a	n/a
255.98	1.0	pain	cue	9	high_cue	n/a	n/a	n/a	n/a	n/a	n/a	n/a	task-social/cue/runtype-pain/sch/h053.png	n/a	n/a	n/a	n/a	n/a	n/a	n/a	n/a
258.69	1.85	pain	expectrating	9	high_cue	n/a	70.76	Very Strong	70.76	Very Strong	0.22	1.63	task-social/cue/runtype-pain/sch/h053.png	n/a	n/a	n/a	n/a	n/a	n/a	n/a	n/a
269.61	12.819999999999993	pain	stimulus	9	high_cue	high_stim	n/a	n/a	n/a	n/a	n/a	n/a	n/a	269.61	273.62	278.62	282.43	success	n/a	n/a	n/a
283.19	3.23	pain	outcomerating	9	high_cue	high_stim	52.17	Strong	52.17	Strong	0.63	2.6	task-social/outcomerating/task-pain_scale.png	n/a	n/a	n/a	n/a	success	n/a	n/a	n/a
291.58	1.0	pain	cue	10	low_cue	n/a	n/a	n/a	n/a	n/a	n/a	n/a	task-social/cue/runtype-pain/scl/l037.png	n/a	n/a	n/a	n/a	n/a	n/a	n/a	n/a
293.78	3.45	pain	expectrating	10	low_cue	n/a	19.94	Moderate	19.94	Moderate	0.05	3.4	task-social/cue/runtype-pain/scl/l037.png	n/a	n/a	n/a	n/a	n/a	n/a	n/a	n/a
302.91	11.899999999999977	pain	stimulus	10	low_cue	low_stim	n/a	n/a	n/a	n/a	n/a	n/a	n/a	302.91	306.41	311.41	314.81	success	n/a	n/a	n/a
319.89	3.67	pain	outcomerating	10	low_cue	low_stim	24.29	Moderate	24.29	Moderate	0.68	2.99	task-social/outcomerating/task-pain_scale.png	n/a	n/a	n/a	n/a	success	n/a	n/a	n/a
336.58	1.0	pain	cue	11	high_cue	n/a	n/a	n/a	n/a	n/a	n/a	n/a	task-social/cue/runtype-pain/sch/h031.png	n/a	n/a	n/a	n/a	n/a	n/a	n/a	n/a
338.28	2.6	pain	expectrating	11	high_cue	n/a	62.31	Strong	62.31	Strong	0.62	1.98	task-social/cue/runtype-pain/sch/h031.png	n/a	n/a	n/a	n/a	n/a	n/a	n/a	n/a
348.41	11.899999999999977	pain	stimulus	11	high_cue	low_stim	n/a	n/a	n/a	n/a	n/a	n/a	n/a	348.41	351.91	356.91	360.31	success	n/a	n/a	n/a
363.49	2.6	pain	outcomerating	11	high_cue	low_stim	47.11	Strong	47.11	Strong	0.45	2.15	task-social/outcomerating/task-pain_scale.png	n/a	n/a	n/a	n/a	success	n/a	n/a	n/a
367.99	0.98	pain	cue	12	low_cue	n/a	n/a	n/a	n/a	n/a	n/a	n/a	task-social/cue/runtype-pain/scl/l019.png	n/a	n/a	n/a	n/a	n/a	n/a	n/a	n/a
369.79	2.69	pain	expectrating	12	low_cue	n/a	4.59	Weak	4.59	Weak	0.42	2.27	task-social/cue/runtype-pain/scl/l019.png	n/a	n/a	n/a	n/a	n/a	n/a	n/a	n/a
378.32	12.819999999999993	pain	stimulus	12	low_cue	high_stim	n/a	n/a	n/a	n/a	n/a	n/a	n/a	378.32	382.33	387.33	391.14	success	n/a	n/a	n/a
394.79	1.98	pain	outcomerating	12	low_cue	high_stim	68.5	Very Strong	68.5	Very Strong	0.05	1.93	task-social/outcomerating/task-pain_scale.png	n/a	n/a	n/a	n/a	success	n/a	n/a	n/a
