onset	duration	run_type	trial_type	trial_index	cue	stimulusintensity	rating_value	rating_glmslabel	rating_value_fillna	rating_glmslabel_fillna	rating_mouseonset	rating_mousedur	stim_file	pain_onset_ttl1	pain_onset_ttl2	pain_onset_ttl3	pain_onset_ttl4	pain_stimulus_delivery_success	cognitive_correct_response	cognitive_participant_response	cognitive_response_accuracy
10.99	1.0	cognitive	cue	1	low_cue	n/a	n/a	n/a	n/a	n/a	n/a	n/a	task-social/cue/runtype-cognitive/scl/l053.png	n/a	n/a	n/a	n/a	n/a	n/a	n/a	n/a
14.3	1.85	cognitive	expectrating	1	low_cue	n/a	33.56	Strong	33.56	Strong	0.32	1.53	task-social/cue/runtype-cognitive/scl/l053.png	n/a	n/a	n/a	n/a	n/a	n/a	n/a	n/a
32.5	5.0	cognitive	stimulus	1	low_cue	med_stim	n/a	n/a	n/a	n/a	n/a	n/a	task-social/stim/runtype-cognitive/43_100.jpg	n/a	n/a	n/a	n/a	n/a	same	n/a	False
45.3	2.75	cognitive	outcomerating	1	low_cue	med_stim	23.68	Moderate	23.68	Moderate	0.32	1.53	task-social/outcomerating/task-cognitive_scale.png	n/a	n/a	n/a	n/a	n/a	n/a	n/a	n/a
51.5	0.98	cognitive	cue	2	low_cue	n/a	n/a	n/a	n/a	n/a	n/a	n/a	task-social/cue/runtype-cognitive/scl/l037.png	n/a	n/a	n/a	n/a	n/a	n/a	n/a	n/a
53.7	1.47	cognitive	expectrating	2	low_cue	n/a	29.74	Strong	29.74	Strong	0.3	1.17	task-social/cue/runtype-cognitive/scl/l037.png	n/a	n/a	n/a	n/a	n/a	n/a	n/a	n/a
62.39	5.0	cognitive	stimulus	2	low_cue	high_stim	n/a	n/a	n/a	n/a	n/a	n/a	task-social/stim/runtype-cognitive/18_150.jpg	n/a	n/a	n/a	n/a	n/a	same	same	True
75.19	2.74	cognitive	outcomerating	2	low_cue	high_stim	9.31	Weak	9.31	Weak	0.3	1.17	task-social/outcomerating/task-cognitive_scale.png	n/a	n/a	n/a	n/a	n/a	n/a	n/a	n/a
83.0	0.98	cognitive	cue	3	high_cue	n/a	n/a	n/a	n/a	n/a	n/a	n/a	task-social/cue/runtype-cognitive/sch/h015.png	n/a	n/a	n/a	n/a	n/a	n/a	n/a	n/a
85.8	1.7	cognitive	expectrating	3	high_cue	n/a	56.44	Strong	56.44	Strong	0.07	1.64	task-social/cue/runtype-cognitive/sch/h015.png	n/a	n/a	n/a	n/a	n/a	n/a	n/a	n/a
92.5	5.0	cognitive	stimulus	3	high_cue	low_stim	n/a	n/a	n/a	n/a	n/a	n/a	task-social/stim/runtype-cognitive/35_50.jpg	n/a	n/a	n/a	n/a	n/a	same	same	True
100.4	n/a	cognitive	outcomerating	3	high_cue	low_stim	n/a	n/a	47.12	Strong	0.07	1.64	task-social/outcomerating/task-cognitive_scale.png	n/a	n/a	n/a	n/a	n/a	n/a	n/a	n/a
117.19	0.99	cognitive	cue	4	high_cue	n/a	n/a	n/a	n/a	n/a	n/a	n/a	task-social/cue/runtype-cognitive/sch/h050.png	n/a	n/a	n/a	n/a	n/a	n/a	n/a	n/a
119.29	2.43	cognitive	expectrating	4	high_cue	n/a	59.12	Strong	59.12	Strong	0.07	2.36	task-social/cue/runtype-cognitive/sch/h050.png	n/a	n/a	n/a	n/a	n/a	n/a	n/a	n/a
132.8	5.0	cognitive	stimulus	4	high_cue	med_stim	n/a	n/a	n/a	n/a	n/a	n/a	task-social/stim/runtype-cognitive/5_100.jpg	n/a	n/a	n/a	n/a	n/a	same	diff	False
145.6	2.82	cognitive	outcomerating	4	high_cue	med_stim	21.63	Moderate	21.63	Moderate	0.07	2.36	task-social/outcomerating/task-cognitive_scale.png	n/a	n/a	n/a	n/a	n/a	n/a	n/a	n/a
150.49	0.99	cognitive	cue	5	high_cue	n/a	n/a	n/a	n/a	n/a	n/a	n/a	task-social/cue/runtype-cognitive/sch/h009.png	n/a	n/a	n/a	n/a	n/a	n/a	n/a	n/a
152.71	2.77	cognitive	expectrating	5	high_cue	n/a	53.68	Strong	53.68	Strong	0.67	2.1	task-social/cue/runtype-cognitive/sch/h009.png	n/a	n/a	n/a	n/a	n/a	n/a	n/a	n/a
170.9	5.0	cognitive	stimulus	5	high_cue	high_stim	n/a	n/a	n/a	n/a	n/a	n/a	task-social/stim/runtype-cognitive/11_150_R.jpg	n/a	n/a	n/a	n/a	n/a	diff	diff	True
179.6	1.75	cognitive	outcomerating	5	high_cue	high_stim	36.87	Strong	36.87	Strong	0.67	2.1	task-social/outcomerating/task-cognitive_scale.png	n/a	n/a	n/a	n/a	n/a	n/a	n/a	n/a
185.1	0.98	cognitive	cue	6	low_cue	n/a	n/a	n/a	n/a	n/a	n/a	n/a	task-social/cue/runtype-cognitive/scl/l012.png	n/a	n/a	n/a	n/a	n/a	n/a	n/a	n/a
187.1	2.13	cognitive	expectrating	6	low_cue	n/a	23.38	Moderate	23.38	Moderate	0.05	2.08	task-social/cue/runtype-cognitive/scl/l012.png	n/a	n/a	n/a	n/a	n/a	n/a	n/a	n/a
195.59	5.0	cognitive	stimulus	6	low_cue	high_stim	n/a	n/a	n/a	n/a	n/a	n/a	task-social/stim/runtype-cognitive/29_150_R.jpg	n/a	n/a	n/a	n/a	n/a	diff	diff	True
204.29	2.84	cognitive	outcomerating	6	low_cue	high_stim	27.69	Moderate	27.69	Moderate	0.05	2.08	task-social/outcomerating/task-cognitive_scale.png	n/a	n/a	n/a	n/a	n/a	n/a	n/a	n/a
213.2	0.99	cognitive	cue	7	low_cue	n/a	n/a	n/a	n/a	n/a	n/a	n/a	task-social/cue/runtype-cognitive/scl/l046.png	n/a	n/a	n/a	n/a	n/a	n/a	n/a	n/a
216.5	2.16	cognitive	expectrating	7	low_cue	n/a	31.2	Strong	31.2	Strong	0.83	1.32	task-social/cue/runtype-cognitive/scl/l046.png	n/a	n/a	n/a	n/a	n/a	n/a	n/a	n/a
225.0	5.0	cognitive	stimulus	7	low_cue	low_stim	n/a	n/a	n/a	n/a	n/a	n/a	task-social/stim/runtype-cognitive/44_50_R.jpg	n/a	n/a	n/a	n/a	n/a	diff	n/a	False
238.11	2.25	cognitive	outcomerating	7	low_cue	low_stim	23.89	Moderate	23.89	Moderate	0.83	1.32	task-social/outcomerating/task-cognitive_scale.png	n/a	n/a	n/a	n/a	n/a	n/a	n/a	n/a
244.29	0.99	cognitive	cue	8	high_cue	n/a	n/a	n/a	n/a	n/a	n/a	n/a	task-social/cue/runtype-cognitive/sch/h032.png	n/a	n/a	n/a	n/a	n/a	n/a	n/a	n/a
247.31	2.38	cognitive	expectrating	8	high_cue	n/a	51.02	Strong	51.02	Strong	0.43	1.95	task-social/cue/runtype-cognitive/sch/h032.png	n/a	n/a	n/a	n/a	n/a	n/a	n/a	n/a
253.99	5.0	cognitive	stimulus	8	high_cue	high_stim	n/a	n/a	n/a	n/a	n/a	n/a	task-social/stim/runtype-cognitive/47_150_R.jpg	n/a	n/a	n/a	n/a	n/a	diff	same	False
263.0	2.19	cognitive	outcomerating	8	high_cue	high_stim	17.27	Moderate	17.27	Moderate	0.43	1.95	task-social/outcomerating/task-cognitive_scale.png	n/a	n/a	n/a	n/a	n/a	n/a	n/a	n/a
270.4	0.98	cognitive	cue	9	high_cue	n/a	n/a	n/a	n/a	n/a	n/a	n/a	task-social/cue/runtype-cognitive/sch/h011.png	n/a	n/a	n/a	n/a	n/a	n/a	n/a	n/a
272.4	2.37	cognitive	expectrating	9	high_cue	n/a	50.05	Strong	50.05	Strong	0.33	2.04	task-social/cue/runtype-cognitive/sch/h011.png	n/a	n/a	n/a	n/a	n/a	n/a	n/a	n/a
281.7	5.0	cognitive	stimulus	9	high_cue	low_stim	n/a	n/a	n/a	n/a	n/a	n/a	task-social/stim/runtype-cognitive/44_50.jpg	n/a	n/a	n/a	n/a	n/a	same	diff	False
298.59	3.61	cognitive	outcomerating	9	high_cue	low_stim	35.43	Strong	35.43	Strong	0.33	2.04	task-social/outcomerating/task-cognitive_scale.png	n/a	n/a	n/a	n/a	n/a	n/a	n/a	n/a
304.1	0.99	cognitive	cue	10	low_cue	n/a	n/a	n/a	n/a	n/a	n/a	n/a	task-social/cue/runtype-cognitive/scl/l050.png	n/a	n/a	n/a	n/a	n/a	n/a	n/a	n/a
306.3	2.87	cognitive	expectrating	10	low_cue	n/a	8.36	Weak	8.36	Weak	0.7	2.17	task-social/cue/runtype-cognitive/scl/l050.png	n/a	n/a	n/a	n/a	n/a	n/a	n/a	n/a
313.6	5.0	cognitive	stimulus	10	low_cue	med_stim	n/a	n/a	n/a	n/a	n/a	n/a	task-social/stim/runtype-cognitive/44_100_R.jpg	n/a	n/a	n/a	n/a	n/a	diff	same	False
329.79	n/a	cognitive	outcomerating	10	low_cue	med_stim	n/a	n/a	29.57	Strong	0.7	2.17	task-social/outcomerating/task-cognitive_scale.png	n/a	n/a	n/a	n/a	n/a	n/a	n/a	n/a
338.09	0.99	cognitive	cue	11	low_cue	n/a	n/a	n/a	n/a	n/a	n/a	n/a	task-social/cue/runtype-cognitive/scl/l021.png	n/a	n/a	n/a	n/a	n/a	n/a	n/a	n/a
340.31	2.88	cognitive	expectrating	11	low_cue	n/a	9.27	Weak	9.27	Weak	0.78	2.1	task-social/cue/runtype-cognitive/scl/l021.png	n/a	n/a	n/a	n/a	n/a	n/a	n/a	n/a
352.2	5.0	cognitive	stimulus	11	low_cue	low_stim	n/a	n/a	n/a	n/a	n/a	n/a	task-social/stim/runtype-cognitive/29_50_R.jpg	n/a	n/a	n/a	n/a	n/a	diff	same	False
363.9	n/a	cognitive	outcomerating	11	low_cue	low_stim	n/a	n/a	30.0	Strong	0.78	2.1	task-social/outcomerating/task-cognitive_scale.png	n/a	n/a	n/a	n/a	n/a	n/a	n/a	n/a
376.09	0.99	cognitive	cue	12	high_cue	n/a	n/a	n/a	n/a	n/a	n/a	n/a	task-social/cue/runtype-cognitive/sch/h017.png	n/a	n/a	n/a	n/a	n/a	n/a	n/a	n/a
378.89	2.42	cognitive	expectrating	12	high_cue	n/a	46.46	Strong	46.46	Strong	1.07	1.35	task-social/cue/runtype-cognitive/sch/h017.png	n/a	n/a	n/a	n/a	n/a	n/a	n/a	n/a
387.39	5.0	cognitive	stimulus	12	high_cue	med_stim	n/a	n/a	n/a	n/a	n/a	n/a	task-social/stim/runtype-cognitive/42_100.jpg	n/a	n/a	n/a	n/a	n/a	same	same	True
395.0	n/a	cognitive	outcomerating	12	high_cue	med_stim	n/a	n/a	38.3	Strong	1.07	1.35	task-social/outcomerating/task-cognitive_scale.png	n/a	n/a	n/a	n/a	n/a	n/a	n/a	n/a
