onset	duration	run_type	trial_type	trial_index	cue	stimulusintensity	rating_value	rating_glmslabel	rating_value_fillna	rating_glmslabel_fillna	rating_mouseonset	rating_mousedur	stim_file_TODO	pain_onset_ttl1	pain_onset_ttl2	pain_onset_ttl3	pain_onset_ttl4	pain_stimulus_delivery_success	cognitive_correct_response	cognitive_participant_response	cognitive_response_accuracy
3.89	0.99	cognitive	cue	1	high_cue	n/a	n/a	n/a	n/a	n/a	n/a	n/a	task-social/cue/runtype-cognitive/sch/h019.png	n/a	n/a	n/a	n/a	n/a	n/a	n/a	n/a
5.73	2.18	cognitive	expectrating	1	high_cue	n/a	74.05	Very Strong	74.05	Very Strong	0.05	2.13	task-social/cue/runtype-cognitive/sch/h019.png	n/a	n/a	n/a	n/a	n/a	n/a	n/a	n/a
19.61	5.0	cognitive	stimulus	1	high_cue	med_stim	n/a	n/a	n/a	n/a	n/a	n/a	task-social/stim/runtype-cognitive/43_100_R.jpg	n/a	n/a	n/a	n/a	n/a	diff	diff	True
30.3	1.43	cognitive	outcomerating	1	high_cue	med_stim	51.27	Strong	51.27	Strong	0.05	2.13	task-social/outcomerating/task-cognitive_scale.png	n/a	n/a	n/a	n/a	n/a	n/a	n/a	n/a
36.2	0.98	cognitive	cue	2	low_cue	n/a	n/a	n/a	n/a	n/a	n/a	n/a	task-social/cue/runtype-cognitive/scl/l038.png	n/a	n/a	n/a	n/a	n/a	n/a	n/a	n/a
38.7	3.57	cognitive	expectrating	2	low_cue	n/a	18.21	Moderate	18.21	Moderate	0.07	3.5	task-social/cue/runtype-cognitive/scl/l038.png	n/a	n/a	n/a	n/a	n/a	n/a	n/a	n/a
45.61	5.0	cognitive	stimulus	2	low_cue	med_stim	n/a	n/a	n/a	n/a	n/a	n/a	task-social/stim/runtype-cognitive/39_100.jpg	n/a	n/a	n/a	n/a	n/a	same	same	True
56.29	3.12	cognitive	outcomerating	2	low_cue	med_stim	20.77	Moderate	20.77	Moderate	0.07	3.5	task-social/outcomerating/task-cognitive_scale.png	n/a	n/a	n/a	n/a	n/a	n/a	n/a	n/a
63.6	0.99	cognitive	cue	3	high_cue	n/a	n/a	n/a	n/a	n/a	n/a	n/a	task-social/cue/runtype-cognitive/sch/h033.png	n/a	n/a	n/a	n/a	n/a	n/a	n/a	n/a
66.1	2.55	cognitive	expectrating	3	high_cue	n/a	56.82	Strong	56.82	Strong	0.05	2.5	task-social/cue/runtype-cognitive/sch/h033.png	n/a	n/a	n/a	n/a	n/a	n/a	n/a	n/a
77.8	5.0	cognitive	stimulus	3	high_cue	low_stim	n/a	n/a	n/a	n/a	n/a	n/a	task-social/stim/runtype-cognitive/31_50.jpg	n/a	n/a	n/a	n/a	n/a	same	diff	False
90.91	3.15	cognitive	outcomerating	3	high_cue	low_stim	37.33	Strong	37.33	Strong	0.05	2.5	task-social/outcomerating/task-cognitive_scale.png	n/a	n/a	n/a	n/a	n/a	n/a	n/a	n/a
103.5	0.99	cognitive	cue	4	low_cue	n/a	n/a	n/a	n/a	n/a	n/a	n/a	task-social/cue/runtype-cognitive/scl/l019.png	n/a	n/a	n/a	n/a	n/a	n/a	n/a	n/a
106.0	2.82	cognitive	expectrating	4	low_cue	n/a	32.96	Strong	32.96	Strong	0.2	2.62	task-social/cue/runtype-cognitive/scl/l019.png	n/a	n/a	n/a	n/a	n/a	n/a	n/a	n/a
118.9	5.0	cognitive	stimulus	4	low_cue	med_stim	n/a	n/a	n/a	n/a	n/a	n/a	task-social/stim/runtype-cognitive/41_100.jpg	n/a	n/a	n/a	n/a	n/a	same	same	True
131.81	2.88	cognitive	outcomerating	4	low_cue	med_stim	28.21	Moderate	28.21	Moderate	0.2	2.62	task-social/outcomerating/task-cognitive_scale.png	n/a	n/a	n/a	n/a	n/a	n/a	n/a	n/a
138.99	0.99	cognitive	cue	5	high_cue	n/a	n/a	n/a	n/a	n/a	n/a	n/a	task-social/cue/runtype-cognitive/sch/h009.png	n/a	n/a	n/a	n/a	n/a	n/a	n/a	n/a
142.89	2.12	cognitive	expectrating	5	high_cue	n/a	56.83	Strong	56.83	Strong	0.25	1.87	task-social/cue/runtype-cognitive/sch/h009.png	n/a	n/a	n/a	n/a	n/a	n/a	n/a	n/a
157.5	5.0	cognitive	stimulus	5	high_cue	high_stim	n/a	n/a	n/a	n/a	n/a	n/a	task-social/stim/runtype-cognitive/17_150.jpg	n/a	n/a	n/a	n/a	n/a	same	same	True
170.3	2.15	cognitive	outcomerating	5	high_cue	high_stim	16.23	Moderate	16.23	Moderate	0.25	1.87	task-social/outcomerating/task-cognitive_scale.png	n/a	n/a	n/a	n/a	n/a	n/a	n/a	n/a
190.59	0.99	cognitive	cue	6	low_cue	n/a	n/a	n/a	n/a	n/a	n/a	n/a	task-social/cue/runtype-cognitive/scl/l029.png	n/a	n/a	n/a	n/a	n/a	n/a	n/a	n/a
193.0	2.07	cognitive	expectrating	6	low_cue	n/a	45.0	Strong	45.0	Strong	0.05	2.02	task-social/cue/runtype-cognitive/scl/l029.png	n/a	n/a	n/a	n/a	n/a	n/a	n/a	n/a
203.5	5.0	cognitive	stimulus	6	low_cue	low_stim	n/a	n/a	n/a	n/a	n/a	n/a	task-social/stim/runtype-cognitive/12_50.jpg	n/a	n/a	n/a	n/a	n/a	same	same	True
212.1	3.49	cognitive	outcomerating	6	low_cue	low_stim	4.42	Weak	4.42	Weak	0.05	2.02	task-social/outcomerating/task-cognitive_scale.png	n/a	n/a	n/a	n/a	n/a	n/a	n/a	n/a
219.21	0.98	cognitive	cue	7	low_cue	n/a	n/a	n/a	n/a	n/a	n/a	n/a	task-social/cue/runtype-cognitive/scl/l052.png	n/a	n/a	n/a	n/a	n/a	n/a	n/a	n/a
221.01	n/a	cognitive	expectrating	7	low_cue	n/a	n/a	n/a	14.15	Moderate	0.05	3.23	task-social/cue/runtype-cognitive/scl/l052.png	n/a	n/a	n/a	n/a	n/a	n/a	n/a	n/a
231.39	5.0	cognitive	stimulus	7	low_cue	high_stim	n/a	n/a	n/a	n/a	n/a	n/a	task-social/stim/runtype-cognitive/17_150_R.jpg	n/a	n/a	n/a	n/a	n/a	diff	diff	True
243.51	2.44	cognitive	outcomerating	7	low_cue	high_stim	16.56	Moderate	16.56	Moderate	0.05	3.23	task-social/outcomerating/task-cognitive_scale.png	n/a	n/a	n/a	n/a	n/a	n/a	n/a	n/a
252.6	0.98	cognitive	cue	8	high_cue	n/a	n/a	n/a	n/a	n/a	n/a	n/a	task-social/cue/runtype-cognitive/sch/h005.png	n/a	n/a	n/a	n/a	n/a	n/a	n/a	n/a
254.2	1.37	cognitive	expectrating	8	high_cue	n/a	38.66	Strong	38.66	Strong	0.05	1.32	task-social/cue/runtype-cognitive/sch/h005.png	n/a	n/a	n/a	n/a	n/a	n/a	n/a	n/a
263.6	5.0	cognitive	stimulus	8	high_cue	med_stim	n/a	n/a	n/a	n/a	n/a	n/a	task-social/stim/runtype-cognitive/17_100.jpg	n/a	n/a	n/a	n/a	n/a	same	same	True
273.51	2.0	cognitive	outcomerating	8	high_cue	med_stim	18.74	Moderate	18.74	Moderate	0.05	1.32	task-social/outcomerating/task-cognitive_scale.png	n/a	n/a	n/a	n/a	n/a	n/a	n/a	n/a
281.7	0.99	cognitive	cue	9	high_cue	n/a	n/a	n/a	n/a	n/a	n/a	n/a	task-social/cue/runtype-cognitive/sch/h023.png	n/a	n/a	n/a	n/a	n/a	n/a	n/a	n/a
283.3	1.46	cognitive	expectrating	9	high_cue	n/a	25.43	Moderate	25.43	Moderate	0.07	1.39	task-social/cue/runtype-cognitive/sch/h023.png	n/a	n/a	n/a	n/a	n/a	n/a	n/a	n/a
290.2	5.0	cognitive	stimulus	9	high_cue	low_stim	n/a	n/a	n/a	n/a	n/a	n/a	task-social/stim/runtype-cognitive/4_50_R.jpg	n/a	n/a	n/a	n/a	n/a	diff	diff	True
307.1	2.73	cognitive	outcomerating	9	high_cue	low_stim	15.72	Moderate	15.72	Moderate	0.07	1.39	task-social/outcomerating/task-cognitive_scale.png	n/a	n/a	n/a	n/a	n/a	n/a	n/a	n/a
312.19	1.0	cognitive	cue	10	low_cue	n/a	n/a	n/a	n/a	n/a	n/a	n/a	task-social/cue/runtype-cognitive/scl/l010.png	n/a	n/a	n/a	n/a	n/a	n/a	n/a	n/a
316.11	n/a	cognitive	expectrating	10	low_cue	n/a	n/a	n/a	22.29	Moderate	0.13	3.9	task-social/cue/runtype-cognitive/scl/l010.png	n/a	n/a	n/a	n/a	n/a	n/a	n/a	n/a
330.7	5.0	cognitive	stimulus	10	low_cue	high_stim	n/a	n/a	n/a	n/a	n/a	n/a	task-social/stim/runtype-cognitive/29_150_R.jpg	n/a	n/a	n/a	n/a	n/a	diff	diff	True
342.02	3.27	cognitive	outcomerating	10	low_cue	high_stim	36.87	Strong	36.87	Strong	0.13	3.9	task-social/outcomerating/task-cognitive_scale.png	n/a	n/a	n/a	n/a	n/a	n/a	n/a	n/a
348.8	0.98	cognitive	cue	11	high_cue	n/a	n/a	n/a	n/a	n/a	n/a	n/a	task-social/cue/runtype-cognitive/sch/h046.png	n/a	n/a	n/a	n/a	n/a	n/a	n/a	n/a
350.5	1.75	cognitive	expectrating	11	high_cue	n/a	53.85	Strong	53.85	Strong	0.05	1.7	task-social/cue/runtype-cognitive/sch/h046.png	n/a	n/a	n/a	n/a	n/a	n/a	n/a	n/a
357.21	5.0	cognitive	stimulus	11	high_cue	high_stim	n/a	n/a	n/a	n/a	n/a	n/a	task-social/stim/runtype-cognitive/6_150.jpg	n/a	n/a	n/a	n/a	n/a	same	same	True
368.29	2.44	cognitive	outcomerating	11	high_cue	high_stim	63.33	Strong	63.33	Strong	0.05	1.7	task-social/outcomerating/task-cognitive_scale.png	n/a	n/a	n/a	n/a	n/a	n/a	n/a	n/a
375.6	0.99	cognitive	cue	12	low_cue	n/a	n/a	n/a	n/a	n/a	n/a	n/a	task-social/cue/runtype-cognitive/scl/l033.png	n/a	n/a	n/a	n/a	n/a	n/a	n/a	n/a
379.5	2.79	cognitive	expectrating	12	low_cue	n/a	36.22	Strong	36.22	Strong	0.05	2.74	task-social/cue/runtype-cognitive/scl/l033.png	n/a	n/a	n/a	n/a	n/a	n/a	n/a	n/a
387.2	5.0	cognitive	stimulus	12	low_cue	low_stim	n/a	n/a	n/a	n/a	n/a	n/a	task-social/stim/runtype-cognitive/43_50.jpg	n/a	n/a	n/a	n/a	n/a	same	same	True
395.3	2.97	cognitive	outcomerating	12	low_cue	low_stim	31.96	Strong	31.96	Strong	0.05	2.74	task-social/outcomerating/task-cognitive_scale.png	n/a	n/a	n/a	n/a	n/a	n/a	n/a	n/a
