onset	duration	run_type	trial_type	trial_index	cue	stimulusintensity	rating_value	rating_glmslabel	rating_value_fillna	rating_glmslabel_fillna	rating_mouseonset	rating_mousedur	stim_file_TODO	pain_onset_ttl1	pain_onset_ttl2	pain_onset_ttl3	pain_onset_ttl4	pain_stimulus_delivery_success	cognitive_correct_response	cognitive_participant_response	cognitive_response_accuracy
4.69	1.0	pain	cue	1	high_cue	n/a	n/a	n/a	n/a	n/a	n/a	n/a	task-social/cue/runtype-pain/sch/h014.png	n/a	n/a	n/a	n/a	n/a	n/a	n/a	n/a
7.12	1.28	pain	expectrating	1	high_cue	n/a	73.02	Very Strong	73.02	Very Strong	0.37	0.92	task-social/cue/runtype-pain/sch/h014.png	n/a	n/a	n/a	n/a	n/a	n/a	n/a	n/a
15.74	11.909999999999998	pain	stimulus	1	high_cue	low_stim	n/a	n/a	n/a	n/a	n/a	n/a	n/a	15.74	19.24	24.24	27.64	success	n/a	n/a	n/a
27.1	2.26	pain	outcomerating	1	high_cue	low_stim	87.69	Very Strong	87.69	Very Strong	0.37	0.92	task-social/outcomerating/task-pain_scale.png	n/a	n/a	n/a	n/a	success	n/a	n/a	n/a
33.0	1.0	pain	cue	2	low_cue	n/a	n/a	n/a	n/a	n/a	n/a	n/a	task-social/cue/runtype-pain/scl/l010.png	n/a	n/a	n/a	n/a	n/a	n/a	n/a	n/a
34.8	1.37	pain	expectrating	2	low_cue	n/a	42.16	Strong	42.16	Strong	0.45	0.92	task-social/cue/runtype-pain/scl/l010.png	n/a	n/a	n/a	n/a	n/a	n/a	n/a	n/a
39.92	11.909999999999997	pain	stimulus	2	low_cue	low_stim	n/a	n/a	n/a	n/a	n/a	n/a	n/a	39.92	43.42	48.42	51.82	success	n/a	n/a	n/a
53.09	1.27	pain	outcomerating	2	low_cue	low_stim	58.09	Strong	58.09	Strong	0.45	0.92	task-social/outcomerating/task-pain_scale.png	n/a	n/a	n/a	n/a	success	n/a	n/a	n/a
57.99	1.0	pain	cue	3	low_cue	n/a	n/a	n/a	n/a	n/a	n/a	n/a	task-social/cue/runtype-pain/scl/l053.png	n/a	n/a	n/a	n/a	n/a	n/a	n/a	n/a
60.09	1.33	pain	expectrating	3	low_cue	n/a	72.51	Very Strong	72.51	Very Strong	0.37	0.96	task-social/cue/runtype-pain/scl/l053.png	n/a	n/a	n/a	n/a	n/a	n/a	n/a	n/a
66.73	12.36	pain	stimulus	3	low_cue	med_stim	n/a	n/a	n/a	n/a	n/a	n/a	n/a	66.73	70.49	75.49	79.1	success	n/a	n/a	n/a
78.3	1.37	pain	outcomerating	3	low_cue	med_stim	79.53	Very Strong	79.53	Very Strong	0.37	0.96	task-social/outcomerating/task-pain_scale.png	n/a	n/a	n/a	n/a	success	n/a	n/a	n/a
83.4	0.98	pain	cue	4	low_cue	n/a	n/a	n/a	n/a	n/a	n/a	n/a	task-social/cue/runtype-pain/scl/l034.png	n/a	n/a	n/a	n/a	n/a	n/a	n/a	n/a
86.5	1.0	pain	expectrating	4	low_cue	n/a	45.5	Strong	45.5	Strong	0.07	0.93	task-social/cue/runtype-pain/scl/l034.png	n/a	n/a	n/a	n/a	n/a	n/a	n/a	n/a
99.92	12.819999999999993	pain	stimulus	4	low_cue	high_stim	n/a	n/a	n/a	n/a	n/a	n/a	n/a	99.92	103.93	108.93	112.74	success	n/a	n/a	n/a
111.2	1.56	pain	outcomerating	4	low_cue	high_stim	75.68	Very Strong	75.68	Very Strong	0.07	0.93	task-social/outcomerating/task-pain_scale.png	n/a	n/a	n/a	n/a	success	n/a	n/a	n/a
115.8	1.0	pain	cue	5	high_cue	n/a	n/a	n/a	n/a	n/a	n/a	n/a	task-social/cue/runtype-pain/sch/h053.png	n/a	n/a	n/a	n/a	n/a	n/a	n/a	n/a
118.2	2.0	pain	expectrating	5	high_cue	n/a	94.36	Very Strong	94.36	Very Strong	0.35	1.65	task-social/cue/runtype-pain/sch/h053.png	n/a	n/a	n/a	n/a	n/a	n/a	n/a	n/a
123.62	12.359999999999985	pain	stimulus	5	high_cue	med_stim	n/a	n/a	n/a	n/a	n/a	n/a	n/a	123.62	127.38	132.38	135.99	success	n/a	n/a	n/a
134.9	1.27	pain	outcomerating	5	high_cue	med_stim	72.59	Very Strong	72.59	Very Strong	0.35	1.65	task-social/outcomerating/task-pain_scale.png	n/a	n/a	n/a	n/a	success	n/a	n/a	n/a
139.59	1.0	pain	cue	6	high_cue	n/a	n/a	n/a	n/a	n/a	n/a	n/a	task-social/cue/runtype-pain/sch/h009.png	n/a	n/a	n/a	n/a	n/a	n/a	n/a	n/a
141.71	1.62	pain	expectrating	6	high_cue	n/a	101.91	Strongest sensation of any kind	101.91	Strongest sensation of any kind	0.2	1.42	task-social/cue/runtype-pain/sch/h009.png	n/a	n/a	n/a	n/a	n/a	n/a	n/a	n/a
151.22	12.819999999999993	pain	stimulus	6	high_cue	high_stim	n/a	n/a	n/a	n/a	n/a	n/a	n/a	151.22	155.23	160.23	164.04	success	n/a	n/a	n/a
161.6	2.12	pain	outcomerating	6	high_cue	high_stim	96.49	Very Strong	96.49	Very Strong	0.2	1.42	task-social/outcomerating/task-pain_scale.png	n/a	n/a	n/a	n/a	success	n/a	n/a	n/a
167.6	1.0	pain	cue	7	high_cue	n/a	n/a	n/a	n/a	n/a	n/a	n/a	task-social/cue/runtype-pain/sch/h001.png	n/a	n/a	n/a	n/a	n/a	n/a	n/a	n/a
169.7	1.54	pain	expectrating	7	high_cue	n/a	93.78	Very Strong	93.78	Very Strong	0.32	1.22	task-social/cue/runtype-pain/sch/h001.png	n/a	n/a	n/a	n/a	n/a	n/a	n/a	n/a
180.53	11.900000000000006	pain	stimulus	7	high_cue	low_stim	n/a	n/a	n/a	n/a	n/a	n/a	n/a	180.53	184.03	189.03	192.43	success	n/a	n/a	n/a
201.7	2.19	pain	outcomerating	7	high_cue	low_stim	66.83	Very Strong	66.83	Very Strong	0.32	1.22	task-social/outcomerating/task-pain_scale.png	n/a	n/a	n/a	n/a	success	n/a	n/a	n/a
213.4	0.98	pain	cue	8	high_cue	n/a	n/a	n/a	n/a	n/a	n/a	n/a	task-social/cue/runtype-pain/sch/h044.png	n/a	n/a	n/a	n/a	n/a	n/a	n/a	n/a
215.5	2.07	pain	expectrating	8	high_cue	n/a	100.95	Strongest sensation of any kind	100.95	Strongest sensation of any kind	0.55	1.52	task-social/cue/runtype-pain/sch/h044.png	n/a	n/a	n/a	n/a	n/a	n/a	n/a	n/a
224.62	12.819999999999993	pain	stimulus	8	high_cue	high_stim	n/a	n/a	n/a	n/a	n/a	n/a	n/a	224.62	228.63	233.63	237.44	success	n/a	n/a	n/a
239.19	1.44	pain	outcomerating	8	high_cue	high_stim	92.32	Very Strong	92.32	Very Strong	0.55	1.52	task-social/outcomerating/task-pain_scale.png	n/a	n/a	n/a	n/a	success	n/a	n/a	n/a
244.1	1.0	pain	cue	9	low_cue	n/a	n/a	n/a	n/a	n/a	n/a	n/a	task-social/cue/runtype-pain/scl/l051.png	n/a	n/a	n/a	n/a	n/a	n/a	n/a	n/a
247.2	1.52	pain	expectrating	9	low_cue	n/a	64.57	Very Strong	64.57	Very Strong	0.25	1.27	task-social/cue/runtype-pain/scl/l051.png	n/a	n/a	n/a	n/a	n/a	n/a	n/a	n/a
255.82	11.910000000000025	pain	stimulus	9	low_cue	low_stim	n/a	n/a	n/a	n/a	n/a	n/a	n/a	255.82	259.32	264.32	267.72	success	n/a	n/a	n/a
269.1	2.03	pain	outcomerating	9	low_cue	low_stim	54.33	Strong	54.33	Strong	0.25	1.27	task-social/outcomerating/task-pain_scale.png	n/a	n/a	n/a	n/a	success	n/a	n/a	n/a
275.09	1.0	pain	cue	10	low_cue	n/a	n/a	n/a	n/a	n/a	n/a	n/a	task-social/cue/runtype-pain/scl/l019.png	n/a	n/a	n/a	n/a	n/a	n/a	n/a	n/a
278.19	2.38	pain	expectrating	10	low_cue	n/a	52.57	Strong	52.57	Strong	0.3	2.08	task-social/cue/runtype-pain/scl/l019.png	n/a	n/a	n/a	n/a	n/a	n/a	n/a	n/a
283.34	12.360000000000014	pain	stimulus	10	low_cue	med_stim	n/a	n/a	n/a	n/a	n/a	n/a	n/a	283.34	287.1	292.1	295.71	success	n/a	n/a	n/a
296.5	1.12	pain	outcomerating	10	low_cue	med_stim	63.02	Strong	63.02	Strong	0.3	2.08	task-social/outcomerating/task-pain_scale.png	n/a	n/a	n/a	n/a	success	n/a	n/a	n/a
317.59	1.0	pain	cue	11	low_cue	n/a	n/a	n/a	n/a	n/a	n/a	n/a	task-social/cue/runtype-pain/scl/l052.png	n/a	n/a	n/a	n/a	n/a	n/a	n/a	n/a
319.99	1.23	pain	expectrating	11	low_cue	n/a	64.68	Very Strong	64.68	Very Strong	0.38	0.85	task-social/cue/runtype-pain/scl/l052.png	n/a	n/a	n/a	n/a	n/a	n/a	n/a	n/a
329.62	12.819999999999993	pain	stimulus	11	low_cue	high_stim	n/a	n/a	n/a	n/a	n/a	n/a	n/a	329.62	333.63	338.63	342.44	success	n/a	n/a	n/a
341.3	1.47	pain	outcomerating	11	low_cue	high_stim	70.98	Very Strong	70.98	Very Strong	0.38	0.85	task-social/outcomerating/task-pain_scale.png	n/a	n/a	n/a	n/a	success	n/a	n/a	n/a
362.29	1.0	pain	cue	12	high_cue	n/a	n/a	n/a	n/a	n/a	n/a	n/a	task-social/cue/runtype-pain/sch/h039.png	n/a	n/a	n/a	n/a	n/a	n/a	n/a	n/a
365.39	1.13	pain	expectrating	12	high_cue	n/a	93.91	Very Strong	93.91	Very Strong	0.05	1.08	task-social/cue/runtype-pain/sch/h039.png	n/a	n/a	n/a	n/a	n/a	n/a	n/a	n/a
375.52	12.360000000000014	pain	stimulus	12	high_cue	med_stim	n/a	n/a	n/a	n/a	n/a	n/a	n/a	375.52	379.28	384.28	387.89	success	n/a	n/a	n/a
394.1	1.72	pain	outcomerating	12	high_cue	med_stim	48.25	Strong	48.25	Strong	0.05	1.08	task-social/outcomerating/task-pain_scale.png	n/a	n/a	n/a	n/a	success	n/a	n/a	n/a
