onset	duration	subtask_type	question	event_type	participant_response	normative_response	response_accuracy	stim_file	trial_index
0.085	2.034	tomspunt	reaching?	block_question_presentation	n/a	n/a	n/a	n/a	0
0.085	0.3	tomspunt	reaching?	block_question_presentation	n/a	n/a	n/a	n/a	1
0.085	0.3	tomspunt	reaching?	block_question_presentation	n/a	n/a	n/a	n/a	2
0.085	0.3	tomspunt	reaching?	block_question_presentation	n/a	n/a	n/a	n/a	3
0.085	0.3	tomspunt	reaching?	block_question_presentation	n/a	n/a	n/a	n/a	4
0.085	0.3	tomspunt	reaching?	block_question_presentation	n/a	n/a	n/a	n/a	5
0.085	0.3	tomspunt	reaching?	block_question_presentation	n/a	n/a	n/a	n/a	6
0.085	0.3	tomspunt	reaching?	block_question_presentation	n/a	n/a	n/a	n/a	7
5.029	0.636	tomspunt	reaching?	how_hand	yes	yes	correct	task-tomspunt/H_006.jpg	0
5.979	0.785	tomspunt	reaching?	how_hand	yes	no	incorrect	task-tomspunt/H_438.jpg	1
7.079	0.602	tomspunt	reaching?	how_hand	yes	yes	correct	task-tomspunt/H_003.jpg	2
7.996	0.668	tomspunt	reaching?	how_hand	yes	yes	correct	task-tomspunt/H_474.jpg	3
8.98	0.553	tomspunt	reaching?	how_hand	no	no	correct	task-tomspunt/H_532.jpg	4
9.847	0.568	tomspunt	reaching?	how_hand	yes	yes	correct	task-tomspunt/H_364.jpg	5
10.731	0.601	tomspunt	reaching?	how_hand	yes	yes	correct	task-tomspunt/H_007.jpg	6
11.648	0.535	tomspunt	reaching?	how_hand	no	no	correct	task-tomspunt/H_132.jpg	7
18.975	2.101	tomspunt	healthy?	block_question_presentation	n/a	n/a	n/a	n/a	8
18.975	0.3	tomspunt	healthy?	block_question_presentation	n/a	n/a	n/a	n/a	9
18.975	0.3	tomspunt	healthy?	block_question_presentation	n/a	n/a	n/a	n/a	10
18.975	0.3	tomspunt	healthy?	block_question_presentation	n/a	n/a	n/a	n/a	11
18.975	0.3	tomspunt	healthy?	block_question_presentation	n/a	n/a	n/a	n/a	12
18.975	0.3	tomspunt	healthy?	block_question_presentation	n/a	n/a	n/a	n/a	13
18.975	0.3	tomspunt	healthy?	block_question_presentation	n/a	n/a	n/a	n/a	14
18.975	0.3	tomspunt	healthy?	block_question_presentation	n/a	n/a	n/a	n/a	15
23.986	0.751	tomspunt	healthy?	why_hand	yes	yes	correct	task-tomspunt/H_438.jpg	8
25.053	0.551	tomspunt	healthy?	why_hand	yes	no	incorrect	task-tomspunt/H_007.jpg	9
25.92	0.677	tomspunt	healthy?	why_hand	yes	yes	correct	task-tomspunt/H_364.jpg	10
26.904	0.644	tomspunt	healthy?	why_hand	yes	no	incorrect	task-tomspunt/H_019.jpg	11
27.854	0.668	tomspunt	healthy?	why_hand	no	yes	incorrect	task-tomspunt/H_167.jpg	12
28.838	0.61	tomspunt	healthy?	why_hand	yes	no	incorrect	task-tomspunt/H_130.jpg	13
29.755	0.609	tomspunt	healthy?	why_hand	no	yes	incorrect	task-tomspunt/H_627.jpg	14
30.672	0.584	tomspunt	healthy?	why_hand	yes	yes	correct	task-tomspunt/H_362.jpg	15
41.45	2.101	tomspunt	proud?	block_question_presentation	n/a	n/a	n/a	n/a	16
41.45	0.3	tomspunt	proud?	block_question_presentation	n/a	n/a	n/a	n/a	17
41.45	0.3	tomspunt	proud?	block_question_presentation	n/a	n/a	n/a	n/a	18
41.45	0.3	tomspunt	proud?	block_question_presentation	n/a	n/a	n/a	n/a	19
41.45	0.3	tomspunt	proud?	block_question_presentation	n/a	n/a	n/a	n/a	20
41.45	0.3	tomspunt	proud?	block_question_presentation	n/a	n/a	n/a	n/a	21
41.45	0.3	tomspunt	proud?	block_question_presentation	n/a	n/a	n/a	n/a	22
41.45	0.3	tomspunt	proud?	block_question_presentation	n/a	n/a	n/a	n/a	23
46.461	0.501	tomspunt	proud?	why_face	yes	yes	correct	task-tomspunt/F_083.jpg	16
47.278	0.568	tomspunt	proud?	why_face	no	no	correct	task-tomspunt/F_412.jpg	17
48.162	0.553	tomspunt	proud?	why_face	yes	yes	correct	task-tomspunt/F_695.jpg	18
49.028	0.552	tomspunt	proud?	why_face	yes	yes	correct	task-tomspunt/F_598.jpg	19
49.895	0.485	tomspunt	proud?	why_face	yes	yes	correct	task-tomspunt/F_618.jpg	20
50.696	0.635	tomspunt	proud?	why_face	yes	yes	correct	task-tomspunt/F_582.jpg	21
51.646	0.551	tomspunt	proud?	why_face	yes	no	incorrect	task-tomspunt/F_760.jpg	22
52.513	0.635	tomspunt	proud?	why_face	yes	no	incorrect	task-tomspunt/F_776.jpg	23
59.34	2.084	tomspunt	smiling?	block_question_presentation	n/a	n/a	n/a	n/a	24
59.34	0.3	tomspunt	smiling?	block_question_presentation	n/a	n/a	n/a	n/a	25
59.34	0.3	tomspunt	smiling?	block_question_presentation	n/a	n/a	n/a	n/a	26
59.34	0.3	tomspunt	smiling?	block_question_presentation	n/a	n/a	n/a	n/a	27
59.34	0.3	tomspunt	smiling?	block_question_presentation	n/a	n/a	n/a	n/a	28
59.34	0.3	tomspunt	smiling?	block_question_presentation	n/a	n/a	n/a	n/a	29
59.34	0.3	tomspunt	smiling?	block_question_presentation	n/a	n/a	n/a	n/a	30
59.34	0.3	tomspunt	smiling?	block_question_presentation	n/a	n/a	n/a	n/a	31
64.351	0.451	tomspunt	smiling?	how_face	yes	yes	correct	task-tomspunt/F_695.jpg	24
65.118	0.535	tomspunt	smiling?	how_face	no	no	correct	task-tomspunt/F_412.jpg	25
65.968	0.418	tomspunt	smiling?	how_face	yes	yes	correct	task-tomspunt/F_083.jpg	26
66.702	0.462	tomspunt	smiling?	how_face	yes	yes	correct	task-tomspunt/F_593.jpg	27
67.469	0.451	tomspunt	smiling?	how_face	no	no	correct	task-tomspunt/F_712.jpg	28
68.236	0.368	tomspunt	smiling?	how_face	yes	yes	correct	task-tomspunt/F_139.jpg	29
68.919	0.435	tomspunt	smiling?	how_face	yes	yes	correct	task-tomspunt/F_759.jpg	30
69.67	0.501	tomspunt	smiling?	how_face	no	no	correct	task-tomspunt/F_758.jpg	31
78.447	2.101	tomspunt	both hands?	block_question_presentation	n/a	n/a	n/a	n/a	32
78.447	0.3	tomspunt	both hands?	block_question_presentation	n/a	n/a	n/a	n/a	33
78.447	0.3	tomspunt	both hands?	block_question_presentation	n/a	n/a	n/a	n/a	34
78.447	0.3	tomspunt	both hands?	block_question_presentation	n/a	n/a	n/a	n/a	35
78.447	0.3	tomspunt	both hands?	block_question_presentation	n/a	n/a	n/a	n/a	36
78.447	0.3	tomspunt	both hands?	block_question_presentation	n/a	n/a	n/a	n/a	37
78.447	0.3	tomspunt	both hands?	block_question_presentation	n/a	n/a	n/a	n/a	38
78.447	0.3	tomspunt	both hands?	block_question_presentation	n/a	n/a	n/a	n/a	39
83.458	0.706	tomspunt	both hands?	how_hand	no	yes	incorrect	task-tomspunt/H_167.jpg	32
84.475	0.635	tomspunt	both hands?	how_hand	yes	no	incorrect	task-tomspunt/H_159.jpg	33
85.425	0.722	tomspunt	both hands?	how_hand	yes	yes	correct	task-tomspunt/H_027.jpg	34
86.459	0.655	tomspunt	both hands?	how_hand	yes	yes	correct	task-tomspunt/H_581.jpg	35
87.426	0.771	tomspunt	both hands?	how_hand	no	no	correct	task-tomspunt/H_091.jpg	36
88.51	0.637	tomspunt	both hands?	how_hand	yes	yes	correct	task-tomspunt/H_111.jpg	37
89.46	0.818	tomspunt	both hands?	how_hand	no	no	correct	task-tomspunt/H_627.jpg	38
90.594	0.603	tomspunt	both hands?	how_hand	yes	yes	correct	task-tomspunt/H_349.jpg	39
95.954	2.101	tomspunt	helping?	block_question_presentation	n/a	n/a	n/a	n/a	40
95.954	0.3	tomspunt	helping?	block_question_presentation	n/a	n/a	n/a	n/a	41
95.954	0.3	tomspunt	helping?	block_question_presentation	n/a	n/a	n/a	n/a	42
95.954	0.3	tomspunt	helping?	block_question_presentation	n/a	n/a	n/a	n/a	43
95.954	0.3	tomspunt	helping?	block_question_presentation	n/a	n/a	n/a	n/a	44
95.954	0.3	tomspunt	helping?	block_question_presentation	n/a	n/a	n/a	n/a	45
95.954	0.3	tomspunt	helping?	block_question_presentation	n/a	n/a	n/a	n/a	46
95.954	0.3	tomspunt	helping?	block_question_presentation	n/a	n/a	n/a	n/a	47
100.965	0.818	tomspunt	helping?	why_hand	yes	yes	correct	task-tomspunt/H_111.jpg	40
102.098	0.851	tomspunt	helping?	why_hand	yes	yes	correct	task-tomspunt/H_077.jpg	41
103.266	0.601	tomspunt	helping?	why_hand	no	no	correct	task-tomspunt/H_159.jpg	42
104.183	0.651	tomspunt	helping?	why_hand	yes	yes	correct	task-tomspunt/H_474.jpg	43
105.15	0.902	tomspunt	helping?	why_hand	yes	no	incorrect	task-tomspunt/H_012.jpg	44
106.367	0.801	tomspunt	helping?	why_hand	yes	yes	correct	task-tomspunt/H_024.jpg	45
107.484	0.635	tomspunt	helping?	why_hand	no	no	correct	task-tomspunt/H_091.jpg	46
108.434	0.685	tomspunt	helping?	why_hand	yes	yes	correct	task-tomspunt/H_349.jpg	47
115.011	2.101	tomspunt	self-doubt?	block_question_presentation	n/a	n/a	n/a	n/a	48
115.011	0.3	tomspunt	self-doubt?	block_question_presentation	n/a	n/a	n/a	n/a	49
115.011	0.3	tomspunt	self-doubt?	block_question_presentation	n/a	n/a	n/a	n/a	50
115.011	0.3	tomspunt	self-doubt?	block_question_presentation	n/a	n/a	n/a	n/a	51
115.011	0.3	tomspunt	self-doubt?	block_question_presentation	n/a	n/a	n/a	n/a	52
115.011	0.3	tomspunt	self-doubt?	block_question_presentation	n/a	n/a	n/a	n/a	53
115.011	0.3	tomspunt	self-doubt?	block_question_presentation	n/a	n/a	n/a	n/a	54
115.011	0.3	tomspunt	self-doubt?	block_question_presentation	n/a	n/a	n/a	n/a	55
120.022	0.576	tomspunt	self-doubt?	why_face	yes	yes	correct	task-tomspunt/F_754.jpg	48
120.905	0.718	tomspunt	self-doubt?	why_face	yes	no	incorrect	task-tomspunt/F_128.jpg	49
121.939	0.651	tomspunt	self-doubt?	why_face	yes	yes	correct	task-tomspunt/F_544.jpg	50
122.906	0.708	tomspunt	self-doubt?	why_face	no	no	correct	task-tomspunt/F_086.jpg	51
123.923	0.558	tomspunt	self-doubt?	why_face	yes	yes	correct	task-tomspunt/F_798.jpg	52
124.79	0.641	tomspunt	self-doubt?	why_face	yes	yes	correct	task-tomspunt/F_584.jpg	53
125.741	0.635	tomspunt	self-doubt?	why_face	yes	yes	correct	task-tomspunt/F_111.jpg	54
126.691	0.818	tomspunt	self-doubt?	why_face	no	no	correct	task-tomspunt/F_774.jpg	55
132.801	2.101	tomspunt	looking to side?	block_question_presentation	n/a	n/a	n/a	n/a	56
132.801	0.3	tomspunt	looking to side?	block_question_presentation	n/a	n/a	n/a	n/a	57
132.801	0.3	tomspunt	looking to side?	block_question_presentation	n/a	n/a	n/a	n/a	58
132.801	0.3	tomspunt	looking to side?	block_question_presentation	n/a	n/a	n/a	n/a	59
132.801	0.3	tomspunt	looking to side?	block_question_presentation	n/a	n/a	n/a	n/a	60
132.801	0.3	tomspunt	looking to side?	block_question_presentation	n/a	n/a	n/a	n/a	61
132.801	0.3	tomspunt	looking to side?	block_question_presentation	n/a	n/a	n/a	n/a	62
132.801	0.3	tomspunt	looking to side?	block_question_presentation	n/a	n/a	n/a	n/a	63
137.812	0.502	tomspunt	looking to side?	how_face	yes	yes	correct	task-tomspunt/F_433.jpg	56
138.629	0.686	tomspunt	looking to side?	how_face	yes	no	incorrect	task-tomspunt/F_779.jpg	57
139.629	0.652	tomspunt	looking to side?	how_face	yes	yes	correct	task-tomspunt/F_760.jpg	58
140.596	0.635	tomspunt	looking to side?	how_face	no	no	correct	task-tomspunt/F_111.jpg	59
141.547	0.768	tomspunt	looking to side?	how_face	no	no	correct	task-tomspunt/F_798.jpg	60
142.63	0.601	tomspunt	looking to side?	how_face	yes	yes	correct	task-tomspunt/F_716.jpg	61
143.547	0.618	tomspunt	looking to side?	how_face	yes	yes	correct	task-tomspunt/F_590.jpg	62
144.481	0.618	tomspunt	looking to side?	how_face	no	yes	incorrect	task-tomspunt/F_110.jpg	63
150.324	2.101	tomspunt	argument?	block_question_presentation	n/a	n/a	n/a	n/a	64
150.324	0.3	tomspunt	argument?	block_question_presentation	n/a	n/a	n/a	n/a	65
150.324	0.3	tomspunt	argument?	block_question_presentation	n/a	n/a	n/a	n/a	66
150.324	0.3	tomspunt	argument?	block_question_presentation	n/a	n/a	n/a	n/a	67
150.324	0.3	tomspunt	argument?	block_question_presentation	n/a	n/a	n/a	n/a	68
150.324	0.3	tomspunt	argument?	block_question_presentation	n/a	n/a	n/a	n/a	69
150.324	0.3	tomspunt	argument?	block_question_presentation	n/a	n/a	n/a	n/a	70
150.324	0.3	tomspunt	argument?	block_question_presentation	n/a	n/a	n/a	n/a	71
155.335	0.601	tomspunt	argument?	why_face	yes	yes	correct	task-tomspunt/F_716.jpg	64
156.252	0.552	tomspunt	argument?	why_face	no	no	correct	task-tomspunt/F_139.jpg	65
157.119	0.535	tomspunt	argument?	why_face	yes	yes	correct	task-tomspunt/F_743.jpg	66
157.969	0.595	tomspunt	argument?	why_face	yes	yes	correct	task-tomspunt/F_403.jpg	67
158.87	0.601	tomspunt	argument?	why_face	yes	yes	correct	task-tomspunt/F_758.jpg	68
159.787	0.594	tomspunt	argument?	why_face	no	no	correct	task-tomspunt/F_844.jpg	69
160.687	0.644	tomspunt	argument?	why_face	yes	yes	correct	task-tomspunt/F_712.jpg	70
161.637	0.618	tomspunt	argument?	why_face	no	no	correct	task-tomspunt/F_433.jpg	71
169.115	2.101	tomspunt	open mouth?	block_question_presentation	n/a	n/a	n/a	n/a	72
169.115	0.3	tomspunt	open mouth?	block_question_presentation	n/a	n/a	n/a	n/a	73
169.115	0.3	tomspunt	open mouth?	block_question_presentation	n/a	n/a	n/a	n/a	74
169.115	0.3	tomspunt	open mouth?	block_question_presentation	n/a	n/a	n/a	n/a	75
169.115	0.3	tomspunt	open mouth?	block_question_presentation	n/a	n/a	n/a	n/a	76
169.115	0.3	tomspunt	open mouth?	block_question_presentation	n/a	n/a	n/a	n/a	77
169.115	0.3	tomspunt	open mouth?	block_question_presentation	n/a	n/a	n/a	n/a	78
169.115	0.3	tomspunt	open mouth?	block_question_presentation	n/a	n/a	n/a	n/a	79
174.125	0.456	tomspunt	open mouth?	how_face	yes	yes	correct	task-tomspunt/F_844.jpg	72
174.892	0.489	tomspunt	open mouth?	how_face	yes	yes	correct	task-tomspunt/F_692.jpg	73
175.693	0.435	tomspunt	open mouth?	how_face	no	no	correct	task-tomspunt/F_584.jpg	74
176.443	0.451	tomspunt	open mouth?	how_face	yes	yes	correct	task-tomspunt/F_086.jpg	75
177.21	0.454	tomspunt	open mouth?	how_face	yes	yes	correct	task-tomspunt/F_403.jpg	76
177.977	0.454	tomspunt	open mouth?	how_face	no	no	correct	task-tomspunt/F_544.jpg	77
178.744	0.754	tomspunt	open mouth?	how_face	no	no	correct	task-tomspunt/F_648.jpg	78
179.811	0.67	tomspunt	open mouth?	how_face	yes	yes	correct	task-tomspunt/F_776.jpg	79
187.188	2.101	tomspunt	lifting?	block_question_presentation	n/a	n/a	n/a	n/a	80
187.188	0.3	tomspunt	lifting?	block_question_presentation	n/a	n/a	n/a	n/a	81
187.188	0.3	tomspunt	lifting?	block_question_presentation	n/a	n/a	n/a	n/a	82
187.188	0.3	tomspunt	lifting?	block_question_presentation	n/a	n/a	n/a	n/a	83
187.188	0.3	tomspunt	lifting?	block_question_presentation	n/a	n/a	n/a	n/a	84
187.188	0.3	tomspunt	lifting?	block_question_presentation	n/a	n/a	n/a	n/a	85
187.188	0.3	tomspunt	lifting?	block_question_presentation	n/a	n/a	n/a	n/a	86
187.188	0.3	tomspunt	lifting?	block_question_presentation	n/a	n/a	n/a	n/a	87
192.199	0.701	tomspunt	lifting?	how_hand	yes	yes	correct	task-tomspunt/H_170.jpg	80
193.216	0.548	tomspunt	lifting?	how_hand	no	no	correct	task-tomspunt/H_077.jpg	81
194.066	0.552	tomspunt	lifting?	how_hand	yes	yes	correct	task-tomspunt/H_189.jpg	82
194.933	0.551	tomspunt	lifting?	how_hand	yes	yes	correct	task-tomspunt/H_362.jpg	83
195.8	0.481	tomspunt	lifting?	how_hand	no	no	correct	task-tomspunt/H_012.jpg	84
196.584	0.501	tomspunt	lifting?	how_hand	yes	yes	correct	task-tomspunt/H_443.jpg	85
197.401	0.647	tomspunt	lifting?	how_hand	no	yes	incorrect	task-tomspunt/H_136.jpg	86
198.351	0.751	tomspunt	lifting?	how_hand	no	no	correct	task-tomspunt/H_038.jpg	87
204.728	2.101	tomspunt	competing?	block_question_presentation	n/a	n/a	n/a	n/a	88
204.728	0.3	tomspunt	competing?	block_question_presentation	n/a	n/a	n/a	n/a	89
204.728	0.3	tomspunt	competing?	block_question_presentation	n/a	n/a	n/a	n/a	90
204.728	0.3	tomspunt	competing?	block_question_presentation	n/a	n/a	n/a	n/a	91
204.728	0.3	tomspunt	competing?	block_question_presentation	n/a	n/a	n/a	n/a	92
204.728	0.3	tomspunt	competing?	block_question_presentation	n/a	n/a	n/a	n/a	93
204.728	0.3	tomspunt	competing?	block_question_presentation	n/a	n/a	n/a	n/a	94
204.728	0.3	tomspunt	competing?	block_question_presentation	n/a	n/a	n/a	n/a	95
209.739	0.568	tomspunt	competing?	why_hand	yes	yes	correct	task-tomspunt/H_003.jpg	88
210.622	0.658	tomspunt	competing?	why_hand	no	no	correct	task-tomspunt/H_483.jpg	89
211.59	0.641	tomspunt	competing?	why_hand	yes	yes	correct	task-tomspunt/H_132.jpg	90
212.54	0.691	tomspunt	competing?	why_hand	yes	yes	correct	task-tomspunt/H_170.jpg	91
213.54	0.824	tomspunt	competing?	why_hand	yes	no	incorrect	task-tomspunt/H_502.jpg	92
214.674	0.824	tomspunt	competing?	why_hand	yes	yes	correct	task-tomspunt/H_136.jpg	93
215.808	0.757	tomspunt	competing?	why_hand	no	no	correct	task-tomspunt/H_126.jpg	94
216.875	0.651	tomspunt	competing?	why_hand	yes	yes	correct	task-tomspunt/H_261.jpg	95
222.935	2.101	tomspunt	admiring?	block_question_presentation	n/a	n/a	n/a	n/a	96
222.935	0.3	tomspunt	admiring?	block_question_presentation	n/a	n/a	n/a	n/a	97
222.935	0.3	tomspunt	admiring?	block_question_presentation	n/a	n/a	n/a	n/a	98
222.935	0.3	tomspunt	admiring?	block_question_presentation	n/a	n/a	n/a	n/a	99
222.935	0.3	tomspunt	admiring?	block_question_presentation	n/a	n/a	n/a	n/a	100
222.935	0.3	tomspunt	admiring?	block_question_presentation	n/a	n/a	n/a	n/a	101
222.935	0.3	tomspunt	admiring?	block_question_presentation	n/a	n/a	n/a	n/a	102
222.935	0.3	tomspunt	admiring?	block_question_presentation	n/a	n/a	n/a	n/a	103
227.946	0.519	tomspunt	admiring?	why_face	yes	yes	correct	task-tomspunt/F_759.jpg	96
228.779	0.652	tomspunt	admiring?	why_face	yes	yes	correct	task-tomspunt/F_593.jpg	97
229.746	0.585	tomspunt	admiring?	why_face	no	no	correct	task-tomspunt/F_692.jpg	98
230.647	0.585	tomspunt	admiring?	why_face	yes	yes	correct	task-tomspunt/F_590.jpg	99
231.547	0.768	tomspunt	admiring?	why_face	no	no	correct	task-tomspunt/F_129.jpg	100
232.631	0.635	tomspunt	admiring?	why_face	yes	yes	correct	task-tomspunt/F_648.jpg	101
233.581	0.633	tomspunt	admiring?	why_face	no	no	correct	task-tomspunt/F_110.jpg	102
234.515	0.585	tomspunt	admiring?	why_face	yes	yes	correct	task-tomspunt/F_779.jpg	103
240.825	2.101	tomspunt	looking at camera?	block_question_presentation	n/a	n/a	n/a	n/a	104
240.825	0.3	tomspunt	looking at camera?	block_question_presentation	n/a	n/a	n/a	n/a	105
240.825	0.3	tomspunt	looking at camera?	block_question_presentation	n/a	n/a	n/a	n/a	106
240.825	0.3	tomspunt	looking at camera?	block_question_presentation	n/a	n/a	n/a	n/a	107
240.825	0.3	tomspunt	looking at camera?	block_question_presentation	n/a	n/a	n/a	n/a	108
240.825	0.3	tomspunt	looking at camera?	block_question_presentation	n/a	n/a	n/a	n/a	109
240.825	0.3	tomspunt	looking at camera?	block_question_presentation	n/a	n/a	n/a	n/a	110
240.825	0.3	tomspunt	looking at camera?	block_question_presentation	n/a	n/a	n/a	n/a	111
245.836	0.735	tomspunt	looking at camera?	how_face	yes	yes	correct	task-tomspunt/F_128.jpg	104
246.886	0.568	tomspunt	looking at camera?	how_face	no	no	correct	task-tomspunt/F_754.jpg	105
247.77	0.645	tomspunt	looking at camera?	how_face	yes	yes	correct	task-tomspunt/F_598.jpg	106
248.72	0.578	tomspunt	looking at camera?	how_face	yes	yes	correct	task-tomspunt/F_129.jpg	107
249.604	0.535	tomspunt	looking at camera?	how_face	yes	yes	correct	task-tomspunt/F_618.jpg	108
250.454	0.494	tomspunt	looking at camera?	how_face	no	no	correct	task-tomspunt/F_743.jpg	109
251.254	0.535	tomspunt	looking at camera?	how_face	yes	yes	correct	task-tomspunt/F_774.jpg	110
252.105	0.951	tomspunt	looking at camera?	how_face	no	no	correct	task-tomspunt/F_582.jpg	111
262.316	2.101	tomspunt	pressing button?	block_question_presentation	n/a	n/a	n/a	n/a	112
262.316	0.3	tomspunt	pressing button?	block_question_presentation	n/a	n/a	n/a	n/a	113
262.316	0.3	tomspunt	pressing button?	block_question_presentation	n/a	n/a	n/a	n/a	114
262.316	0.3	tomspunt	pressing button?	block_question_presentation	n/a	n/a	n/a	n/a	115
262.316	0.3	tomspunt	pressing button?	block_question_presentation	n/a	n/a	n/a	n/a	116
262.316	0.3	tomspunt	pressing button?	block_question_presentation	n/a	n/a	n/a	n/a	117
262.316	0.3	tomspunt	pressing button?	block_question_presentation	n/a	n/a	n/a	n/a	118
262.316	0.3	tomspunt	pressing button?	block_question_presentation	n/a	n/a	n/a	n/a	119
267.327	0.537	tomspunt	pressing button?	how_hand	yes	yes	correct	task-tomspunt/H_019.jpg	112
268.177	0.537	tomspunt	pressing button?	how_hand	yes	yes	correct	task-tomspunt/H_126.jpg	113
269.028	0.503	tomspunt	pressing button?	how_hand	no	no	correct	task-tomspunt/H_130.jpg	114
269.845	0.57	tomspunt	pressing button?	how_hand	yes	yes	correct	task-tomspunt/H_332.jpg	115
270.728	0.586	tomspunt	pressing button?	how_hand	no	no	correct	task-tomspunt/H_024.jpg	116
271.629	0.786	tomspunt	pressing button?	how_hand	yes	yes	correct	task-tomspunt/H_483.jpg	117
272.729	0.619	tomspunt	pressing button?	how_hand	no	no	correct	task-tomspunt/H_261.jpg	118
273.663	0.752	tomspunt	pressing button?	how_hand	yes	yes	correct	task-tomspunt/H_502.jpg	119
280.156	2.101	tomspunt	self-protection?	block_question_presentation	n/a	n/a	n/a	n/a	120
280.156	0.3	tomspunt	self-protection?	block_question_presentation	n/a	n/a	n/a	n/a	121
280.156	0.3	tomspunt	self-protection?	block_question_presentation	n/a	n/a	n/a	n/a	122
280.156	0.3	tomspunt	self-protection?	block_question_presentation	n/a	n/a	n/a	n/a	123
280.156	0.3	tomspunt	self-protection?	block_question_presentation	n/a	n/a	n/a	n/a	124
280.156	0.3	tomspunt	self-protection?	block_question_presentation	n/a	n/a	n/a	n/a	125
280.156	0.3	tomspunt	self-protection?	block_question_presentation	n/a	n/a	n/a	n/a	126
280.156	0.3	tomspunt	self-protection?	block_question_presentation	n/a	n/a	n/a	n/a	127
285.167	0.535	tomspunt	self-protection?	why_hand	yes	yes	correct	task-tomspunt/H_443.jpg	120
286.017	0.797	tomspunt	self-protection?	why_hand	yes	yes	correct	task-tomspunt/H_189.jpg	121
287.118	0.835	tomspunt	self-protection?	why_hand	yes	yes	correct	task-tomspunt/H_027.jpg	122
288.268	0.768	tomspunt	self-protection?	why_hand	no	no	correct	task-tomspunt/H_532.jpg	123
289.352	0.846	tomspunt	self-protection?	why_hand	yes	yes	correct	task-tomspunt/H_038.jpg	124
290.502	0.768	tomspunt	self-protection?	why_hand	no	no	correct	task-tomspunt/H_006.jpg	125
291.586	0.668	tomspunt	self-protection?	why_hand	no	no	correct	task-tomspunt/H_332.jpg	126
292.57	0.551	tomspunt	self-protection?	why_hand	yes	yes	correct	task-tomspunt/H_581.jpg	127
298.83	2.101	tomspunt	reaching?	block_question_presentation	n/a	n/a	n/a	n/a	128
298.83	0.3	tomspunt	reaching?	block_question_presentation	n/a	n/a	n/a	n/a	129
298.83	0.3	tomspunt	reaching?	block_question_presentation	n/a	n/a	n/a	n/a	130
298.83	0.3	tomspunt	reaching?	block_question_presentation	n/a	n/a	n/a	n/a	131
298.83	0.3	tomspunt	reaching?	block_question_presentation	n/a	n/a	n/a	n/a	132
298.83	0.3	tomspunt	reaching?	block_question_presentation	n/a	n/a	n/a	n/a	133
298.83	0.3	tomspunt	reaching?	block_question_presentation	n/a	n/a	n/a	n/a	134
298.83	0.3	tomspunt	reaching?	block_question_presentation	n/a	n/a	n/a	n/a	135
303.841	0.574	tomspunt	reaching?	how_hand	yes	yes	correct	task-tomspunt/H_007.jpg	128
304.724	0.59	tomspunt	reaching?	how_hand	no	no	correct	task-tomspunt/H_532.jpg	129
305.625	0.618	tomspunt	reaching?	how_hand	yes	yes	correct	task-tomspunt/H_474.jpg	130
306.558	0.623	tomspunt	reaching?	how_hand	no	no	correct	task-tomspunt/H_438.jpg	131
307.492	0.573	tomspunt	reaching?	how_hand	yes	yes	correct	task-tomspunt/H_364.jpg	132
308.376	0.705	tomspunt	reaching?	how_hand	yes	yes	correct	task-tomspunt/H_006.jpg	133
309.393	0.572	tomspunt	reaching?	how_hand	yes	yes	correct	task-tomspunt/H_003.jpg	134
310.277	0.688	tomspunt	reaching?	how_hand	no	no	correct	task-tomspunt/H_132.jpg	135
317.787	2.101	tomspunt	healthy?	block_question_presentation	n/a	n/a	n/a	n/a	136
317.787	0.3	tomspunt	healthy?	block_question_presentation	n/a	n/a	n/a	n/a	137
317.787	0.3	tomspunt	healthy?	block_question_presentation	n/a	n/a	n/a	n/a	138
317.787	0.3	tomspunt	healthy?	block_question_presentation	n/a	n/a	n/a	n/a	139
317.787	0.3	tomspunt	healthy?	block_question_presentation	n/a	n/a	n/a	n/a	140
317.787	0.3	tomspunt	healthy?	block_question_presentation	n/a	n/a	n/a	n/a	141
317.787	0.3	tomspunt	healthy?	block_question_presentation	n/a	n/a	n/a	n/a	142
317.787	0.3	tomspunt	healthy?	block_question_presentation	n/a	n/a	n/a	n/a	143
322.798	0.434	tomspunt	healthy?	why_hand	yes	yes	correct	task-tomspunt/H_627.jpg	136
323.548	0.518	tomspunt	healthy?	why_hand	yes	yes	correct	task-tomspunt/H_438.jpg	137
324.382	0.651	tomspunt	healthy?	why_hand	yes	yes	correct	task-tomspunt/H_364.jpg	138
325.349	0.585	tomspunt	healthy?	why_hand	no	no	correct	task-tomspunt/H_130.jpg	139
326.249	0.635	tomspunt	healthy?	why_hand	yes	yes	correct	task-tomspunt/H_362.jpg	140
327.2	0.535	tomspunt	healthy?	why_hand	no	no	correct	task-tomspunt/H_007.jpg	141
328.05	0.634	tomspunt	healthy?	why_hand	yes	yes	correct	task-tomspunt/H_167.jpg	142
329.0	0.535	tomspunt	healthy?	why_hand	yes	no	incorrect	task-tomspunt/H_019.jpg	143
340.279	2.101	tomspunt	admiring?	block_question_presentation	n/a	n/a	n/a	n/a	144
340.279	0.3	tomspunt	admiring?	block_question_presentation	n/a	n/a	n/a	n/a	145
340.279	0.3	tomspunt	admiring?	block_question_presentation	n/a	n/a	n/a	n/a	146
340.279	0.3	tomspunt	admiring?	block_question_presentation	n/a	n/a	n/a	n/a	147
340.279	0.3	tomspunt	admiring?	block_question_presentation	n/a	n/a	n/a	n/a	148
340.279	0.3	tomspunt	admiring?	block_question_presentation	n/a	n/a	n/a	n/a	149
340.279	0.3	tomspunt	admiring?	block_question_presentation	n/a	n/a	n/a	n/a	150
340.279	0.3	tomspunt	admiring?	block_question_presentation	n/a	n/a	n/a	n/a	151
345.29	0.468	tomspunt	admiring?	why_face	yes	yes	correct	task-tomspunt/F_779.jpg	144
346.073	0.418	tomspunt	admiring?	why_face	no	yes	incorrect	task-tomspunt/F_593.jpg	145
346.807	0.758	tomspunt	admiring?	why_face	no	no	correct	task-tomspunt/F_110.jpg	146
347.874	0.451	tomspunt	admiring?	why_face	yes	yes	correct	task-tomspunt/F_590.jpg	147
348.641	0.707	tomspunt	admiring?	why_face	no	no	correct	task-tomspunt/F_692.jpg	148
349.658	0.457	tomspunt	admiring?	why_face	yes	yes	correct	task-tomspunt/F_759.jpg	149
350.425	0.501	tomspunt	admiring?	why_face	no	yes	incorrect	task-tomspunt/F_648.jpg	150
351.242	0.556	tomspunt	admiring?	why_face	yes	no	incorrect	task-tomspunt/F_129.jpg	151
358.152	2.101	tomspunt	smiling?	block_question_presentation	n/a	n/a	n/a	n/a	152
358.152	0.3	tomspunt	smiling?	block_question_presentation	n/a	n/a	n/a	n/a	153
358.152	0.3	tomspunt	smiling?	block_question_presentation	n/a	n/a	n/a	n/a	154
358.152	0.3	tomspunt	smiling?	block_question_presentation	n/a	n/a	n/a	n/a	155
358.152	0.3	tomspunt	smiling?	block_question_presentation	n/a	n/a	n/a	n/a	156
358.152	0.3	tomspunt	smiling?	block_question_presentation	n/a	n/a	n/a	n/a	157
358.152	0.3	tomspunt	smiling?	block_question_presentation	n/a	n/a	n/a	n/a	158
358.152	0.3	tomspunt	smiling?	block_question_presentation	n/a	n/a	n/a	n/a	159
363.163	0.419	tomspunt	smiling?	how_face	yes	yes	correct	task-tomspunt/F_139.jpg	152
363.897	0.535	tomspunt	smiling?	how_face	no	no	correct	task-tomspunt/F_712.jpg	153
364.747	0.501	tomspunt	smiling?	how_face	yes	yes	correct	task-tomspunt/F_695.jpg	154
365.564	0.518	tomspunt	smiling?	how_face	no	no	correct	task-tomspunt/F_758.jpg	155
366.398	0.451	tomspunt	smiling?	how_face	yes	yes	correct	task-tomspunt/F_083.jpg	156
367.165	0.451	tomspunt	smiling?	how_face	yes	yes	correct	task-tomspunt/F_759.jpg	157
367.932	0.601	tomspunt	smiling?	how_face	no	no	correct	task-tomspunt/F_412.jpg	158
368.849	0.435	tomspunt	smiling?	how_face	yes	yes	correct	task-tomspunt/F_593.jpg	159
377.259	2.101	tomspunt	lifting?	block_question_presentation	n/a	n/a	n/a	n/a	160
377.259	0.3	tomspunt	lifting?	block_question_presentation	n/a	n/a	n/a	n/a	161
377.259	0.3	tomspunt	lifting?	block_question_presentation	n/a	n/a	n/a	n/a	162
377.259	0.3	tomspunt	lifting?	block_question_presentation	n/a	n/a	n/a	n/a	163
377.259	0.3	tomspunt	lifting?	block_question_presentation	n/a	n/a	n/a	n/a	164
377.259	0.3	tomspunt	lifting?	block_question_presentation	n/a	n/a	n/a	n/a	165
377.259	0.3	tomspunt	lifting?	block_question_presentation	n/a	n/a	n/a	n/a	166
377.259	0.3	tomspunt	lifting?	block_question_presentation	n/a	n/a	n/a	n/a	167
382.27	0.702	tomspunt	lifting?	how_hand	yes	yes	correct	task-tomspunt/H_136.jpg	160
383.287	0.627	tomspunt	lifting?	how_hand	no	no	correct	task-tomspunt/H_038.jpg	161
384.221	0.511	tomspunt	lifting?	how_hand	yes	yes	correct	task-tomspunt/H_189.jpg	162
385.038	0.56	tomspunt	lifting?	how_hand	no	no	correct	task-tomspunt/H_077.jpg	163
385.905	0.484	tomspunt	lifting?	how_hand	yes	yes	correct	task-tomspunt/H_443.jpg	164
386.705	0.518	tomspunt	lifting?	how_hand	no	no	correct	task-tomspunt/H_012.jpg	165
387.539	0.493	tomspunt	lifting?	how_hand	yes	yes	correct	task-tomspunt/H_362.jpg	166
388.339	0.635	tomspunt	lifting?	how_hand	yes	yes	correct	task-tomspunt/H_170.jpg	167
394.783	2.084	tomspunt	helping?	block_question_presentation	n/a	n/a	n/a	n/a	168
394.783	0.3	tomspunt	helping?	block_question_presentation	n/a	n/a	n/a	n/a	169
394.783	0.3	tomspunt	helping?	block_question_presentation	n/a	n/a	n/a	n/a	170
394.783	0.3	tomspunt	helping?	block_question_presentation	n/a	n/a	n/a	n/a	171
394.783	0.3	tomspunt	helping?	block_question_presentation	n/a	n/a	n/a	n/a	172
394.783	0.3	tomspunt	helping?	block_question_presentation	n/a	n/a	n/a	n/a	173
394.783	0.3	tomspunt	helping?	block_question_presentation	n/a	n/a	n/a	n/a	174
394.783	0.3	tomspunt	helping?	block_question_presentation	n/a	n/a	n/a	n/a	175
399.777	0.771	tomspunt	helping?	why_hand	yes	yes	correct	task-tomspunt/H_077.jpg	168
400.861	0.568	tomspunt	helping?	why_hand	yes	yes	correct	task-tomspunt/H_349.jpg	169
401.744	0.637	tomspunt	helping?	why_hand	yes	yes	correct	task-tomspunt/H_474.jpg	170
402.695	0.785	tomspunt	helping?	why_hand	no	yes	incorrect	task-tomspunt/H_024.jpg	171
403.795	0.637	tomspunt	helping?	why_hand	yes	no	incorrect	task-tomspunt/H_012.jpg	172
404.745	0.886	tomspunt	helping?	why_hand	no	no	correct	task-tomspunt/H_159.jpg	173
405.946	0.602	tomspunt	helping?	why_hand	yes	yes	correct	task-tomspunt/H_111.jpg	174
406.863	0.668	tomspunt	helping?	why_hand	no	no	correct	task-tomspunt/H_091.jpg	175
413.823	2.101	tomspunt	proud?	block_question_presentation	n/a	n/a	n/a	n/a	176
413.823	0.3	tomspunt	proud?	block_question_presentation	n/a	n/a	n/a	n/a	177
413.823	0.3	tomspunt	proud?	block_question_presentation	n/a	n/a	n/a	n/a	178
413.823	0.3	tomspunt	proud?	block_question_presentation	n/a	n/a	n/a	n/a	179
413.823	0.3	tomspunt	proud?	block_question_presentation	n/a	n/a	n/a	n/a	180
413.823	0.3	tomspunt	proud?	block_question_presentation	n/a	n/a	n/a	n/a	181
413.823	0.3	tomspunt	proud?	block_question_presentation	n/a	n/a	n/a	n/a	182
413.823	0.3	tomspunt	proud?	block_question_presentation	n/a	n/a	n/a	n/a	183
418.834	0.768	tomspunt	proud?	why_face	yes	yes	correct	task-tomspunt/F_598.jpg	176
419.918	0.618	tomspunt	proud?	why_face	no	no	correct	task-tomspunt/F_760.jpg	177
420.851	0.73	tomspunt	proud?	why_face	yes	yes	correct	task-tomspunt/F_582.jpg	178
421.885	0.596	tomspunt	proud?	why_face	no	no	correct	task-tomspunt/F_412.jpg	179
422.785	0.48	tomspunt	proud?	why_face	yes	yes	correct	task-tomspunt/F_083.jpg	180
423.569	0.701	tomspunt	proud?	why_face	no	no	correct	task-tomspunt/F_776.jpg	181
424.586	0.668	tomspunt	proud?	why_face	yes	yes	correct	task-tomspunt/F_618.jpg	182
425.57	0.651	tomspunt	proud?	why_face	yes	yes	correct	task-tomspunt/F_695.jpg	183
431.613	2.101	tomspunt	looking to side?	block_question_presentation	n/a	n/a	n/a	n/a	184
431.613	0.3	tomspunt	looking to side?	block_question_presentation	n/a	n/a	n/a	n/a	185
431.613	0.3	tomspunt	looking to side?	block_question_presentation	n/a	n/a	n/a	n/a	186
431.613	0.3	tomspunt	looking to side?	block_question_presentation	n/a	n/a	n/a	n/a	187
431.613	0.3	tomspunt	looking to side?	block_question_presentation	n/a	n/a	n/a	n/a	188
431.613	0.3	tomspunt	looking to side?	block_question_presentation	n/a	n/a	n/a	n/a	189
431.613	0.3	tomspunt	looking to side?	block_question_presentation	n/a	n/a	n/a	n/a	190
431.613	0.3	tomspunt	looking to side?	block_question_presentation	n/a	n/a	n/a	n/a	191
436.624	0.535	tomspunt	looking to side?	how_face	yes	yes	correct	task-tomspunt/F_590.jpg	184
437.474	0.568	tomspunt	looking to side?	how_face	no	yes	incorrect	task-tomspunt/F_433.jpg	185
438.358	0.618	tomspunt	looking to side?	how_face	yes	yes	correct	task-tomspunt/F_716.jpg	186
439.292	0.702	tomspunt	looking to side?	how_face	no	no	correct	task-tomspunt/F_779.jpg	187
440.309	0.651	tomspunt	looking to side?	how_face	yes	yes	correct	task-tomspunt/F_760.jpg	188
441.276	0.506	tomspunt	looking to side?	how_face	no	no	correct	task-tomspunt/F_111.jpg	189
442.093	0.589	tomspunt	looking to side?	how_face	yes	yes	correct	task-tomspunt/F_110.jpg	190
442.993	0.889	tomspunt	looking to side?	how_face	no	no	correct	task-tomspunt/F_798.jpg	191
449.153	2.101	tomspunt	argument?	block_question_presentation	n/a	n/a	n/a	n/a	192
449.153	0.3	tomspunt	argument?	block_question_presentation	n/a	n/a	n/a	n/a	193
449.153	0.3	tomspunt	argument?	block_question_presentation	n/a	n/a	n/a	n/a	194
449.153	0.3	tomspunt	argument?	block_question_presentation	n/a	n/a	n/a	n/a	195
449.153	0.3	tomspunt	argument?	block_question_presentation	n/a	n/a	n/a	n/a	196
449.153	0.3	tomspunt	argument?	block_question_presentation	n/a	n/a	n/a	n/a	197
449.153	0.3	tomspunt	argument?	block_question_presentation	n/a	n/a	n/a	n/a	198
449.153	0.3	tomspunt	argument?	block_question_presentation	n/a	n/a	n/a	n/a	199
454.164	0.668	tomspunt	argument?	why_face	yes	yes	correct	task-tomspunt/F_716.jpg	192
455.148	0.618	tomspunt	argument?	why_face	no	no	correct	task-tomspunt/F_139.jpg	193
456.081	0.501	tomspunt	argument?	why_face	yes	yes	correct	task-tomspunt/F_712.jpg	194
456.898	0.601	tomspunt	argument?	why_face	no	no	correct	task-tomspunt/F_433.jpg	195
457.815	0.7	tomspunt	argument?	why_face	yes	yes	correct	task-tomspunt/F_403.jpg	196
458.816	0.599	tomspunt	argument?	why_face	no	no	correct	task-tomspunt/F_844.jpg	197
459.716	0.501	tomspunt	argument?	why_face	yes	yes	correct	task-tomspunt/F_743.jpg	198
460.533	0.701	tomspunt	argument?	why_face	yes	yes	correct	task-tomspunt/F_758.jpg	199
467.943	2.101	tomspunt	open mouth?	block_question_presentation	n/a	n/a	n/a	n/a	200
467.943	0.3	tomspunt	open mouth?	block_question_presentation	n/a	n/a	n/a	n/a	201
467.943	0.3	tomspunt	open mouth?	block_question_presentation	n/a	n/a	n/a	n/a	202
467.943	0.3	tomspunt	open mouth?	block_question_presentation	n/a	n/a	n/a	n/a	203
467.943	0.3	tomspunt	open mouth?	block_question_presentation	n/a	n/a	n/a	n/a	204
467.943	0.3	tomspunt	open mouth?	block_question_presentation	n/a	n/a	n/a	n/a	205
467.943	0.3	tomspunt	open mouth?	block_question_presentation	n/a	n/a	n/a	n/a	206
467.943	0.3	tomspunt	open mouth?	block_question_presentation	n/a	n/a	n/a	n/a	207
472.954	0.444	tomspunt	open mouth?	how_face	yes	yes	correct	task-tomspunt/F_844.jpg	200
473.705	0.477	tomspunt	open mouth?	how_face	yes	yes	correct	task-tomspunt/F_776.jpg	201
474.488	0.535	tomspunt	open mouth?	how_face	no	no	correct	task-tomspunt/F_544.jpg	202
475.339	0.368	tomspunt	open mouth?	how_face	yes	yes	correct	task-tomspunt/F_692.jpg	203
476.022	0.427	tomspunt	open mouth?	how_face	no	no	correct	task-tomspunt/F_584.jpg	204
476.756	0.409	tomspunt	open mouth?	how_face	yes	yes	correct	task-tomspunt/F_403.jpg	205
477.473	0.501	tomspunt	open mouth?	how_face	yes	yes	correct	task-tomspunt/F_086.jpg	206
478.29	0.676	tomspunt	open mouth?	how_face	no	no	correct	task-tomspunt/F_648.jpg	207
486.0	2.101	tomspunt	pressing button?	block_question_presentation	n/a	n/a	n/a	n/a	208
486.0	0.3	tomspunt	pressing button?	block_question_presentation	n/a	n/a	n/a	n/a	209
486.0	0.3	tomspunt	pressing button?	block_question_presentation	n/a	n/a	n/a	n/a	210
486.0	0.3	tomspunt	pressing button?	block_question_presentation	n/a	n/a	n/a	n/a	211
486.0	0.3	tomspunt	pressing button?	block_question_presentation	n/a	n/a	n/a	n/a	212
486.0	0.3	tomspunt	pressing button?	block_question_presentation	n/a	n/a	n/a	n/a	213
486.0	0.3	tomspunt	pressing button?	block_question_presentation	n/a	n/a	n/a	n/a	214
486.0	0.3	tomspunt	pressing button?	block_question_presentation	n/a	n/a	n/a	n/a	215
491.011	0.437	tomspunt	pressing button?	how_hand	yes	yes	correct	task-tomspunt/H_019.jpg	208
491.761	0.504	tomspunt	pressing button?	how_hand	no	no	correct	task-tomspunt/H_024.jpg	209
492.578	0.67	tomspunt	pressing button?	how_hand	no	no	correct	task-tomspunt/H_130.jpg	210
493.562	0.52	tomspunt	pressing button?	how_hand	yes	yes	correct	task-tomspunt/H_502.jpg	211
494.396	0.553	tomspunt	pressing button?	how_hand	no	no	correct	task-tomspunt/H_261.jpg	212
495.263	0.419	tomspunt	pressing button?	how_hand	yes	yes	correct	task-tomspunt/H_332.jpg	213
495.996	0.552	tomspunt	pressing button?	how_hand	yes	yes	correct	task-tomspunt/H_126.jpg	214
496.863	0.735	tomspunt	pressing button?	how_hand	yes	yes	correct	task-tomspunt/H_483.jpg	215
503.54	2.101	tomspunt	competing?	block_question_presentation	n/a	n/a	n/a	n/a	216
503.54	0.3	tomspunt	competing?	block_question_presentation	n/a	n/a	n/a	n/a	217
503.54	0.3	tomspunt	competing?	block_question_presentation	n/a	n/a	n/a	n/a	218
503.54	0.3	tomspunt	competing?	block_question_presentation	n/a	n/a	n/a	n/a	219
503.54	0.3	tomspunt	competing?	block_question_presentation	n/a	n/a	n/a	n/a	220
503.54	0.3	tomspunt	competing?	block_question_presentation	n/a	n/a	n/a	n/a	221
503.54	0.3	tomspunt	competing?	block_question_presentation	n/a	n/a	n/a	n/a	222
503.54	0.3	tomspunt	competing?	block_question_presentation	n/a	n/a	n/a	n/a	223
508.551	0.801	tomspunt	competing?	why_hand	no	yes	incorrect	task-tomspunt/H_261.jpg	216
509.668	0.797	tomspunt	competing?	why_hand	no	no	correct	task-tomspunt/H_483.jpg	217
510.768	0.497	tomspunt	competing?	why_hand	yes	yes	correct	task-tomspunt/H_132.jpg	218
511.569	0.618	tomspunt	competing?	why_hand	no	no	correct	task-tomspunt/H_126.jpg	219
512.502	0.701	tomspunt	competing?	why_hand	yes	yes	correct	task-tomspunt/H_136.jpg	220
513.52	0.701	tomspunt	competing?	why_hand	no	no	correct	task-tomspunt/H_502.jpg	221
514.537	0.601	tomspunt	competing?	why_hand	yes	yes	correct	task-tomspunt/H_003.jpg	222
515.454	0.501	tomspunt	competing?	why_hand	yes	yes	correct	task-tomspunt/H_170.jpg	223
521.764	2.101	tomspunt	self-doubt?	block_question_presentation	n/a	n/a	n/a	n/a	224
521.764	0.3	tomspunt	self-doubt?	block_question_presentation	n/a	n/a	n/a	n/a	225
521.764	0.3	tomspunt	self-doubt?	block_question_presentation	n/a	n/a	n/a	n/a	226
521.764	0.3	tomspunt	self-doubt?	block_question_presentation	n/a	n/a	n/a	n/a	227
521.764	0.3	tomspunt	self-doubt?	block_question_presentation	n/a	n/a	n/a	n/a	228
521.764	0.3	tomspunt	self-doubt?	block_question_presentation	n/a	n/a	n/a	n/a	229
521.764	0.3	tomspunt	self-doubt?	block_question_presentation	n/a	n/a	n/a	n/a	230
521.764	0.3	tomspunt	self-doubt?	block_question_presentation	n/a	n/a	n/a	n/a	231
526.774	0.718	tomspunt	self-doubt?	why_face	yes	yes	correct	task-tomspunt/F_544.jpg	224
527.808	0.635	tomspunt	self-doubt?	why_face	no	no	correct	task-tomspunt/F_086.jpg	225
528.759	0.44	tomspunt	self-doubt?	why_face	yes	yes	correct	task-tomspunt/F_798.jpg	226
529.509	0.59	tomspunt	self-doubt?	why_face	yes	yes	correct	task-tomspunt/F_111.jpg	227
530.409	0.756	tomspunt	self-doubt?	why_face	no	no	correct	task-tomspunt/F_774.jpg	228
531.476	0.706	tomspunt	self-doubt?	why_face	yes	yes	correct	task-tomspunt/F_754.jpg	229
532.493	1.819	tomspunt	self-doubt?	why_face	no	no	correct	task-tomspunt/F_128.jpg	230
534.527	n/a	tomspunt	self-doubt?	why_face	n/a	yes	incorrect	task-tomspunt/F_584.jpg	231
539.654	2.101	tomspunt	looking at camera?	block_question_presentation	n/a	n/a	n/a	n/a	232
539.654	0.3	tomspunt	looking at camera?	block_question_presentation	n/a	n/a	n/a	n/a	233
539.654	0.3	tomspunt	looking at camera?	block_question_presentation	n/a	n/a	n/a	n/a	234
539.654	0.3	tomspunt	looking at camera?	block_question_presentation	n/a	n/a	n/a	n/a	235
539.654	0.3	tomspunt	looking at camera?	block_question_presentation	n/a	n/a	n/a	n/a	236
539.654	0.3	tomspunt	looking at camera?	block_question_presentation	n/a	n/a	n/a	n/a	237
539.654	0.3	tomspunt	looking at camera?	block_question_presentation	n/a	n/a	n/a	n/a	238
539.654	0.3	tomspunt	looking at camera?	block_question_presentation	n/a	n/a	n/a	n/a	239
544.665	0.635	tomspunt	looking at camera?	how_face	yes	yes	correct	task-tomspunt/F_128.jpg	232
545.615	0.468	tomspunt	looking at camera?	how_face	yes	yes	correct	task-tomspunt/F_618.jpg	233
546.399	0.485	tomspunt	looking at camera?	how_face	yes	yes	correct	task-tomspunt/F_598.jpg	234
547.199	0.434	tomspunt	looking at camera?	how_face	no	no	correct	task-tomspunt/F_743.jpg	235
547.949	0.534	tomspunt	looking at camera?	how_face	yes	yes	correct	task-tomspunt/F_774.jpg	236
548.799	0.534	tomspunt	looking at camera?	how_face	no	no	correct	task-tomspunt/F_582.jpg	237
549.65	0.551	tomspunt	looking at camera?	how_face	yes	no	incorrect	task-tomspunt/F_754.jpg	238
550.517	0.568	tomspunt	looking at camera?	how_face	no	yes	incorrect	task-tomspunt/F_129.jpg	239
561.128	2.101	tomspunt	both hands?	block_question_presentation	n/a	n/a	n/a	n/a	240
561.128	0.3	tomspunt	both hands?	block_question_presentation	n/a	n/a	n/a	n/a	241
561.128	0.3	tomspunt	both hands?	block_question_presentation	n/a	n/a	n/a	n/a	242
561.128	0.3	tomspunt	both hands?	block_question_presentation	n/a	n/a	n/a	n/a	243
561.128	0.3	tomspunt	both hands?	block_question_presentation	n/a	n/a	n/a	n/a	244
561.128	0.3	tomspunt	both hands?	block_question_presentation	n/a	n/a	n/a	n/a	245
561.128	0.3	tomspunt	both hands?	block_question_presentation	n/a	n/a	n/a	n/a	246
561.128	0.3	tomspunt	both hands?	block_question_presentation	n/a	n/a	n/a	n/a	247
566.139	0.726	tomspunt	both hands?	how_hand	no	yes	incorrect	task-tomspunt/H_167.jpg	240
567.173	0.651	tomspunt	both hands?	how_hand	no	no	correct	task-tomspunt/H_091.jpg	241
568.14	0.708	tomspunt	both hands?	how_hand	yes	no	incorrect	task-tomspunt/H_627.jpg	242
569.157	0.892	tomspunt	both hands?	how_hand	yes	yes	correct	task-tomspunt/H_027.jpg	243
570.357	0.618	tomspunt	both hands?	how_hand	yes	yes	correct	task-tomspunt/H_111.jpg	244
571.291	0.624	tomspunt	both hands?	how_hand	no	no	correct	task-tomspunt/H_159.jpg	245
572.225	0.807	tomspunt	both hands?	how_hand	yes	yes	correct	task-tomspunt/H_581.jpg	246
573.342	0.651	tomspunt	both hands?	how_hand	yes	yes	correct	task-tomspunt/H_349.jpg	247
578.968	2.101	tomspunt	self-protection?	block_question_presentation	n/a	n/a	n/a	n/a	248
578.968	0.3	tomspunt	self-protection?	block_question_presentation	n/a	n/a	n/a	n/a	249
578.968	0.3	tomspunt	self-protection?	block_question_presentation	n/a	n/a	n/a	n/a	250
578.968	0.3	tomspunt	self-protection?	block_question_presentation	n/a	n/a	n/a	n/a	251
578.968	0.3	tomspunt	self-protection?	block_question_presentation	n/a	n/a	n/a	n/a	252
578.968	0.3	tomspunt	self-protection?	block_question_presentation	n/a	n/a	n/a	n/a	253
578.968	0.3	tomspunt	self-protection?	block_question_presentation	n/a	n/a	n/a	n/a	254
578.968	0.3	tomspunt	self-protection?	block_question_presentation	n/a	n/a	n/a	n/a	255
583.979	0.586	tomspunt	self-protection?	why_hand	yes	yes	correct	task-tomspunt/H_443.jpg	248
584.88	0.702	tomspunt	self-protection?	why_hand	no	no	correct	task-tomspunt/H_006.jpg	249
585.897	0.635	tomspunt	self-protection?	why_hand	yes	yes	correct	task-tomspunt/H_581.jpg	250
586.847	0.685	tomspunt	self-protection?	why_hand	no	no	correct	task-tomspunt/H_532.jpg	251
587.847	0.735	tomspunt	self-protection?	why_hand	yes	yes	correct	task-tomspunt/H_027.jpg	252
588.898	0.785	tomspunt	self-protection?	why_hand	yes	yes	correct	task-tomspunt/H_038.jpg	253
589.998	0.685	tomspunt	self-protection?	why_hand	no	no	correct	task-tomspunt/H_332.jpg	254
590.999	0.618	tomspunt	self-protection?	why_hand	yes	yes	correct	task-tomspunt/H_189.jpg	255
