onset	duration	run_type	trial_type	trial_index	cue	stimulusintensity	rating_value	rating_glmslabel	rating_value_fillna	rating_glmslabel_fillna	rating_mouseonset	rating_mousedur	stim_file	pain_onset_ttl1	pain_onset_ttl2	pain_onset_ttl3	pain_onset_ttl4	pain_stimulus_delivery_success	cognitive_correct_response	cognitive_participant_response	cognitive_response_accuracy
4.07	1.0	pain	cue	1	high_cue	n/a	n/a	n/a	n/a	n/a	n/a	n/a	task-social/cue/runtype-pain/sch/h010.png	n/a	n/a	n/a	n/a	n/a	n/a	n/a	n/a
7.19	1.92	pain	expectrating	1	high_cue	n/a	67.42	Very Strong	67.42	Very Strong	0.35	1.57	task-social/cue/runtype-pain/sch/h010.png	n/a	n/a	n/a	n/a	n/a	n/a	n/a	n/a
12.52	12.370000000000001	pain	stimulus	1	high_cue	med_stim	n/a	n/a	n/a	n/a	n/a	n/a	n/a	12.52	16.28	21.28	24.89	success	n/a	n/a	n/a
23.67	3.28	pain	outcomerating	1	high_cue	med_stim	53.7	Strong	53.7	Strong	0.35	1.57	task-social/outcomerating/task-pain_scale.png	n/a	n/a	n/a	n/a	success	n/a	n/a	n/a
33.48	1.0	pain	cue	2	low_cue	n/a	n/a	n/a	n/a	n/a	n/a	n/a	task-social/cue/runtype-pain/scl/l047.png	n/a	n/a	n/a	n/a	n/a	n/a	n/a	n/a
36.58	2.04	pain	expectrating	2	low_cue	n/a	20.04	Moderate	20.04	Moderate	0.17	1.87	task-social/cue/runtype-pain/scl/l047.png	n/a	n/a	n/a	n/a	n/a	n/a	n/a	n/a
47.5	11.909999999999997	pain	stimulus	2	low_cue	low_stim	n/a	n/a	n/a	n/a	n/a	n/a	n/a	47.5	51.0	56.0	59.4	success	n/a	n/a	n/a
62.37	3.31	pain	outcomerating	2	low_cue	low_stim	18.07	Moderate	18.07	Moderate	0.17	1.87	task-social/outcomerating/task-pain_scale.png	n/a	n/a	n/a	n/a	success	n/a	n/a	n/a
71.58	1.0	pain	cue	3	high_cue	n/a	n/a	n/a	n/a	n/a	n/a	n/a	task-social/cue/runtype-pain/sch/h036.png	n/a	n/a	n/a	n/a	n/a	n/a	n/a	n/a
73.58	1.66	pain	expectrating	3	high_cue	n/a	93.46	Very Strong	93.46	Very Strong	0.05	1.61	task-social/cue/runtype-pain/sch/h036.png	n/a	n/a	n/a	n/a	n/a	n/a	n/a	n/a
84.5	11.909999999999997	pain	stimulus	3	high_cue	low_stim	n/a	n/a	n/a	n/a	n/a	n/a	n/a	84.5	88.0	93.0	96.4	success	n/a	n/a	n/a
97.07	2.38	pain	outcomerating	3	high_cue	low_stim	42.06	Strong	42.06	Strong	0.05	1.61	task-social/outcomerating/task-pain_scale.png	n/a	n/a	n/a	n/a	success	n/a	n/a	n/a
105.57	1.0	pain	cue	4	high_cue	n/a	n/a	n/a	n/a	n/a	n/a	n/a	task-social/cue/runtype-pain/sch/h026.png	n/a	n/a	n/a	n/a	n/a	n/a	n/a	n/a
108.67	2.01	pain	expectrating	4	high_cue	n/a	57.15	Strong	57.15	Strong	0.4	1.61	task-social/cue/runtype-pain/sch/h026.png	n/a	n/a	n/a	n/a	n/a	n/a	n/a	n/a
117.9	12.819999999999993	pain	stimulus	4	high_cue	high_stim	n/a	n/a	n/a	n/a	n/a	n/a	n/a	117.9	121.91	126.91	130.72	success	n/a	n/a	n/a
127.48	3.84	pain	outcomerating	4	high_cue	high_stim	59.16	Strong	59.16	Strong	0.4	1.61	task-social/outcomerating/task-pain_scale.png	n/a	n/a	n/a	n/a	success	n/a	n/a	n/a
132.78	1.0	pain	cue	5	high_cue	n/a	n/a	n/a	n/a	n/a	n/a	n/a	task-social/cue/runtype-pain/sch/h038.png	n/a	n/a	n/a	n/a	n/a	n/a	n/a	n/a
135.88	2.17	pain	expectrating	5	high_cue	n/a	70.11	Very Strong	70.11	Very Strong	0.72	1.45	task-social/cue/runtype-pain/sch/h038.png	n/a	n/a	n/a	n/a	n/a	n/a	n/a	n/a
141.26	11.900000000000006	pain	stimulus	5	high_cue	low_stim	n/a	n/a	n/a	n/a	n/a	n/a	n/a	141.26	144.76	149.76	153.16	success	n/a	n/a	n/a
152.37	1.96	pain	outcomerating	5	high_cue	low_stim	27.29	Moderate	27.29	Moderate	0.72	1.45	task-social/outcomerating/task-pain_scale.png	n/a	n/a	n/a	n/a	success	n/a	n/a	n/a
163.28	1.0	pain	cue	6	high_cue	n/a	n/a	n/a	n/a	n/a	n/a	n/a	task-social/cue/runtype-pain/sch/h037.png	n/a	n/a	n/a	n/a	n/a	n/a	n/a	n/a
165.28	2.47	pain	expectrating	6	high_cue	n/a	51.12	Strong	51.12	Strong	0.48	1.99	task-social/cue/runtype-pain/sch/h037.png	n/a	n/a	n/a	n/a	n/a	n/a	n/a	n/a
174.51	12.360000000000014	pain	stimulus	6	high_cue	med_stim	n/a	n/a	n/a	n/a	n/a	n/a	n/a	174.51	178.27	183.27	186.88	success	n/a	n/a	n/a
184.49	3.8	pain	outcomerating	6	high_cue	med_stim	37.19	Strong	37.19	Strong	0.48	1.99	task-social/outcomerating/task-pain_scale.png	n/a	n/a	n/a	n/a	success	n/a	n/a	n/a
196.87	1.0	pain	cue	7	low_cue	n/a	n/a	n/a	n/a	n/a	n/a	n/a	task-social/cue/runtype-pain/scl/l030.png	n/a	n/a	n/a	n/a	n/a	n/a	n/a	n/a
199.27	1.53	pain	expectrating	7	low_cue	n/a	12.76	Moderate	12.76	Moderate	0.12	1.41	task-social/cue/runtype-pain/scl/l030.png	n/a	n/a	n/a	n/a	n/a	n/a	n/a	n/a
205.92	12.830000000000013	pain	stimulus	7	low_cue	high_stim	n/a	n/a	n/a	n/a	n/a	n/a	n/a	205.92	209.93	214.93	218.74	success	n/a	n/a	n/a
224.38	2.43	pain	outcomerating	7	low_cue	high_stim	35.86	Strong	35.86	Strong	0.12	1.41	task-social/outcomerating/task-pain_scale.png	n/a	n/a	n/a	n/a	success	n/a	n/a	n/a
231.37	1.0	pain	cue	8	low_cue	n/a	n/a	n/a	n/a	n/a	n/a	n/a	task-social/cue/runtype-pain/scl/l045.png	n/a	n/a	n/a	n/a	n/a	n/a	n/a	n/a
234.27	3.05	pain	expectrating	8	low_cue	n/a	45.67	Strong	45.67	Strong	0.82	2.23	task-social/cue/runtype-pain/scl/l045.png	n/a	n/a	n/a	n/a	n/a	n/a	n/a	n/a
240.9	12.370000000000005	pain	stimulus	8	low_cue	med_stim	n/a	n/a	n/a	n/a	n/a	n/a	n/a	240.9	244.66	249.66	253.27	success	n/a	n/a	n/a
256.98	2.94	pain	outcomerating	8	low_cue	med_stim	38.34	Strong	38.34	Strong	0.82	2.23	task-social/outcomerating/task-pain_scale.png	n/a	n/a	n/a	n/a	success	n/a	n/a	n/a
270.37	1.0	pain	cue	9	high_cue	n/a	n/a	n/a	n/a	n/a	n/a	n/a	task-social/cue/runtype-pain/sch/h004.png	n/a	n/a	n/a	n/a	n/a	n/a	n/a	n/a
272.18	2.25	pain	expectrating	9	high_cue	n/a	33.05	Strong	33.05	Strong	0.45	1.8	task-social/cue/runtype-pain/sch/h004.png	n/a	n/a	n/a	n/a	n/a	n/a	n/a	n/a
278.8	12.819999999999993	pain	stimulus	9	high_cue	high_stim	n/a	n/a	n/a	n/a	n/a	n/a	n/a	278.8	282.81	287.81	291.62	success	n/a	n/a	n/a
292.38	1.71	pain	outcomerating	9	high_cue	high_stim	34.07	Strong	34.07	Strong	0.45	1.8	task-social/outcomerating/task-pain_scale.png	n/a	n/a	n/a	n/a	success	n/a	n/a	n/a
297.68	1.0	pain	cue	10	low_cue	n/a	n/a	n/a	n/a	n/a	n/a	n/a	task-social/cue/runtype-pain/scl/l009.png	n/a	n/a	n/a	n/a	n/a	n/a	n/a	n/a
300.18	2.31	pain	expectrating	10	low_cue	n/a	6.67	Weak	6.67	Weak	0.77	1.54	task-social/cue/runtype-pain/scl/l009.png	n/a	n/a	n/a	n/a	n/a	n/a	n/a	n/a
306.29	12.370000000000005	pain	stimulus	10	low_cue	med_stim	n/a	n/a	n/a	n/a	n/a	n/a	n/a	306.29	310.05	315.05	318.66	success	n/a	n/a	n/a
317.99	2.82	pain	outcomerating	10	low_cue	med_stim	14.43	Moderate	14.43	Moderate	0.77	1.54	task-social/outcomerating/task-pain_scale.png	n/a	n/a	n/a	n/a	success	n/a	n/a	n/a
327.17	1.0	pain	cue	11	low_cue	n/a	n/a	n/a	n/a	n/a	n/a	n/a	task-social/cue/runtype-pain/scl/l049.png	n/a	n/a	n/a	n/a	n/a	n/a	n/a	n/a
329.07	1.7	pain	expectrating	11	low_cue	n/a	34.59	Strong	34.59	Strong	0.55	1.15	task-social/cue/runtype-pain/scl/l049.png	n/a	n/a	n/a	n/a	n/a	n/a	n/a	n/a
344.6	11.899999999999977	pain	stimulus	11	low_cue	low_stim	n/a	n/a	n/a	n/a	n/a	n/a	n/a	344.6	348.1	353.1	356.5	success	n/a	n/a	n/a
366.97	1.9	pain	outcomerating	11	low_cue	low_stim	27.32	Moderate	27.32	Moderate	0.55	1.15	task-social/outcomerating/task-pain_scale.png	n/a	n/a	n/a	n/a	success	n/a	n/a	n/a
372.57	1.0	pain	cue	12	low_cue	n/a	n/a	n/a	n/a	n/a	n/a	n/a	task-social/cue/runtype-pain/scl/l026.png	n/a	n/a	n/a	n/a	n/a	n/a	n/a	n/a
374.57	2.02	pain	expectrating	12	low_cue	n/a	36.64	Strong	36.64	Strong	0.4	1.62	task-social/cue/runtype-pain/scl/l026.png	n/a	n/a	n/a	n/a	n/a	n/a	n/a	n/a
384.41	12.819999999999993	pain	stimulus	12	low_cue	high_stim	n/a	n/a	n/a	n/a	n/a	n/a	n/a	384.41	388.42	393.42	397.23	success	n/a	n/a	n/a
394.38	1.65	pain	outcomerating	12	low_cue	high_stim	58.09	Strong	58.09	Strong	0.4	1.62	task-social/outcomerating/task-pain_scale.png	n/a	n/a	n/a	n/a	success	n/a	n/a	n/a
