onset	duration	trial_type	response_value	rating_type	expression	sex	race	age	stim_file_TODO
3.83	1.338	face	n/a	intensity	disgust	female	WC	old	task-faces/4Disgust_Model2_1Female_1WC_2Old.mp4
5.168	1.602	rating	0.2031	intensity	disgust	female	WC	old	n/a
5.701	1.069	rating_mouse_trajectory	0.2031	intensity	disgust	female	WC	old	n/a
7.208	2.045	face	n/a	intensity	pain	male	African	old	task-faces/7Pain_Model4_2Male_3African_2Old.mp4
9.253	0.678	rating	0.644	intensity	pain	male	African	old	n/a
9.603	0.328	rating_mouse_trajectory	0.644	intensity	pain	male	African	old	n/a
11.194	1.311	face	n/a	intensity	fear	male	EA	old	task-faces/3Fear_Model2_2Male_2EA_2Old.mp4
12.504	0.685	rating	0.3366	intensity	fear	male	EA	old	n/a
12.804	0.385	rating_mouse_trajectory	0.3366	intensity	fear	male	EA	old	n/a
15.436	1.303	face	n/a	intensity	happy	male	EA	old	task-faces/1Happy_Model1_2Male_2EA_2Old.mp4
16.739	0.618	rating	0.731	intensity	happy	male	EA	old	n/a
16.806	0.551	rating_mouse_trajectory	0.731	intensity	happy	male	EA	old	n/a
18.674	1.316	face	n/a	intensity	happy	female	EA	old	task-faces/1Happy_Model5_1Female_2EA_2Old.mp4
19.99	0.79	rating	0.8908	intensity	happy	female	EA	old	n/a
20.224	0.557	rating_mouse_trajectory	0.8908	intensity	happy	female	EA	old	n/a
25.948	1.312	face	n/a	intensity	anger	male	WC	young	task-faces/5Anger_Model4_2Male_1WC_1Young.mp4
27.26	0.671	rating	0.3062	intensity	anger	male	WC	young	n/a
27.51	0.421	rating_mouse_trajectory	0.3062	intensity	anger	male	WC	young	n/a
29.182	1.312	face	n/a	intensity	happy	male	WC	young	task-faces/1Happy_Model2_2Male_1WC_1Young.mp4
30.494	0.669	rating	0.29	intensity	happy	male	WC	young	n/a
30.744	0.419	rating_mouse_trajectory	0.29	intensity	happy	male	WC	young	n/a
32.418	1.31	face	n/a	intensity	disgust	male	WC	old	task-faces/4Disgust_Model3_2Male_1WC_2Old.mp4
33.729	0.768	rating	0.0676	intensity	disgust	male	WC	old	n/a
33.995	0.501	rating_mouse_trajectory	0.0676	intensity	disgust	male	WC	old	n/a
35.634	1.313	face	n/a	intensity	sad	male	WC	young	task-faces/6Sad_Model5_2Male_1WC_1Young.mp4
36.947	0.801	rating	0.0	intensity	sad	male	WC	young	n/a
37.213	0.535	rating_mouse_trajectory	0.0	intensity	sad	male	WC	young	n/a
38.868	2.047	face	n/a	intensity	pleasure	female	WC	young	task-faces/8Pleasure_Model1_1Female_1WC_1Young.mp4
40.915	0.635	rating	0.3366	intensity	pleasure	female	WC	young	n/a
40.998	0.552	rating_mouse_trajectory	0.3366	intensity	pleasure	female	WC	young	n/a
44.836	1.314	face	n/a	intensity	surprise	male	WC	old	task-faces/2Surprise_Model5_2Male_1WC_2Old.mp4
46.15	0.552	rating	0.7108	intensity	surprise	male	WC	old	n/a
46.267	0.435	rating_mouse_trajectory	0.7108	intensity	surprise	male	WC	old	n/a
49.069	1.316	face	n/a	intensity	happy	female	WC	young	task-faces/1Happy_Model2_1Female_1WC_1Young.mp4
50.385	0.601	rating	0.6723	intensity	happy	female	WC	young	n/a
50.485	0.501	rating_mouse_trajectory	0.6723	intensity	happy	female	WC	young	n/a
54.292	1.312	face	n/a	intensity	happy	male	African	young	task-faces/1Happy_Model5_2Male_3African_1Young.mp4
55.603	0.677	rating	0.5631	intensity	happy	male	African	young	n/a
55.853	0.427	rating_mouse_trajectory	0.5631	intensity	happy	male	African	young	n/a
58.51	1.312	face	n/a	intensity	sad	female	African	old	task-faces/6Sad_Model4_1Female_3African_2Old.mp4
59.822	0.618	rating	0.288	intensity	sad	female	African	old	n/a
60.005	0.435	rating_mouse_trajectory	0.288	intensity	sad	female	African	old	n/a
62.735	2.039	face	n/a	intensity	pain	female	WC	young	task-faces/7Pain_Model2_1Female_1WC_1Young.mp4
64.774	0.657	rating	0.3568	intensity	pain	female	WC	young	n/a
64.857	0.573	rating_mouse_trajectory	0.3568	intensity	pain	female	WC	young	n/a
67.698	1.31	face	n/a	intensity	happy	male	WC	old	task-faces/1Happy_Model1_2Male_1WC_2Old.mp4
69.008	1.088	rating	0.6744	intensity	happy	male	WC	old	n/a
69.675	0.422	rating_mouse_trajectory	0.6744	intensity	happy	male	WC	old	n/a
71.932	2.045	face	n/a	intensity	pain	male	EA	young	task-faces/7Pain_Model3_2Male_2EA_1Young.mp4
73.977	1.537	rating	0.8827	intensity	pain	male	EA	young	n/a
74.027	1.487	rating_mouse_trajectory	0.8827	intensity	pain	male	EA	young	n/a
76.885	2.043	face	n/a	intensity	pleasure	male	African	old	task-faces/8Pleasure_Model2_2Male_3African_2Old.mp4
78.929	0.801	rating	0.2456	intensity	pleasure	male	African	old	n/a
79.262	0.468	rating_mouse_trajectory	0.2456	intensity	pleasure	male	African	old	n/a
83.852	1.312	face	n/a	intensity	disgust	male	African	young	task-faces/4Disgust_Model2_2Male_3African_1Young.mp4
85.164	0.852	rating	0.7269	intensity	disgust	male	African	young	n/a
85.581	0.435	rating_mouse_trajectory	0.7269	intensity	disgust	male	African	young	n/a
87.085	1.314	face	n/a	intensity	fear	female	African	old	task-faces/3Fear_Model2_1Female_3African_2Old.mp4
88.399	0.701	rating	0.7674	intensity	fear	female	African	old	n/a
88.566	0.535	rating_mouse_trajectory	0.7674	intensity	fear	female	African	old	n/a
91.319	1.315	face	n/a	intensity	anger	male	EA	young	task-faces/5Anger_Model3_2Male_2EA_1Young.mp4
92.634	0.718	rating	0.5146	intensity	anger	male	EA	young	n/a
92.884	0.468	rating_mouse_trajectory	0.5146	intensity	anger	male	EA	young	n/a
94.551	1.301	face	n/a	intensity	fear	female	EA	young	task-faces/3Fear_Model2_1Female_2EA_1Young.mp4
95.852	0.628	rating	0.3447	intensity	fear	female	EA	young	n/a
96.135	0.345	rating_mouse_trajectory	0.3447	intensity	fear	female	EA	young	n/a
98.769	1.301	face	n/a	intensity	surprise	male	EA	young	task-faces/2Surprise_Model2_2Male_2EA_1Young.mp4
100.07	0.744	rating	0.1869	intensity	surprise	male	EA	young	n/a
100.27	0.544	rating_mouse_trajectory	0.1869	intensity	surprise	male	EA	young	n/a
102.977	2.045	face	n/a	intensity	pleasure	female	African	young	task-faces/8Pleasure_Model5_1Female_3African_1Young.mp4
105.022	0.675	rating	0.6905	intensity	pleasure	female	African	young	n/a
105.089	0.608	rating_mouse_trajectory	0.6905	intensity	pleasure	female	African	young	n/a
107.945	2.045	face	n/a	intensity	pain	male	WC	old	task-faces/7Pain_Model1_2Male_1WC_2Old.mp4
109.99	0.64	rating	0.29	intensity	pain	male	WC	old	n/a
110.24	0.39	rating_mouse_trajectory	0.29	intensity	pain	male	WC	old	n/a
111.913	1.312	face	n/a	intensity	sad	male	EA	old	task-faces/6Sad_Model2_2Male_2EA_2Old.mp4
113.225	1.105	rating	0.0574	intensity	sad	male	EA	old	n/a
113.608	0.722	rating_mouse_trajectory	0.0574	intensity	sad	male	EA	old	n/a
115.148	1.311	face	n/a	intensity	surprise	female	EA	old	task-faces/2Surprise_Model4_1Female_2EA_2Old.mp4
116.459	1.071	rating	0.8625	intensity	surprise	female	EA	old	n/a
116.859	0.671	rating_mouse_trajectory	0.8625	intensity	surprise	female	EA	old	n/a
118.382	1.313	face	n/a	intensity	happy	male	African	old	task-faces/1Happy_Model3_2Male_3African_2Old.mp4
119.694	1.236	rating	0.9373	intensity	happy	male	African	old	n/a
119.994	0.936	rating_mouse_trajectory	0.9373	intensity	happy	male	African	old	n/a
122.602	1.311	face	n/a	intensity	surprise	female	African	young	task-faces/2Surprise_Model4_1Female_3African_1Young.mp4
123.912	0.801	rating	0.7027	intensity	surprise	female	African	young	n/a
124.229	0.485	rating_mouse_trajectory	0.7027	intensity	surprise	female	African	young	n/a
126.818	2.046	face	n/a	intensity	pain	male	EA	old	task-faces/7Pain_Model1_2Male_2EA_2Old.mp4
128.864	0.818	rating	0.1383	intensity	pain	male	EA	old	n/a
128.964	0.718	rating_mouse_trajectory	0.1383	intensity	pain	male	EA	old	n/a
131.786	1.313	face	n/a	intensity	sad	female	African	young	task-faces/6Sad_Model5_1Female_3African_1Young.mp4
133.099	1.018	rating	0.11	intensity	sad	female	African	young	n/a
133.449	0.668	rating_mouse_trajectory	0.11	intensity	sad	female	African	young	n/a
135.018	1.316	face	n/a	intensity	sad	female	WC	young	task-faces/6Sad_Model5_1Female_1WC_1Young.mp4
136.334	0.968	rating	0.0615	intensity	sad	female	WC	young	n/a
136.7	0.602	rating_mouse_trajectory	0.0615	intensity	sad	female	WC	young	n/a
138.251	1.3	face	n/a	intensity	surprise	male	WC	young	task-faces/2Surprise_Model3_2Male_1WC_1Young.mp4
139.551	0.818	rating	0.3366	intensity	surprise	male	WC	young	n/a
139.868	0.501	rating_mouse_trajectory	0.3366	intensity	surprise	male	WC	young	n/a
142.468	1.318	face	n/a	intensity	fear	female	WC	old	task-faces/3Fear_Model3_1Female_1WC_2Old.mp4
143.786	0.818	rating	0.2577	intensity	fear	female	WC	old	n/a
144.003	0.602	rating_mouse_trajectory	0.2577	intensity	fear	female	WC	old	n/a
145.692	2.046	face	n/a	intensity	pleasure	female	WC	old	task-faces/8Pleasure_Model1_1Female_1WC_2Old.mp4
147.738	0.785	rating	0.2193	intensity	pleasure	female	WC	old	n/a
147.888	0.635	rating_mouse_trajectory	0.2193	intensity	pleasure	female	WC	old	n/a
149.668	1.304	face	n/a	intensity	happy	female	African	young	task-faces/1Happy_Model4_1Female_3African_1Young.mp4
150.972	0.691	rating	0.5752	intensity	happy	female	African	young	n/a
151.306	0.358	rating_mouse_trajectory	0.5752	intensity	happy	female	African	young	n/a
154.896	1.312	face	n/a	intensity	anger	female	African	old	task-faces/5Anger_Model3_1Female_3African_2Old.mp4
156.208	0.656	rating	0.377	intensity	anger	female	African	old	n/a
156.508	0.356	rating_mouse_trajectory	0.377	intensity	anger	female	African	old	n/a
160.131	2.045	face	n/a	intensity	pain	female	African	young	task-faces/7Pain_Model3_1Female_3African_1Young.mp4
162.177	0.887	rating	0.6258	intensity	pain	female	African	young	n/a
162.477	0.587	rating_mouse_trajectory	0.6258	intensity	pain	female	African	young	n/a
167.1	1.312	face	n/a	intensity	disgust	male	EA	old	task-faces/4Disgust_Model4_2Male_2EA_2Old.mp4
168.412	0.752	rating	0.2375	intensity	disgust	male	EA	old	n/a
168.529	0.635	rating_mouse_trajectory	0.2375	intensity	disgust	male	EA	old	n/a
171.318	1.312	face	n/a	intensity	fear	male	EA	young	task-faces/3Fear_Model1_2Male_2EA_1Young.mp4
172.63	0.918	rating	0.1667	intensity	fear	male	EA	young	n/a
172.814	0.735	rating_mouse_trajectory	0.1667	intensity	fear	male	EA	young	n/a
175.552	1.314	face	n/a	intensity	fear	female	WC	young	task-faces/3Fear_Model2_1Female_1WC_1Young.mp4
176.865	0.951	rating	0.0858	intensity	fear	female	WC	young	n/a
177.032	0.785	rating_mouse_trajectory	0.0858	intensity	fear	female	WC	young	n/a
178.785	1.299	face	n/a	intensity	happy	female	EA	young	task-faces/1Happy_Model4_1Female_2EA_1Young.mp4
180.083	1.035	rating	0.6319	intensity	happy	female	EA	young	n/a
180.55	0.568	rating_mouse_trajectory	0.6319	intensity	happy	female	EA	young	n/a
182.989	2.046	face	n/a	intensity	pleasure	male	WC	young	task-faces/8Pleasure_Model5_2Male_1WC_1Young.mp4
185.035	0.768	rating	0.7472	intensity	pleasure	male	WC	young	n/a
185.085	0.718	rating_mouse_trajectory	0.7472	intensity	pleasure	male	WC	young	n/a
186.951	2.035	face	n/a	intensity	pain	female	African	old	task-faces/7Pain_Model3_1Female_3African_2Old.mp4
188.987	0.885	rating	0.7593	intensity	pain	female	African	old	n/a
189.203	0.668	rating_mouse_trajectory	0.7593	intensity	pain	female	African	old	n/a
192.902	2.037	face	n/a	intensity	pain	male	African	young	task-faces/7Pain_Model4_2Male_3African_1Young.mp4
194.939	0.675	rating	0.3103	intensity	pain	male	African	young	n/a
195.205	0.408	rating_mouse_trajectory	0.3103	intensity	pain	male	African	young	n/a
198.862	1.312	face	n/a	intensity	disgust	female	EA	old	task-faces/4Disgust_Model3_1Female_2EA_2Old.mp4
200.174	0.74	rating	0.6926	intensity	disgust	female	EA	old	n/a
200.441	0.473	rating_mouse_trajectory	0.6926	intensity	disgust	female	EA	old	n/a
203.102	1.307	face	n/a	intensity	surprise	female	WC	young	task-faces/2Surprise_Model2_1Female_1WC_1Young.mp4
204.409	0.821	rating	0.2698	intensity	surprise	female	WC	young	n/a
204.809	0.421	rating_mouse_trajectory	0.2698	intensity	surprise	female	WC	young	n/a
207.333	1.311	face	n/a	intensity	anger	female	WC	young	task-faces/5Anger_Model5_1Female_1WC_1Young.mp4
208.644	0.753	rating	0.5975	intensity	anger	female	WC	young	n/a
209.011	0.386	rating_mouse_trajectory	0.5975	intensity	anger	female	WC	young	n/a
211.551	1.311	face	n/a	intensity	fear	male	WC	young	task-faces/3Fear_Model5_2Male_1WC_1Young.mp4
212.862	1.038	rating	0.5894	intensity	fear	male	WC	young	n/a
213.462	0.438	rating_mouse_trajectory	0.5894	intensity	fear	male	WC	young	n/a
215.769	2.045	face	n/a	intensity	pleasure	female	EA	old	task-faces/8Pleasure_Model3_1Female_2EA_2Old.mp4
217.814	0.835	rating	0.3912	intensity	pleasure	female	EA	old	n/a
218.081	0.568	rating_mouse_trajectory	0.3912	intensity	pleasure	female	EA	old	n/a
220.735	1.314	face	n/a	intensity	happy	female	WC	old	task-faces/1Happy_Model5_1Female_1WC_2Old.mp4
222.049	1.402	rating	0.6015	intensity	happy	female	WC	old	n/a
222.516	0.935	rating_mouse_trajectory	0.6015	intensity	happy	female	WC	old	n/a
224.968	1.315	face	n/a	intensity	disgust	female	African	old	task-faces/4Disgust_Model3_1Female_3African_2Old.mp4
226.284	0.768	rating	0.3224	intensity	disgust	female	African	old	n/a
226.667	0.385	rating_mouse_trajectory	0.3224	intensity	disgust	female	African	old	n/a
229.202	1.316	face	n/a	intensity	sad	male	EA	young	task-faces/6Sad_Model4_2Male_2EA_1Young.mp4
230.519	1.202	rating	0.2314	intensity	sad	male	EA	young	n/a
230.785	0.935	rating_mouse_trajectory	0.2314	intensity	sad	male	EA	young	n/a
232.424	1.312	face	n/a	intensity	surprise	male	EA	old	task-faces/2Surprise_Model1_2Male_2EA_2Old.mp4
233.737	1.068	rating	0.2516	intensity	surprise	male	EA	old	n/a
234.203	0.601	rating_mouse_trajectory	0.2516	intensity	surprise	male	EA	old	n/a
235.643	1.312	face	n/a	intensity	anger	female	WC	old	task-faces/5Anger_Model1_1Female_1WC_2Old.mp4
236.954	0.693	rating	0.7148	intensity	anger	female	WC	old	n/a
237.154	0.493	rating_mouse_trajectory	0.7148	intensity	anger	female	WC	old	n/a
240.878	2.045	face	n/a	intensity	pleasure	male	African	young	task-faces/8Pleasure_Model2_2Male_3African_1Young.mp4
242.923	0.757	rating	0.5429	intensity	pleasure	male	African	young	n/a
243.357	0.324	rating_mouse_trajectory	0.5429	intensity	pleasure	male	African	young	n/a
244.847	1.311	face	n/a	intensity	fear	female	African	young	task-faces/3Fear_Model5_1Female_3African_1Young.mp4
246.158	0.756	rating	0.6764	intensity	fear	female	African	young	n/a
246.441	0.473	rating_mouse_trajectory	0.6764	intensity	fear	female	African	young	n/a
252.081	1.312	face	n/a	intensity	sad	female	EA	young	task-faces/6Sad_Model3_1Female_2EA_1Young.mp4
253.394	0.936	rating	0.3487	intensity	sad	female	EA	young	n/a
253.844	0.486	rating_mouse_trajectory	0.3487	intensity	sad	female	EA	young	n/a
255.32	1.309	face	n/a	intensity	anger	female	African	young	task-faces/5Anger_Model2_1Female_3African_1Young.mp4
256.628	0.752	rating	0.6157	intensity	anger	female	African	young	n/a
256.962	0.418	rating_mouse_trajectory	0.6157	intensity	anger	female	African	young	n/a
259.539	1.308	face	n/a	intensity	disgust	female	African	young	task-faces/4Disgust_Model4_1Female_3African_1Young.mp4
260.847	0.702	rating	0.644	intensity	disgust	female	African	young	n/a
260.98	0.568	rating_mouse_trajectory	0.644	intensity	disgust	female	African	young	n/a
263.769	1.313	face	n/a	intensity	anger	male	African	old	task-faces/5Anger_Model5_2Male_3African_2Old.mp4
265.082	0.785	rating	0.733	intensity	anger	male	African	old	n/a
265.332	0.535	rating_mouse_trajectory	0.733	intensity	anger	male	African	old	n/a
268.002	1.315	face	n/a	intensity	happy	female	African	old	task-faces/1Happy_Model4_1Female_3African_2Old.mp4
269.316	0.985	rating	0.1323	intensity	happy	female	African	old	n/a
269.85	0.452	rating_mouse_trajectory	0.1323	intensity	happy	female	African	old	n/a
271.235	1.316	face	n/a	intensity	fear	male	African	young	task-faces/3Fear_Model1_2Male_3African_1Young.mp4
272.551	1.035	rating	0.1262	intensity	fear	male	African	young	n/a
272.968	0.618	rating_mouse_trajectory	0.1262	intensity	fear	male	African	young	n/a
275.458	2.044	face	n/a	intensity	pleasure	male	WC	old	task-faces/8Pleasure_Model2_2Male_1WC_2Old.mp4
277.503	1.411	rating	0.1687	intensity	pleasure	male	WC	old	n/a
277.553	1.361	rating_mouse_trajectory	0.1687	intensity	pleasure	male	WC	old	n/a
279.418	1.303	face	n/a	intensity	anger	male	WC	old	task-faces/5Anger_Model3_2Male_1WC_2Old.mp4
280.721	0.835	rating	0.5348	intensity	anger	male	WC	old	n/a
281.121	0.435	rating_mouse_trajectory	0.5348	intensity	anger	male	WC	old	n/a
283.628	2.045	face	n/a	intensity	pleasure	male	EA	young	task-faces/8Pleasure_Model4_2Male_2EA_1Young.mp4
285.673	0.758	rating	0.286	intensity	pleasure	male	EA	young	n/a
285.956	0.475	rating_mouse_trajectory	0.286	intensity	pleasure	male	EA	young	n/a
288.596	2.045	face	n/a	intensity	pleasure	female	African	old	task-faces/8Pleasure_Model4_1Female_3African_2Old.mp4
290.641	0.623	rating	0.5975	intensity	pleasure	female	African	old	n/a
290.791	0.473	rating_mouse_trajectory	0.5975	intensity	pleasure	female	African	old	n/a
292.564	1.311	face	n/a	intensity	sad	male	WC	old	task-faces/6Sad_Model1_2Male_1WC_2Old.mp4
293.876	1.571	rating	0.0817	intensity	sad	male	WC	old	n/a
294.492	0.955	rating_mouse_trajectory	0.0817	intensity	sad	male	WC	old	n/a
297.803	1.308	face	n/a	intensity	anger	male	EA	old	task-faces/5Anger_Model3_2Male_2EA_2Old.mp4
299.111	1.621	rating	0.1909	intensity	anger	male	EA	old	n/a
299.461	1.271	rating_mouse_trajectory	0.1909	intensity	anger	male	EA	old	n/a
302.036	1.31	face	n/a	intensity	disgust	male	WC	young	task-faces/4Disgust_Model2_2Male_1WC_1Young.mp4
303.346	0.951	rating	0.2112	intensity	disgust	male	WC	young	n/a
303.596	0.701	rating_mouse_trajectory	0.2112	intensity	disgust	male	WC	young	n/a
306.253	2.045	face	n/a	intensity	pleasure	female	EA	young	task-faces/8Pleasure_Model2_1Female_2EA_1Young.mp4
308.298	1.402	rating	0.0534	intensity	pleasure	female	EA	young	n/a
308.381	1.318	rating_mouse_trajectory	0.0534	intensity	pleasure	female	EA	young	n/a
310.217	1.315	face	n/a	intensity	surprise	female	WC	old	task-faces/2Surprise_Model3_1Female_1WC_2Old.mp4
311.532	1.035	rating	0.2739	intensity	surprise	female	WC	old	n/a
311.899	0.668	rating_mouse_trajectory	0.2739	intensity	surprise	female	WC	old	n/a
313.451	1.315	face	n/a	intensity	happy	male	EA	young	task-faces/1Happy_Model2_2Male_2EA_1Young.mp4
314.767	0.802	rating	0.5934	intensity	happy	male	EA	young	n/a
315.033	0.535	rating_mouse_trajectory	0.5934	intensity	happy	male	EA	young	n/a
317.685	1.316	face	n/a	intensity	fear	female	EA	old	task-faces/3Fear_Model2_1Female_2EA_2Old.mp4
319.002	1.152	rating	0.8038	intensity	fear	female	EA	old	n/a
319.185	0.969	rating_mouse_trajectory	0.8038	intensity	fear	female	EA	old	n/a
321.919	2.052	face	n/a	intensity	pain	female	EA	young	task-faces/7Pain_Model4_1Female_2EA_1Young.mp4
323.97	0.66	rating	0.6015	intensity	pain	female	EA	young	n/a
324.154	0.477	rating_mouse_trajectory	0.6015	intensity	pain	female	EA	young	n/a
326.877	1.312	face	n/a	intensity	sad	male	African	old	task-faces/6Sad_Model2_2Male_3African_2Old.mp4
328.188	1.668	rating	0.3103	intensity	sad	male	African	old	n/a
328.755	1.102	rating_mouse_trajectory	0.3103	intensity	sad	male	African	old	n/a
330.101	1.305	face	n/a	intensity	disgust	female	WC	young	task-faces/4Disgust_Model5_1Female_1WC_1Young.mp4
331.406	0.791	rating	0.6946	intensity	disgust	female	WC	young	n/a
331.74	0.457	rating_mouse_trajectory	0.6946	intensity	disgust	female	WC	young	n/a
335.336	2.039	face	n/a	intensity	pain	female	EA	old	task-faces/7Pain_Model3_1Female_2EA_2Old.mp4
337.375	0.622	rating	0.733	intensity	pain	female	EA	old	n/a
337.425	0.572	rating_mouse_trajectory	0.733	intensity	pain	female	EA	old	n/a
340.299	1.311	face	n/a	intensity	anger	male	African	young	task-faces/5Anger_Model1_2Male_3African_1Young.mp4
341.61	0.837	rating	0.913	intensity	anger	male	African	young	n/a
341.743	0.704	rating_mouse_trajectory	0.913	intensity	anger	male	African	young	n/a
345.535	1.311	face	n/a	intensity	surprise	male	African	young	task-faces/2Surprise_Model4_2Male_3African_1Young.mp4
346.845	1.052	rating	0.2536	intensity	surprise	male	African	young	n/a
346.945	0.952	rating_mouse_trajectory	0.2536	intensity	surprise	male	African	young	n/a
349.752	1.312	face	n/a	intensity	fear	male	WC	old	task-faces/3Fear_Model1_2Male_1WC_2Old.mp4
351.064	0.735	rating	0.1808	intensity	fear	male	WC	old	n/a
351.197	0.602	rating_mouse_trajectory	0.1808	intensity	fear	male	WC	old	n/a
353.986	1.313	face	n/a	intensity	anger	female	EA	young	task-faces/5Anger_Model1_1Female_2EA_1Young.mp4
355.299	0.802	rating	0.6602	intensity	anger	female	EA	young	n/a
355.632	0.468	rating_mouse_trajectory	0.6602	intensity	anger	female	EA	young	n/a
359.219	1.315	face	n/a	intensity	surprise	male	African	old	task-faces/2Surprise_Model3_2Male_3African_2Old.mp4
360.534	0.868	rating	0.3811	intensity	surprise	male	African	old	n/a
360.967	0.435	rating_mouse_trajectory	0.3811	intensity	surprise	male	African	old	n/a
362.457	2.045	face	n/a	intensity	pleasure	male	EA	old	task-faces/8Pleasure_Model4_2Male_2EA_2Old.mp4
364.502	1.118	rating	0.3002	intensity	pleasure	male	EA	old	n/a
364.852	0.768	rating_mouse_trajectory	0.3002	intensity	pleasure	male	EA	old	n/a
366.408	2.045	face	n/a	intensity	pain	female	WC	old	task-faces/7Pain_Model5_1Female_1WC_2Old.mp4
368.453	0.918	rating	0.7775	intensity	pain	female	WC	old	n/a
368.753	0.618	rating_mouse_trajectory	0.7775	intensity	pain	female	WC	old	n/a
372.369	1.32	face	n/a	intensity	anger	female	EA	old	task-faces/5Anger_Model3_1Female_2EA_2Old.mp4
373.689	1.175	rating	0.9009	intensity	anger	female	EA	old	n/a
374.005	0.858	rating_mouse_trajectory	0.9009	intensity	anger	female	EA	old	n/a
376.613	2.045	face	n/a	intensity	pain	male	WC	young	task-faces/7Pain_Model5_2Male_1WC_1Young.mp4
378.657	1.407	rating	0.9676	intensity	pain	male	WC	young	n/a
378.941	1.123	rating_mouse_trajectory	0.9676	intensity	pain	male	WC	young	n/a
381.581	1.311	face	n/a	intensity	disgust	female	EA	young	task-faces/4Disgust_Model5_1Female_2EA_1Young.mp4
382.892	1.088	rating	0.5955	intensity	disgust	female	EA	young	n/a
383.042	0.938	rating_mouse_trajectory	0.5955	intensity	disgust	female	EA	young	n/a
387.816	1.312	face	n/a	intensity	disgust	male	African	old	task-faces/4Disgust_Model1_2Male_3African_2Old.mp4
389.128	0.786	rating	0.3265	intensity	disgust	male	African	old	n/a
389.461	0.453	rating_mouse_trajectory	0.3265	intensity	disgust	male	African	old	n/a
391.032	1.314	face	n/a	intensity	fear	male	African	old	task-faces/3Fear_Model4_2Male_3African_2Old.mp4
392.346	0.852	rating	0.2011	intensity	fear	male	African	old	n/a
392.746	0.452	rating_mouse_trajectory	0.2011	intensity	fear	male	African	old	n/a
396.27	1.311	face	n/a	intensity	sad	male	African	young	task-faces/6Sad_Model2_2Male_3African_1Young.mp4
397.581	1.602	rating	0.0291	intensity	sad	male	African	young	n/a
398.681	0.502	rating_mouse_trajectory	0.0291	intensity	sad	male	African	young	n/a
400.502	1.314	face	n/a	intensity	sad	female	EA	old	task-faces/6Sad_Model1_1Female_2EA_2Old.mp4
401.816	0.868	rating	0.0878	intensity	sad	female	EA	old	n/a
402.149	0.535	rating_mouse_trajectory	0.0878	intensity	sad	female	EA	old	n/a
405.739	1.313	face	n/a	intensity	surprise	female	EA	young	task-faces/2Surprise_Model3_1Female_2EA_1Young.mp4
407.051	0.851	rating	0.8786	intensity	surprise	female	EA	young	n/a
407.385	0.518	rating_mouse_trajectory	0.8786	intensity	surprise	female	EA	young	n/a
409.975	1.311	face	n/a	intensity	sad	female	WC	old	task-faces/6Sad_Model1_1Female_1WC_2Old.mp4
411.286	0.919	rating	0.0392	intensity	sad	female	WC	old	n/a
411.603	0.602	rating_mouse_trajectory	0.0392	intensity	sad	female	WC	old	n/a
413.191	1.312	face	n/a	intensity	surprise	female	African	old	task-faces/2Surprise_Model1_1Female_3African_2Old.mp4
414.504	0.676	rating	0.6683	intensity	surprise	female	African	old	n/a
414.737	0.443	rating_mouse_trajectory	0.6683	intensity	surprise	female	African	old	n/a
416.409	1.312	face	n/a	intensity	disgust	male	EA	young	task-faces/4Disgust_Model2_2Male_2EA_1Young.mp4
417.722	0.792	rating	0.1849	intensity	disgust	male	EA	young	n/a
418.039	0.475	rating_mouse_trajectory	0.1849	intensity	disgust	male	EA	young	n/a
