onset	duration	trial_type	response_x	response_y	situation	context	modality	stim_file
8.84	32.183	narrative_presentation	n/a	n/a	Slaying-of-kin-unrecognized	town	Text	task-narratives/Narrative3Situation1.txt
41.023	2.967	rating_feeling	622	428	Slaying-of-kin-unrecognized	town	Text	n/a
42.257	1.733	feeling_mouse_trajectory	622	428	Slaying-of-kin-unrecognized	town	Text	n/a
45.106	1.3	rating_expectation	663	422	Slaying-of-kin-unrecognized	town	Text	n/a
45.79	0.617	expectation_mouse_trajectory	663	422	Slaying-of-kin-unrecognized	town	Text	n/a
53.173	17.094	narrative_presentation	n/a	n/a	Erroneous-judgement	town	Text	task-narratives/Narrative3Situation2.txt
70.267	3.967	rating_feeling	1092	589	Erroneous-judgement	town	Text	n/a
71.651	2.583	feeling_mouse_trajectory	1092	589	Erroneous-judgement	town	Text	n/a
74.287	1.95	rating_expectation	770	483	Erroneous-judgement	town	Text	n/a
75.637	0.6	expectation_mouse_trajectory	770	483	Erroneous-judgement	town	Text	n/a
80.366	10.392	narrative_presentation	n/a	n/a	Revolt	town	Text	task-narratives/Narrative3Situation3.txt
90.758	3.833	rating_feeling	1077	524	Revolt	town	Text	n/a
91.875	2.717	feeling_mouse_trajectory	1077	524	Revolt	town	Text	n/a
94.774	2.567	rating_expectation	852	471	Revolt	town	Text	n/a
94.924	2.417	expectation_mouse_trajectory	852	471	Revolt	town	Text	n/a
99.857	28.149	narrative_presentation	n/a	n/a	The-enigma	city	Text	task-narratives/Narrative3Situation4.txt
128.006	2.65	rating_feeling	1113	557	The-enigma	city	Text	n/a
128.956	1.7	feeling_mouse_trajectory	1113	557	The-enigma	city	Text	n/a
132.021	3.983	rating_expectation	1020	519	The-enigma	city	Text	n/a
133.221	2.783	expectation_mouse_trajectory	1020	519	The-enigma	city	Text	n/a
139.105	15.096	narrative_presentation	n/a	n/a	Deliverance	city	Text	task-narratives/Narrative3Situation5.txt
154.201	1.783	rating_feeling	743	463	Deliverance	city	Text	n/a
155.251	0.733	feeling_mouse_trajectory	743	463	Deliverance	city	Text	n/a
158.22	1.467	rating_expectation	655	431	Deliverance	city	Text	n/a
159.037	0.65	expectation_mouse_trajectory	655	431	Deliverance	city	Text	n/a
165.298	15.075	narrative_presentation	n/a	n/a	Remorse	city	Text	task-narratives/Narrative3Situation6.txt
180.374	2.917	rating_feeling	1234	504	Remorse	city	Text	n/a
181.024	2.267	feeling_mouse_trajectory	1234	504	Remorse	city	Text	n/a
184.391	2.267	rating_expectation	1072	563	Remorse	city	Text	n/a
185.324	1.333	expectation_mouse_trajectory	1072	563	Remorse	city	Text	n/a
192.458	36.85	narrative_presentation	n/a	n/a	Loss-of-loved-one	forest	Text	task-narratives/Narrative3Situation7.txt
229.308	1.5	rating_feeling	605	398	Loss-of-loved-one	forest	Text	n/a
230.175	0.633	feeling_mouse_trajectory	605	398	Loss-of-loved-one	forest	Text	n/a
233.325	1.933	rating_expectation	634	356	Loss-of-loved-one	forest	Text	n/a
234.225	1.033	expectation_mouse_trajectory	634	356	Loss-of-loved-one	forest	Text	n/a
239.392	9.713	narrative_presentation	n/a	n/a	All-sacrificed-for-passion	forest	Text	task-narratives/Narrative3Situation8.txt
249.105	2.417	rating_feeling	723	499	All-sacrificed-for-passion	forest	Text	n/a
250.405	1.117	feeling_mouse_trajectory	723	499	All-sacrificed-for-passion	forest	Text	n/a
253.137	1.9	rating_expectation	684	420	All-sacrificed-for-passion	forest	Text	n/a
253.987	1.05	expectation_mouse_trajectory	684	420	All-sacrificed-for-passion	forest	Text	n/a
258.199	27.481	narrative_presentation	n/a	n/a	Discovery-of-dishonour-of-loved-one	forest	Text	task-narratives/Narrative3Situation9.txt
285.68	2.2	rating_feeling	710	472	Discovery-of-dishonour-of-loved-one	forest	Text	n/a
286.697	1.183	feeling_mouse_trajectory	710	472	Discovery-of-dishonour-of-loved-one	forest	Text	n/a
289.704	2.433	rating_expectation	624	413	Discovery-of-dishonour-of-loved-one	forest	Text	n/a
290.52	1.617	expectation_mouse_trajectory	624	413	Discovery-of-dishonour-of-loved-one	forest	Text	n/a
295.797	22.445	narrative_presentation	n/a	n/a	Conflict-with-a-god	swamp	Text	task-narratives/Narrative4Situation1.txt
318.241	3.25	rating_feeling	689	468	Conflict-with-a-god	swamp	Text	n/a
319.291	2.2	feeling_mouse_trajectory	689	468	Conflict-with-a-god	swamp	Text	n/a
322.259	3.4	rating_expectation	696	450	Conflict-with-a-god	swamp	Text	n/a
323.292	2.367	expectation_mouse_trajectory	696	450	Conflict-with-a-god	swamp	Text	n/a
331.327	24.795	narrative_presentation	n/a	n/a	Adultery	swamp	Text	task-narratives/Narrative4Situation2.txt
356.122	1.767	rating_feeling	665	466	Adultery	swamp	Text	n/a
357.322	0.567	feeling_mouse_trajectory	665	466	Adultery	swamp	Text	n/a
360.14	1.467	rating_expectation	666	409	Adultery	swamp	Text	n/a
360.94	0.667	expectation_mouse_trajectory	666	409	Adultery	swamp	Text	n/a
366.206	21.112	narrative_presentation	n/a	n/a	Slaying-of-kin-unrecognized	swamp	Text	task-narratives/Narrative4Situation3.txt
387.318	2.467	rating_feeling	589	374	Slaying-of-kin-unrecognized	swamp	Text	n/a
388.502	1.283	feeling_mouse_trajectory	589	374	Slaying-of-kin-unrecognized	swamp	Text	n/a
391.337	2.833	rating_expectation	621	373	Slaying-of-kin-unrecognized	swamp	Text	n/a
392.57	1.6	expectation_mouse_trajectory	621	373	Slaying-of-kin-unrecognized	swamp	Text	n/a
396.401	21.112	narrative_presentation	n/a	n/a	Fatal-imprudence	hospital	Text	task-narratives/Narrative4Situation4.txt
417.513	1.7	rating_feeling	674	448	Fatal-imprudence	hospital	Text	n/a
418.629	0.583	feeling_mouse_trajectory	674	448	Fatal-imprudence	hospital	Text	n/a
421.538	1.483	rating_expectation	699	428	Fatal-imprudence	hospital	Text	n/a
422.354	0.667	expectation_mouse_trajectory	699	428	Fatal-imprudence	hospital	Text	n/a
426.612	25.796	narrative_presentation	n/a	n/a	Erroneous-judgement	hospital	Text	task-narratives/Narrative4Situation5.txt
452.409	2.517	rating_feeling	658	445	Erroneous-judgement	hospital	Text	n/a
453.492	1.433	feeling_mouse_trajectory	658	445	Erroneous-judgement	hospital	Text	n/a
456.425	1.7	rating_expectation	643	403	Erroneous-judgement	hospital	Text	n/a
457.125	1.0	expectation_mouse_trajectory	643	403	Erroneous-judgement	hospital	Text	n/a
461.509	23.447	narrative_presentation	n/a	n/a	Necessity-of-sacrificing-loved-ones	hospital	Text	task-narratives/Narrative4Situation6.txt
484.955	3.633	rating_feeling	1021	522	Necessity-of-sacrificing-loved-ones	hospital	Text	n/a
486.122	2.467	feeling_mouse_trajectory	1021	522	Necessity-of-sacrificing-loved-ones	hospital	Text	n/a
488.971	2.083	rating_expectation	747	500	Necessity-of-sacrificing-loved-ones	hospital	Text	n/a
489.921	1.133	expectation_mouse_trajectory	747	500	Necessity-of-sacrificing-loved-ones	hospital	Text	n/a
494.037	19.093	narrative_presentation	n/a	n/a	Recovery-of-a-lost-one	prison	Text	task-narratives/Narrative4Situation7.txt
513.13	1.617	rating_feeling	703	477	Recovery-of-a-lost-one	prison	Text	n/a
514.064	0.683	feeling_mouse_trajectory	703	477	Recovery-of-a-lost-one	prison	Text	n/a
517.154	2.017	rating_expectation	701	425	Recovery-of-a-lost-one	prison	Text	n/a
517.937	1.233	expectation_mouse_trajectory	701	425	Recovery-of-a-lost-one	prison	Text	n/a
522.231	38.535	narrative_presentation	n/a	n/a	Crimes-of-love	prison	Text	task-narratives/Narrative4Situation8.txt
560.766	2.283	rating_feeling	703	477	Crimes-of-love	prison	Text	n/a
561.882	1.167	feeling_mouse_trajectory	703	477	Crimes-of-love	prison	Text	n/a
564.787	1.6	rating_expectation	656	395	Crimes-of-love	prison	Text	n/a
565.321	1.067	expectation_mouse_trajectory	656	395	Crimes-of-love	prison	Text	n/a
573.867	12.391	narrative_presentation	n/a	n/a	Abduction	prison	Text	task-narratives/Narrative4Situation9.txt
586.258	1.533	rating_feeling	687	417	Abduction	prison	Text	n/a
586.658	1.133	feeling_mouse_trajectory	687	417	Abduction	prison	Text	n/a
590.275	1.867	rating_expectation	611	362	Abduction	prison	Text	n/a
591.025	1.117	expectation_mouse_trajectory	611	362	Abduction	prison	Text	n/a
