onset	duration	run_type	trial_type	trial_index	cue	stimulusintensity	rating_value	rating_glmslabel	rating_value_fillna	rating_glmslabel_fillna	rating_mouseonset	rating_mousedur	stim_file	pain_onset_ttl1	pain_onset_ttl2	pain_onset_ttl3	pain_onset_ttl4	pain_stimulus_delivery_success	cognitive_correct_response	cognitive_participant_response	cognitive_response_accuracy
14.19	0.99	cognitive	cue	1	low_cue	n/a	n/a	n/a	n/a	n/a	n/a	n/a	n/a	n/a	n/a	n/a	n/a	n/a	n/a	n/a	n/a
16.01	2.72	cognitive	expectrating	1	low_cue	n/a	45.16	Strong	45.16	Strong	0.3	2.42	task-social/cue/runtype-cognitive/scl/l037.png	n/a	n/a	n/a	n/a	n/a	n/a	n/a	n/a
26.69	5.0	cognitive	stimulus	1	low_cue	low_stim	n/a	n/a	n/a	n/a	n/a	n/a	task-social/stim/runtype-cognitive/7_50.jpg	n/a	n/a	n/a	n/a	n/a	same	n/a	False
37.7	2.72	cognitive	outcomerating	1	low_cue	low_stim	6.03	Weak	6.03	Weak	0.53	2.18	task-social/outcomerating/task-cognitive_scale.png	n/a	n/a	n/a	n/a	n/a	n/a	n/a	n/a
43.78	0.99	cognitive	cue	2	low_cue	n/a	n/a	n/a	n/a	n/a	n/a	n/a	n/a	n/a	n/a	n/a	n/a	n/a	n/a	n/a	n/a
46.8	2.57	cognitive	expectrating	2	low_cue	n/a	11.13	Moderate	11.13	Moderate	0.05	2.52	task-social/cue/runtype-cognitive/scl/l006.png	n/a	n/a	n/a	n/a	n/a	n/a	n/a	n/a
57.49	5.0	cognitive	stimulus	2	low_cue	med_stim	n/a	n/a	n/a	n/a	n/a	n/a	task-social/stim/runtype-cognitive/35_100.jpg	n/a	n/a	n/a	n/a	n/a	same	diff	False
69.29	2.9	cognitive	outcomerating	2	low_cue	med_stim	3.94	Weak	3.94	Weak	0.82	2.09	task-social/outcomerating/task-cognitive_scale.png	n/a	n/a	n/a	n/a	n/a	n/a	n/a	n/a
77.8	0.98	cognitive	cue	3	high_cue	n/a	n/a	n/a	n/a	n/a	n/a	n/a	n/a	n/a	n/a	n/a	n/a	n/a	n/a	n/a	n/a
80.8	1.88	cognitive	expectrating	3	high_cue	n/a	19.53	Moderate	19.53	Moderate	0.55	1.33	task-social/cue/runtype-cognitive/sch/h017.png	n/a	n/a	n/a	n/a	n/a	n/a	n/a	n/a
87.6	5.0	cognitive	stimulus	3	high_cue	med_stim	n/a	n/a	n/a	n/a	n/a	n/a	task-social/stim/runtype-cognitive/1_100_R.jpg	n/a	n/a	n/a	n/a	n/a	diff	same	False
97.39	n/a	cognitive	outcomerating	3	high_cue	med_stim	n/a	n/a	14.26	Moderate	0.5	3.33	task-social/outcomerating/task-cognitive_scale.png	n/a	n/a	n/a	n/a	n/a	n/a	n/a	n/a
110.49	0.99	cognitive	cue	4	low_cue	n/a	n/a	n/a	n/a	n/a	n/a	n/a	n/a	n/a	n/a	n/a	n/a	n/a	n/a	n/a	n/a
112.39	1.82	cognitive	expectrating	4	low_cue	n/a	15.6	Moderate	15.6	Moderate	0.53	1.29	task-social/cue/runtype-cognitive/scl/l023.png	n/a	n/a	n/a	n/a	n/a	n/a	n/a	n/a
125.9	5.0	cognitive	stimulus	4	low_cue	high_stim	n/a	n/a	n/a	n/a	n/a	n/a	task-social/stim/runtype-cognitive/1_150.jpg	n/a	n/a	n/a	n/a	n/a	same	same	True
136.1	3.73	cognitive	outcomerating	4	low_cue	high_stim	29.05	Strong	29.05	Strong	1.12	2.62	task-social/outcomerating/task-cognitive_scale.png	n/a	n/a	n/a	n/a	n/a	n/a	n/a	n/a
150.69	0.99	cognitive	cue	5	high_cue	n/a	n/a	n/a	n/a	n/a	n/a	n/a	n/a	n/a	n/a	n/a	n/a	n/a	n/a	n/a	n/a
152.39	3.1	cognitive	expectrating	5	high_cue	n/a	47.76	Strong	47.76	Strong	0.58	2.52	task-social/cue/runtype-cognitive/sch/h016.png	n/a	n/a	n/a	n/a	n/a	n/a	n/a	n/a
160.89	5.0	cognitive	stimulus	5	high_cue	med_stim	n/a	n/a	n/a	n/a	n/a	n/a	task-social/stim/runtype-cognitive/24_100_R.jpg	n/a	n/a	n/a	n/a	n/a	diff	same	False
173.8	n/a	cognitive	outcomerating	5	high_cue	med_stim	n/a	n/a	35.94	Strong	1.5	2.33	task-social/outcomerating/task-cognitive_scale.png	n/a	n/a	n/a	n/a	n/a	n/a	n/a	n/a
178.68	0.99	cognitive	cue	6	low_cue	n/a	n/a	n/a	n/a	n/a	n/a	n/a	n/a	n/a	n/a	n/a	n/a	n/a	n/a	n/a	n/a
181.78	1.96	cognitive	expectrating	6	low_cue	n/a	33.37	Strong	33.37	Strong	0.38	1.58	task-social/cue/runtype-cognitive/scl/l048.png	n/a	n/a	n/a	n/a	n/a	n/a	n/a	n/a
189.99	5.0	cognitive	stimulus	6	low_cue	high_stim	n/a	n/a	n/a	n/a	n/a	n/a	task-social/stim/runtype-cognitive/26_150_R.jpg	n/a	n/a	n/a	n/a	n/a	diff	diff	True
200.09	2.8	cognitive	outcomerating	6	low_cue	high_stim	26.36	Moderate	26.36	Moderate	0.95	1.85	task-social/outcomerating/task-cognitive_scale.png	n/a	n/a	n/a	n/a	n/a	n/a	n/a	n/a
205.39	0.98	cognitive	cue	7	low_cue	n/a	n/a	n/a	n/a	n/a	n/a	n/a	n/a	n/a	n/a	n/a	n/a	n/a	n/a	n/a	n/a
208.39	1.75	cognitive	expectrating	7	low_cue	n/a	19.24	Moderate	19.24	Moderate	0.33	1.42	task-social/cue/runtype-cognitive/scl/l008.png	n/a	n/a	n/a	n/a	n/a	n/a	n/a	n/a
219.7	5.0	cognitive	stimulus	7	low_cue	low_stim	n/a	n/a	n/a	n/a	n/a	n/a	task-social/stim/runtype-cognitive/26_50_R.jpg	n/a	n/a	n/a	n/a	n/a	diff	diff	True
232.59	2.89	cognitive	outcomerating	7	low_cue	low_stim	14.71	Moderate	14.71	Moderate	1.15	1.74	task-social/outcomerating/task-cognitive_scale.png	n/a	n/a	n/a	n/a	n/a	n/a	n/a	n/a
237.49	0.99	cognitive	cue	8	high_cue	n/a	n/a	n/a	n/a	n/a	n/a	n/a	n/a	n/a	n/a	n/a	n/a	n/a	n/a	n/a	n/a
239.19	1.72	cognitive	expectrating	8	high_cue	n/a	47.45	Strong	47.45	Strong	0.13	1.59	task-social/cue/runtype-cognitive/sch/h055.png	n/a	n/a	n/a	n/a	n/a	n/a	n/a	n/a
245.99	5.0	cognitive	stimulus	8	high_cue	high_stim	n/a	n/a	n/a	n/a	n/a	n/a	task-social/stim/runtype-cognitive/22_150.jpg	n/a	n/a	n/a	n/a	n/a	same	same	True
257.9	3.1	cognitive	outcomerating	8	high_cue	high_stim	33.02	Strong	33.02	Strong	0.83	2.27	task-social/outcomerating/task-cognitive_scale.png	n/a	n/a	n/a	n/a	n/a	n/a	n/a	n/a
265.78	0.99	cognitive	cue	9	high_cue	n/a	n/a	n/a	n/a	n/a	n/a	n/a	n/a	n/a	n/a	n/a	n/a	n/a	n/a	n/a	n/a
268.78	3.09	cognitive	expectrating	9	high_cue	n/a	48.6	Strong	48.6	Strong	0.35	2.74	task-social/cue/runtype-cognitive/sch/h044.png	n/a	n/a	n/a	n/a	n/a	n/a	n/a	n/a
276.99	5.0	cognitive	stimulus	9	high_cue	high_stim	n/a	n/a	n/a	n/a	n/a	n/a	task-social/stim/runtype-cognitive/24_150_R.jpg	n/a	n/a	n/a	n/a	n/a	diff	diff	True
287.99	3.55	cognitive	outcomerating	9	high_cue	high_stim	30.72	Strong	30.72	Strong	0.92	2.64	task-social/outcomerating/task-cognitive_scale.png	n/a	n/a	n/a	n/a	n/a	n/a	n/a	n/a
296.69	0.98	cognitive	cue	10	high_cue	n/a	n/a	n/a	n/a	n/a	n/a	n/a	n/a	n/a	n/a	n/a	n/a	n/a	n/a	n/a	n/a
299.5	2.03	cognitive	expectrating	10	high_cue	n/a	23.14	Moderate	23.14	Moderate	0.52	1.52	task-social/cue/runtype-cognitive/sch/h021.png	n/a	n/a	n/a	n/a	n/a	n/a	n/a	n/a
316.09	5.0	cognitive	stimulus	10	high_cue	low_stim	n/a	n/a	n/a	n/a	n/a	n/a	task-social/stim/runtype-cognitive/20_50.jpg	n/a	n/a	n/a	n/a	n/a	same	same	True
326.99	2.17	cognitive	outcomerating	10	high_cue	low_stim	23.59	Moderate	23.59	Moderate	0.52	1.66	task-social/outcomerating/task-cognitive_scale.png	n/a	n/a	n/a	n/a	n/a	n/a	n/a	n/a
332.69	0.99	cognitive	cue	11	high_cue	n/a	n/a	n/a	n/a	n/a	n/a	n/a	n/a	n/a	n/a	n/a	n/a	n/a	n/a	n/a	n/a
335.59	1.55	cognitive	expectrating	11	high_cue	n/a	36.3	Strong	36.3	Strong	0.4	1.15	task-social/cue/runtype-cognitive/sch/h028.png	n/a	n/a	n/a	n/a	n/a	n/a	n/a	n/a
346.5	5.0	cognitive	stimulus	11	high_cue	low_stim	n/a	n/a	n/a	n/a	n/a	n/a	task-social/stim/runtype-cognitive/1_50_R.jpg	n/a	n/a	n/a	n/a	n/a	diff	diff	True
358.48	2.92	cognitive	outcomerating	11	high_cue	low_stim	25.13	Moderate	25.13	Moderate	0.7	2.22	task-social/outcomerating/task-cognitive_scale.png	n/a	n/a	n/a	n/a	n/a	n/a	n/a	n/a
365.29	0.99	cognitive	cue	12	low_cue	n/a	n/a	n/a	n/a	n/a	n/a	n/a	n/a	n/a	n/a	n/a	n/a	n/a	n/a	n/a	n/a
367.19	3.22	cognitive	expectrating	12	low_cue	n/a	19.16	Moderate	19.16	Moderate	0.58	2.64	task-social/cue/runtype-cognitive/scl/l052.png	n/a	n/a	n/a	n/a	n/a	n/a	n/a	n/a
380.79	5.0	cognitive	stimulus	12	low_cue	med_stim	n/a	n/a	n/a	n/a	n/a	n/a	task-social/stim/runtype-cognitive/20_100_R.jpg	n/a	n/a	n/a	n/a	n/a	diff	diff	True
394.5	2.6	cognitive	outcomerating	12	low_cue	med_stim	25.84	Moderate	25.84	Moderate	0.68	1.92	task-social/outcomerating/task-cognitive_scale.png	n/a	n/a	n/a	n/a	n/a	n/a	n/a	n/a
