onset	duration	run_type	trial_type	trial_index	cue	stimulusintensity	rating_value	rating_glmslabel	rating_value_fillna	rating_glmslabel_fillna	rating_mouseonset	rating_mousedur	stim_file	pain_onset_ttl1	pain_onset_ttl2	pain_onset_ttl3	pain_onset_ttl4	pain_stimulus_delivery_success	cognitive_correct_response	cognitive_participant_response	cognitive_response_accuracy
11.0	1.0	pain	cue	1	low_cue	n/a	n/a	n/a	n/a	n/a	n/a	n/a	task-social/cue/runtype-pain/scl/l032.png	n/a	n/a	n/a	n/a	n/a	n/a	n/a	n/a
14.31	1.07	pain	expectrating	1	low_cue	n/a	48.39	Strong	48.39	Strong	0.35	0.72	task-social/cue/runtype-pain/scl/l032.png	n/a	n/a	n/a	n/a	n/a	n/a	n/a	n/a
30.54	12.369999999999997	pain	stimulus	1	low_cue	med_stim	n/a	n/a	n/a	n/a	n/a	n/a	n/a	30.54	34.3	39.3	42.91	success	n/a	n/a	n/a
45.31	1.63	pain	outcomerating	1	low_cue	med_stim	96.85	Very Strong	96.85	Very Strong	1.08	0.55	task-social/outcomerating/task-pain_scale.png	n/a	n/a	n/a	n/a	success	n/a	n/a	n/a
51.49	1.0	pain	cue	2	low_cue	n/a	n/a	n/a	n/a	n/a	n/a	n/a	task-social/cue/runtype-pain/scl/l044.png	n/a	n/a	n/a	n/a	n/a	n/a	n/a	n/a
53.69	1.95	pain	expectrating	2	low_cue	n/a	70.08	Very Strong	70.08	Very Strong	0.42	1.53	task-social/cue/runtype-pain/scl/l044.png	n/a	n/a	n/a	n/a	n/a	n/a	n/a	n/a
60.42	12.819999999999993	pain	stimulus	2	low_cue	high_stim	n/a	n/a	n/a	n/a	n/a	n/a	n/a	60.42	64.43	69.43	73.24	success	n/a	n/a	n/a
75.2	1.45	pain	outcomerating	2	low_cue	high_stim	90.7	Very Strong	90.7	Very Strong	0.88	0.57	task-social/outcomerating/task-pain_scale.png	n/a	n/a	n/a	n/a	success	n/a	n/a	n/a
82.99	1.0	pain	cue	3	high_cue	n/a	n/a	n/a	n/a	n/a	n/a	n/a	task-social/cue/runtype-pain/sch/h001.png	n/a	n/a	n/a	n/a	n/a	n/a	n/a	n/a
85.81	1.87	pain	expectrating	3	high_cue	n/a	180.0	Strongest sensation of any kind	180.0	Strongest sensation of any kind	0.53	1.33	task-social/cue/runtype-pain/sch/h001.png	n/a	n/a	n/a	n/a	n/a	n/a	n/a	n/a
90.52	11.91000000000001	pain	stimulus	3	high_cue	low_stim	n/a	n/a	n/a	n/a	n/a	n/a	n/a	90.52	94.02	99.02	102.42	success	n/a	n/a	n/a
100.4	1.39	pain	outcomerating	3	high_cue	low_stim	180.0	Strongest sensation of any kind	180.0	Strongest sensation of any kind	0.75	0.64	task-social/outcomerating/task-pain_scale.png	n/a	n/a	n/a	n/a	success	n/a	n/a	n/a
117.2	1.0	pain	cue	4	high_cue	n/a	n/a	n/a	n/a	n/a	n/a	n/a	task-social/cue/runtype-pain/sch/h036.png	n/a	n/a	n/a	n/a	n/a	n/a	n/a	n/a
119.3	1.49	pain	expectrating	4	high_cue	n/a	180.0	Strongest sensation of any kind	180.0	Strongest sensation of any kind	0.43	1.05	task-social/cue/runtype-pain/sch/h036.png	n/a	n/a	n/a	n/a	n/a	n/a	n/a	n/a
130.81	12.370000000000005	pain	stimulus	4	high_cue	med_stim	n/a	n/a	n/a	n/a	n/a	n/a	n/a	130.81	134.57	139.57	143.18	success	n/a	n/a	n/a
145.6	2.29	pain	outcomerating	4	high_cue	med_stim	177.47	Strongest sensation of any kind	177.47	Strongest sensation of any kind	1.38	0.91	task-social/outcomerating/task-pain_scale.png	n/a	n/a	n/a	n/a	success	n/a	n/a	n/a
150.5	1.0	pain	cue	5	high_cue	n/a	n/a	n/a	n/a	n/a	n/a	n/a	task-social/cue/runtype-pain/sch/h031.png	n/a	n/a	n/a	n/a	n/a	n/a	n/a	n/a
152.7	2.06	pain	expectrating	5	high_cue	n/a	179.08	Strongest sensation of any kind	179.08	Strongest sensation of any kind	0.38	1.67	task-social/cue/runtype-pain/sch/h031.png	n/a	n/a	n/a	n/a	n/a	n/a	n/a	n/a
168.91	12.819999999999993	pain	stimulus	5	high_cue	high_stim	n/a	n/a	n/a	n/a	n/a	n/a	n/a	168.91	172.92	177.92	181.73	success	n/a	n/a	n/a
179.61	1.15	pain	outcomerating	5	high_cue	high_stim	180.0	Strongest sensation of any kind	180.0	Strongest sensation of any kind	0.47	0.68	task-social/outcomerating/task-pain_scale.png	n/a	n/a	n/a	n/a	success	n/a	n/a	n/a
185.09	1.0	pain	cue	6	low_cue	n/a	n/a	n/a	n/a	n/a	n/a	n/a	task-social/cue/runtype-pain/scl/l053.png	n/a	n/a	n/a	n/a	n/a	n/a	n/a	n/a
187.09	1.53	pain	expectrating	6	low_cue	n/a	153.54	Strongest sensation of any kind	153.54	Strongest sensation of any kind	0.35	1.18	task-social/cue/runtype-pain/scl/l053.png	n/a	n/a	n/a	n/a	n/a	n/a	n/a	n/a
193.61	12.819999999999993	pain	stimulus	6	low_cue	high_stim	n/a	n/a	n/a	n/a	n/a	n/a	n/a	193.61	197.62	202.62	206.43	success	n/a	n/a	n/a
204.3	1.42	pain	outcomerating	6	low_cue	high_stim	180.0	Strongest sensation of any kind	180.0	Strongest sensation of any kind	0.4	1.02	task-social/outcomerating/task-pain_scale.png	n/a	n/a	n/a	n/a	success	n/a	n/a	n/a
213.2	0.98	pain	cue	7	low_cue	n/a	n/a	n/a	n/a	n/a	n/a	n/a	task-social/cue/runtype-pain/scl/l026.png	n/a	n/a	n/a	n/a	n/a	n/a	n/a	n/a
216.51	1.07	pain	expectrating	7	low_cue	n/a	134.82	Strongest sensation of any kind	134.82	Strongest sensation of any kind	0.38	0.68	task-social/cue/runtype-pain/scl/l026.png	n/a	n/a	n/a	n/a	n/a	n/a	n/a	n/a
223.03	11.900000000000006	pain	stimulus	7	low_cue	low_stim	n/a	n/a	n/a	n/a	n/a	n/a	n/a	223.03	226.53	231.53	234.93	success	n/a	n/a	n/a
238.1	1.13	pain	outcomerating	7	low_cue	low_stim	152.7	Strongest sensation of any kind	152.7	Strongest sensation of any kind	0.4	0.73	task-social/outcomerating/task-pain_scale.png	n/a	n/a	n/a	n/a	success	n/a	n/a	n/a
244.3	1.0	pain	cue	8	high_cue	n/a	n/a	n/a	n/a	n/a	n/a	n/a	task-social/cue/runtype-pain/sch/h003.png	n/a	n/a	n/a	n/a	n/a	n/a	n/a	n/a
247.3	0.92	pain	expectrating	8	high_cue	n/a	180.0	Strongest sensation of any kind	180.0	Strongest sensation of any kind	0.38	0.54	task-social/cue/runtype-pain/sch/h003.png	n/a	n/a	n/a	n/a	n/a	n/a	n/a	n/a
252.02	12.819999999999965	pain	stimulus	8	high_cue	high_stim	n/a	n/a	n/a	n/a	n/a	n/a	n/a	252.02	256.03	261.03	264.84	success	n/a	n/a	n/a
263.01	1.5	pain	outcomerating	8	high_cue	high_stim	180.0	Strongest sensation of any kind	180.0	Strongest sensation of any kind	0.82	0.68	task-social/outcomerating/task-pain_scale.png	n/a	n/a	n/a	n/a	success	n/a	n/a	n/a
270.39	1.0	pain	cue	9	high_cue	n/a	n/a	n/a	n/a	n/a	n/a	n/a	task-social/cue/runtype-pain/sch/h016.png	n/a	n/a	n/a	n/a	n/a	n/a	n/a	n/a
272.39	1.2	pain	expectrating	9	high_cue	n/a	175.08	Strongest sensation of any kind	175.08	Strongest sensation of any kind	0.57	0.63	task-social/cue/runtype-pain/sch/h016.png	n/a	n/a	n/a	n/a	n/a	n/a	n/a	n/a
279.75	11.899999999999977	pain	stimulus	9	high_cue	low_stim	n/a	n/a	n/a	n/a	n/a	n/a	n/a	279.75	283.25	288.25	291.65	success	n/a	n/a	n/a
298.6	1.77	pain	outcomerating	9	high_cue	low_stim	177.45	Strongest sensation of any kind	177.45	Strongest sensation of any kind	0.47	1.3	task-social/outcomerating/task-pain_scale.png	n/a	n/a	n/a	n/a	success	n/a	n/a	n/a
304.09	1.0	pain	cue	10	low_cue	n/a	n/a	n/a	n/a	n/a	n/a	n/a	task-social/cue/runtype-pain/scl/l005.png	n/a	n/a	n/a	n/a	n/a	n/a	n/a	n/a
306.31	1.12	pain	expectrating	10	low_cue	n/a	127.1	Strongest sensation of any kind	127.1	Strongest sensation of any kind	0.43	0.68	task-social/cue/runtype-pain/scl/l005.png	n/a	n/a	n/a	n/a	n/a	n/a	n/a	n/a
311.66	12.359999999999957	pain	stimulus	10	low_cue	med_stim	n/a	n/a	n/a	n/a	n/a	n/a	n/a	311.66	315.42	320.42	324.03	success	n/a	n/a	n/a
329.8	2.26	pain	outcomerating	10	low_cue	med_stim	176.03	Strongest sensation of any kind	176.03	Strongest sensation of any kind	0.43	1.82	task-social/outcomerating/task-pain_scale.png	n/a	n/a	n/a	n/a	success	n/a	n/a	n/a
338.1	1.0	pain	cue	11	low_cue	n/a	n/a	n/a	n/a	n/a	n/a	n/a	task-social/cue/runtype-pain/scl/l030.png	n/a	n/a	n/a	n/a	n/a	n/a	n/a	n/a
340.3	1.05	pain	expectrating	11	low_cue	n/a	180.0	Strongest sensation of any kind	180.0	Strongest sensation of any kind	0.5	0.55	task-social/cue/runtype-pain/scl/l030.png	n/a	n/a	n/a	n/a	n/a	n/a	n/a	n/a
350.23	11.909999999999968	pain	stimulus	11	low_cue	low_stim	n/a	n/a	n/a	n/a	n/a	n/a	n/a	350.23	353.73	358.73	362.13	success	n/a	n/a	n/a
363.89	0.98	pain	outcomerating	11	low_cue	low_stim	180.0	Strongest sensation of any kind	180.0	Strongest sensation of any kind	0.4	0.58	task-social/outcomerating/task-pain_scale.png	n/a	n/a	n/a	n/a	success	n/a	n/a	n/a
376.1	1.0	pain	cue	12	high_cue	n/a	n/a	n/a	n/a	n/a	n/a	n/a	task-social/cue/runtype-pain/sch/h024.png	n/a	n/a	n/a	n/a	n/a	n/a	n/a	n/a
378.9	1.46	pain	expectrating	12	high_cue	n/a	180.0	Strongest sensation of any kind	180.0	Strongest sensation of any kind	0.55	0.91	task-social/cue/runtype-pain/sch/h024.png	n/a	n/a	n/a	n/a	n/a	n/a	n/a	n/a
385.42	12.359999999999957	pain	stimulus	12	high_cue	med_stim	n/a	n/a	n/a	n/a	n/a	n/a	n/a	385.42	389.18	394.18	397.79	success	n/a	n/a	n/a
395.01	1.05	pain	outcomerating	12	high_cue	med_stim	180.0	Strongest sensation of any kind	180.0	Strongest sensation of any kind	0.5	0.55	task-social/outcomerating/task-pain_scale.png	n/a	n/a	n/a	n/a	success	n/a	n/a	n/a
