onset	duration	run_type	trial_type	trial_index	cue	stimulusintensity	rating_value	rating_glmslabel	rating_value_fillna	rating_glmslabel_fillna	rating_mouseonset	rating_mousedur	stim_file_TODO	pain_onset_ttl1	pain_onset_ttl2	pain_onset_ttl3	pain_onset_ttl4	pain_stimulus_delivery_success	cognitive_correct_response	cognitive_participant_response	cognitive_response_accuracy
5.49	0.98	cognitive	cue	1	low_cue	n/a	n/a	n/a	n/a	n/a	n/a	n/a	task-social/cue/runtype-cognitive/scl/l029.png	n/a	n/a	n/a	n/a	n/a	n/a	n/a	n/a
7.51	1.27	cognitive	expectrating	1	low_cue	n/a	0.0	n/a	0.0	n/a	0.65	0.62	task-social/cue/runtype-cognitive/scl/l029.png	n/a	n/a	n/a	n/a	n/a	n/a	n/a	n/a
18.2	5.0	cognitive	stimulus	1	low_cue	med_stim	n/a	n/a	n/a	n/a	n/a	n/a	task-social/stim/runtype-cognitive/43_100_R.jpg	n/a	n/a	n/a	n/a	n/a	diff	diff	True
28.08	3.33	cognitive	outcomerating	1	low_cue	med_stim	14.71	Moderate	14.71	Moderate	0.65	0.62	task-social/outcomerating/task-cognitive_scale.png	n/a	n/a	n/a	n/a	n/a	n/a	n/a	n/a
33.79	0.99	cognitive	cue	2	low_cue	n/a	n/a	n/a	n/a	n/a	n/a	n/a	task-social/cue/runtype-cognitive/scl/l025.png	n/a	n/a	n/a	n/a	n/a	n/a	n/a	n/a
36.09	n/a	cognitive	expectrating	2	low_cue	n/a	n/a	n/a	8.55	Weak	1.35	3.93	task-social/cue/runtype-cognitive/scl/l025.png	n/a	n/a	n/a	n/a	n/a	n/a	n/a	n/a
49.59	5.0	cognitive	stimulus	2	low_cue	low_stim	n/a	n/a	n/a	n/a	n/a	n/a	task-social/stim/runtype-cognitive/48_50_R.jpg	n/a	n/a	n/a	n/a	n/a	diff	diff	True
58.49	2.15	cognitive	outcomerating	2	low_cue	low_stim	15.09	Moderate	15.09	Moderate	1.35	3.93	task-social/outcomerating/task-cognitive_scale.png	n/a	n/a	n/a	n/a	n/a	n/a	n/a	n/a
74.18	0.99	cognitive	cue	3	low_cue	n/a	n/a	n/a	n/a	n/a	n/a	n/a	task-social/cue/runtype-cognitive/scl/l039.png	n/a	n/a	n/a	n/a	n/a	n/a	n/a	n/a
76.48	2.03	cognitive	expectrating	3	low_cue	n/a	14.43	Moderate	14.43	Moderate	0.63	1.4	task-social/cue/runtype-cognitive/scl/l039.png	n/a	n/a	n/a	n/a	n/a	n/a	n/a	n/a
87.29	5.0	cognitive	stimulus	3	low_cue	high_stim	n/a	n/a	n/a	n/a	n/a	n/a	task-social/stim/runtype-cognitive/33_150.jpg	n/a	n/a	n/a	n/a	n/a	same	same	True
96.39	2.67	cognitive	outcomerating	3	low_cue	high_stim	3.26	Weak	3.26	Weak	0.63	1.4	task-social/outcomerating/task-cognitive_scale.png	n/a	n/a	n/a	n/a	n/a	n/a	n/a	n/a
103.8	0.98	cognitive	cue	4	high_cue	n/a	n/a	n/a	n/a	n/a	n/a	n/a	task-social/cue/runtype-cognitive/sch/h038.png	n/a	n/a	n/a	n/a	n/a	n/a	n/a	n/a
106.6	1.42	cognitive	expectrating	4	high_cue	n/a	37.19	Strong	37.19	Strong	0.38	1.03	task-social/cue/runtype-cognitive/sch/h038.png	n/a	n/a	n/a	n/a	n/a	n/a	n/a	n/a
115.18	5.0	cognitive	stimulus	4	high_cue	low_stim	n/a	n/a	n/a	n/a	n/a	n/a	task-social/stim/runtype-cognitive/33_50_R.jpg	n/a	n/a	n/a	n/a	n/a	diff	diff	True
127.39	1.79	cognitive	outcomerating	4	high_cue	low_stim	16.34	Moderate	16.34	Moderate	0.38	1.03	task-social/outcomerating/task-cognitive_scale.png	n/a	n/a	n/a	n/a	n/a	n/a	n/a	n/a
138.29	0.98	cognitive	cue	5	high_cue	n/a	n/a	n/a	n/a	n/a	n/a	n/a	task-social/cue/runtype-cognitive/sch/h021.png	n/a	n/a	n/a	n/a	n/a	n/a	n/a	n/a
139.99	1.75	cognitive	expectrating	5	high_cue	n/a	32.54	Strong	32.54	Strong	0.32	1.44	task-social/cue/runtype-cognitive/sch/h021.png	n/a	n/a	n/a	n/a	n/a	n/a	n/a	n/a
155.0	5.0	cognitive	stimulus	5	high_cue	med_stim	n/a	n/a	n/a	n/a	n/a	n/a	task-social/stim/runtype-cognitive/22_100_R.jpg	n/a	n/a	n/a	n/a	n/a	diff	diff	True
167.2	2.25	cognitive	outcomerating	5	high_cue	med_stim	0.93	No sensation	0.93	No sensation	0.32	1.44	task-social/outcomerating/task-cognitive_scale.png	n/a	n/a	n/a	n/a	n/a	n/a	n/a	n/a
178.09	0.98	cognitive	cue	6	high_cue	n/a	n/a	n/a	n/a	n/a	n/a	n/a	task-social/cue/runtype-cognitive/sch/h045.png	n/a	n/a	n/a	n/a	n/a	n/a	n/a	n/a
179.89	1.86	cognitive	expectrating	6	high_cue	n/a	35.86	Strong	35.86	Strong	0.43	1.42	task-social/cue/runtype-cognitive/sch/h045.png	n/a	n/a	n/a	n/a	n/a	n/a	n/a	n/a
188.49	5.0	cognitive	stimulus	6	high_cue	high_stim	n/a	n/a	n/a	n/a	n/a	n/a	task-social/stim/runtype-cognitive/45_150.jpg	n/a	n/a	n/a	n/a	n/a	same	same	True
200.7	1.52	cognitive	outcomerating	6	high_cue	high_stim	35.35	Strong	35.35	Strong	0.43	1.42	task-social/outcomerating/task-cognitive_scale.png	n/a	n/a	n/a	n/a	n/a	n/a	n/a	n/a
206.68	0.99	cognitive	cue	7	high_cue	n/a	n/a	n/a	n/a	n/a	n/a	n/a	task-social/cue/runtype-cognitive/sch/h012.png	n/a	n/a	n/a	n/a	n/a	n/a	n/a	n/a
209.68	2.65	cognitive	expectrating	7	high_cue	n/a	51.84	Strong	51.84	Strong	0.85	1.8	task-social/cue/runtype-cognitive/sch/h012.png	n/a	n/a	n/a	n/a	n/a	n/a	n/a	n/a
219.29	5.0	cognitive	stimulus	7	high_cue	low_stim	n/a	n/a	n/a	n/a	n/a	n/a	task-social/stim/runtype-cognitive/34_50_R.jpg	n/a	n/a	n/a	n/a	n/a	diff	diff	True
235.79	2.3	cognitive	outcomerating	7	high_cue	low_stim	25.32	Moderate	25.32	Moderate	0.85	1.8	task-social/outcomerating/task-cognitive_scale.png	n/a	n/a	n/a	n/a	n/a	n/a	n/a	n/a
241.98	0.99	cognitive	cue	8	low_cue	n/a	n/a	n/a	n/a	n/a	n/a	n/a	task-social/cue/runtype-cognitive/scl/l045.png	n/a	n/a	n/a	n/a	n/a	n/a	n/a	n/a
244.7	1.43	cognitive	expectrating	8	low_cue	n/a	0.0	n/a	0.0	n/a	0.75	0.68	task-social/cue/runtype-cognitive/scl/l045.png	n/a	n/a	n/a	n/a	n/a	n/a	n/a	n/a
253.58	5.0	cognitive	stimulus	8	low_cue	high_stim	n/a	n/a	n/a	n/a	n/a	n/a	task-social/stim/runtype-cognitive/17_150.jpg	n/a	n/a	n/a	n/a	n/a	same	same	True
261.6	3.86	cognitive	outcomerating	8	low_cue	high_stim	29.03	Strong	29.03	Strong	0.75	0.68	task-social/outcomerating/task-cognitive_scale.png	n/a	n/a	n/a	n/a	n/a	n/a	n/a	n/a
270.79	0.98	cognitive	cue	9	high_cue	n/a	n/a	n/a	n/a	n/a	n/a	n/a	task-social/cue/runtype-cognitive/sch/h029.png	n/a	n/a	n/a	n/a	n/a	n/a	n/a	n/a
273.79	1.25	cognitive	expectrating	9	high_cue	n/a	55.73	Strong	55.73	Strong	0.38	0.87	task-social/cue/runtype-cognitive/sch/h029.png	n/a	n/a	n/a	n/a	n/a	n/a	n/a	n/a
281.69	5.0	cognitive	stimulus	9	high_cue	high_stim	n/a	n/a	n/a	n/a	n/a	n/a	task-social/stim/runtype-cognitive/43_150.jpg	n/a	n/a	n/a	n/a	n/a	same	same	True
300.49	1.7	cognitive	outcomerating	9	high_cue	high_stim	56.5	Strong	56.5	Strong	0.38	0.87	task-social/outcomerating/task-cognitive_scale.png	n/a	n/a	n/a	n/a	n/a	n/a	n/a	n/a
306.49	0.99	cognitive	cue	10	low_cue	n/a	n/a	n/a	n/a	n/a	n/a	n/a	task-social/cue/runtype-cognitive/scl/l001.png	n/a	n/a	n/a	n/a	n/a	n/a	n/a	n/a
308.79	1.44	cognitive	expectrating	10	low_cue	n/a	10.18	Moderate	10.18	Moderate	0.4	1.04	task-social/cue/runtype-cognitive/scl/l001.png	n/a	n/a	n/a	n/a	n/a	n/a	n/a	n/a
318.39	5.0	cognitive	stimulus	10	low_cue	med_stim	n/a	n/a	n/a	n/a	n/a	n/a	task-social/stim/runtype-cognitive/44_100.jpg	n/a	n/a	n/a	n/a	n/a	same	diff	False
327.3	1.93	cognitive	outcomerating	10	low_cue	med_stim	15.32	Moderate	15.32	Moderate	0.4	1.04	task-social/outcomerating/task-cognitive_scale.png	n/a	n/a	n/a	n/a	n/a	n/a	n/a	n/a
333.48	0.99	cognitive	cue	11	high_cue	n/a	n/a	n/a	n/a	n/a	n/a	n/a	task-social/cue/runtype-cognitive/sch/h036.png	n/a	n/a	n/a	n/a	n/a	n/a	n/a	n/a
336.48	1.45	cognitive	expectrating	11	high_cue	n/a	51.27	Strong	51.27	Strong	0.38	1.07	task-social/cue/runtype-cognitive/sch/h036.png	n/a	n/a	n/a	n/a	n/a	n/a	n/a	n/a
348.79	5.0	cognitive	stimulus	11	high_cue	med_stim	n/a	n/a	n/a	n/a	n/a	n/a	task-social/stim/runtype-cognitive/44_100_R.jpg	n/a	n/a	n/a	n/a	n/a	diff	diff	True
361.19	3.44	cognitive	outcomerating	11	high_cue	med_stim	16.61	Moderate	16.61	Moderate	0.38	1.07	task-social/outcomerating/task-cognitive_scale.png	n/a	n/a	n/a	n/a	n/a	n/a	n/a	n/a
372.08	1.0	cognitive	cue	12	low_cue	n/a	n/a	n/a	n/a	n/a	n/a	n/a	task-social/cue/runtype-cognitive/scl/l051.png	n/a	n/a	n/a	n/a	n/a	n/a	n/a	n/a
375.1	1.7	cognitive	expectrating	12	low_cue	n/a	12.86	Moderate	12.86	Moderate	0.45	1.25	task-social/cue/runtype-cognitive/scl/l051.png	n/a	n/a	n/a	n/a	n/a	n/a	n/a	n/a
385.68	5.0	cognitive	stimulus	12	low_cue	low_stim	n/a	n/a	n/a	n/a	n/a	n/a	task-social/stim/runtype-cognitive/43_50_R.jpg	n/a	n/a	n/a	n/a	n/a	diff	diff	True
394.7	2.3	cognitive	outcomerating	12	low_cue	low_stim	17.85	Moderate	17.85	Moderate	0.45	1.25	task-social/outcomerating/task-cognitive_scale.png	n/a	n/a	n/a	n/a	n/a	n/a	n/a	n/a
