onset	duration	subtask_type	question	event_type	participant_response	normative_response	response_accuracy	stim_file	trial_index
0.054	2.067	tomspunt	reaching?	block_question_presentation	n/a	n/a	n/a	n/a	1
5.015	0.743	tomspunt	reaching?	how_hand	yes	yes	correct	task-fractional/runtype-tomspunt/H_007.jpg	1
6.066	0.668	tomspunt	reaching?	how_hand	no	no	correct	task-fractional/runtype-tomspunt/H_532.jpg	2
7.049	0.826	tomspunt	reaching?	how_hand	yes	yes	correct	task-fractional/runtype-tomspunt/H_474.jpg	3
8.183	0.825	tomspunt	reaching?	how_hand	no	no	correct	task-fractional/runtype-tomspunt/H_438.jpg	4
9.317	0.725	tomspunt	reaching?	how_hand	yes	yes	correct	task-fractional/runtype-tomspunt/H_364.jpg	5
10.35	0.752	tomspunt	reaching?	how_hand	yes	yes	correct	task-fractional/runtype-tomspunt/H_006.jpg	6
11.418	0.756	tomspunt	reaching?	how_hand	yes	yes	correct	task-fractional/runtype-tomspunt/H_003.jpg	7
12.485	0.768	tomspunt	reaching?	how_hand	no	no	correct	task-fractional/runtype-tomspunt/H_132.jpg	8
17.544	2.101	tomspunt	healthy?	block_question_presentation	n/a	n/a	n/a	n/a	9
22.555	0.919	tomspunt	healthy?	why_hand	yes	yes	correct	task-fractional/runtype-tomspunt/H_627.jpg	9
23.789	1.435	tomspunt	healthy?	why_hand	yes	yes	correct	task-fractional/runtype-tomspunt/H_438.jpg	10
25.539	1.702	tomspunt	healthy?	why_hand	yes	yes	correct	task-fractional/runtype-tomspunt/H_364.jpg	11
27.557	0.851	tomspunt	healthy?	why_hand	no	no	correct	task-fractional/runtype-tomspunt/H_130.jpg	12
28.724	0.751	tomspunt	healthy?	why_hand	yes	yes	correct	task-fractional/runtype-tomspunt/H_362.jpg	13
29.791	0.918	tomspunt	healthy?	why_hand	no	no	correct	task-fractional/runtype-tomspunt/H_007.jpg	14
31.025	0.585	tomspunt	healthy?	why_hand	yes	yes	correct	task-fractional/runtype-tomspunt/H_167.jpg	15
31.925	1.185	tomspunt	healthy?	why_hand	no	no	correct	task-fractional/runtype-tomspunt/H_019.jpg	16
36.651	2.101	tomspunt	admiring?	block_question_presentation	n/a	n/a	n/a	n/a	17
41.662	0.552	tomspunt	admiring?	why_face	yes	yes	correct	task-fractional/runtype-tomspunt/F_779.jpg	17
42.529	0.661	tomspunt	admiring?	why_face	yes	yes	correct	task-fractional/runtype-tomspunt/F_593.jpg	18
43.496	0.651	tomspunt	admiring?	why_face	no	no	correct	task-fractional/runtype-tomspunt/F_110.jpg	19
44.463	0.602	tomspunt	admiring?	why_face	yes	yes	correct	task-fractional/runtype-tomspunt/F_590.jpg	20
45.38	1.169	tomspunt	admiring?	why_face	no	no	correct	task-fractional/runtype-tomspunt/F_692.jpg	21
46.864	0.502	tomspunt	admiring?	why_face	yes	yes	correct	task-fractional/runtype-tomspunt/F_759.jpg	22
47.681	0.585	tomspunt	admiring?	why_face	yes	yes	correct	task-fractional/runtype-tomspunt/F_648.jpg	23
48.581	1.009	tomspunt	admiring?	why_face	no	no	correct	task-fractional/runtype-tomspunt/F_129.jpg	24
55.608	2.101	tomspunt	smiling?	block_question_presentation	n/a	n/a	n/a	n/a	25
60.619	0.539	tomspunt	smiling?	how_face	yes	yes	correct	task-fractional/runtype-tomspunt/F_139.jpg	25
61.47	0.621	tomspunt	smiling?	how_face	no	no	correct	task-fractional/runtype-tomspunt/F_712.jpg	26
62.403	0.604	tomspunt	smiling?	how_face	yes	yes	correct	task-fractional/runtype-tomspunt/F_695.jpg	27
63.32	0.751	tomspunt	smiling?	how_face	no	no	correct	task-fractional/runtype-tomspunt/F_758.jpg	28
64.387	0.487	tomspunt	smiling?	how_face	yes	yes	correct	task-fractional/runtype-tomspunt/F_083.jpg	29
65.188	0.603	tomspunt	smiling?	how_face	yes	yes	correct	task-fractional/runtype-tomspunt/F_759.jpg	30
66.105	0.57	tomspunt	smiling?	how_face	no	no	correct	task-fractional/runtype-tomspunt/F_412.jpg	31
66.988	0.535	tomspunt	smiling?	how_face	yes	yes	correct	task-fractional/runtype-tomspunt/F_593.jpg	32
73.148	2.101	tomspunt	lifting?	block_question_presentation	n/a	n/a	n/a	n/a	33
78.159	0.985	tomspunt	lifting?	how_hand	yes	yes	correct	task-fractional/runtype-tomspunt/H_136.jpg	33
79.46	0.935	tomspunt	lifting?	how_hand	no	no	correct	task-fractional/runtype-tomspunt/H_038.jpg	34
80.71	1.035	tomspunt	lifting?	how_hand	yes	yes	correct	task-fractional/runtype-tomspunt/H_189.jpg	35
82.061	0.797	tomspunt	lifting?	how_hand	no	no	correct	task-fractional/runtype-tomspunt/H_077.jpg	36
83.161	0.985	tomspunt	lifting?	how_hand	yes	yes	correct	task-fractional/runtype-tomspunt/H_443.jpg	37
84.461	0.668	tomspunt	lifting?	how_hand	no	no	correct	task-fractional/runtype-tomspunt/H_012.jpg	38
85.445	0.569	tomspunt	lifting?	how_hand	yes	yes	correct	task-fractional/runtype-tomspunt/H_362.jpg	39
86.329	0.652	tomspunt	lifting?	how_hand	yes	yes	correct	task-fractional/runtype-tomspunt/H_170.jpg	40
95.623	2.101	tomspunt	helping?	block_question_presentation	n/a	n/a	n/a	n/a	41
100.634	0.84	tomspunt	helping?	why_hand	yes	yes	correct	task-fractional/runtype-tomspunt/H_077.jpg	41
101.785	0.656	tomspunt	helping?	why_hand	yes	yes	correct	task-fractional/runtype-tomspunt/H_349.jpg	42
102.752	0.601	tomspunt	helping?	why_hand	yes	yes	correct	task-fractional/runtype-tomspunt/H_474.jpg	43
103.669	1.055	tomspunt	helping?	why_hand	yes	yes	correct	task-fractional/runtype-tomspunt/H_024.jpg	44
105.036	0.822	tomspunt	helping?	why_hand	no	no	correct	task-fractional/runtype-tomspunt/H_012.jpg	45
106.17	1.038	tomspunt	helping?	why_hand	no	no	correct	task-fractional/runtype-tomspunt/H_159.jpg	46
107.52	0.754	tomspunt	helping?	why_hand	yes	yes	correct	task-fractional/runtype-tomspunt/H_111.jpg	47
108.587	0.937	tomspunt	helping?	why_hand	no	no	correct	task-fractional/runtype-tomspunt/H_091.jpg	48
113.497	2.101	tomspunt	proud?	block_question_presentation	n/a	n/a	n/a	n/a	49
118.507	0.935	tomspunt	proud?	why_face	yes	yes	correct	task-fractional/runtype-tomspunt/F_598.jpg	49
119.758	0.666	tomspunt	proud?	why_face	no	no	correct	task-fractional/runtype-tomspunt/F_760.jpg	50
120.725	0.668	tomspunt	proud?	why_face	yes	yes	correct	task-fractional/runtype-tomspunt/F_582.jpg	51
121.709	0.669	tomspunt	proud?	why_face	no	no	correct	task-fractional/runtype-tomspunt/F_412.jpg	52
122.692	0.832	tomspunt	proud?	why_face	yes	yes	correct	task-fractional/runtype-tomspunt/F_083.jpg	53
123.826	1.119	tomspunt	proud?	why_face	no	no	correct	task-fractional/runtype-tomspunt/F_776.jpg	54
125.26	0.719	tomspunt	proud?	why_face	yes	yes	correct	task-fractional/runtype-tomspunt/F_618.jpg	55
126.294	0.985	tomspunt	proud?	why_face	yes	yes	correct	task-fractional/runtype-tomspunt/F_695.jpg	56
131.037	2.101	tomspunt	looking-to-side?	block_question_presentation	n/a	n/a	n/a	n/a	57
136.047	0.818	tomspunt	looking-to-side?	how_face	yes	yes	correct	task-fractional/runtype-tomspunt/F_590.jpg	57
137.181	0.718	tomspunt	looking-to-side?	how_face	yes	yes	correct	task-fractional/runtype-tomspunt/F_433.jpg	58
138.215	0.543	tomspunt	looking-to-side?	how_face	yes	yes	correct	task-fractional/runtype-tomspunt/F_716.jpg	59
139.065	0.751	tomspunt	looking-to-side?	how_face	yes	no	incorrect	task-fractional/runtype-tomspunt/F_779.jpg	60
140.132	0.976	tomspunt	looking-to-side?	how_face	yes	yes	correct	task-fractional/runtype-tomspunt/F_760.jpg	61
141.416	1.308	tomspunt	looking-to-side?	how_face	no	no	correct	task-fractional/runtype-tomspunt/F_111.jpg	62
143.033	1.002	tomspunt	looking-to-side?	how_face	no	yes	incorrect	task-fractional/runtype-tomspunt/F_110.jpg	63
144.35	0.801	tomspunt	looking-to-side?	how_face	no	no	correct	task-fractional/runtype-tomspunt/F_798.jpg	64
150.144	2.101	tomspunt	argument?	block_question_presentation	n/a	n/a	n/a	n/a	65
155.154	0.786	tomspunt	argument?	why_face	yes	yes	correct	task-fractional/runtype-tomspunt/F_716.jpg	65
156.255	0.702	tomspunt	argument?	why_face	no	no	correct	task-fractional/runtype-tomspunt/F_139.jpg	66
157.272	0.685	tomspunt	argument?	why_face	yes	yes	correct	task-fractional/runtype-tomspunt/F_712.jpg	67
158.272	0.835	tomspunt	argument?	why_face	no	no	correct	task-fractional/runtype-tomspunt/F_433.jpg	68
159.423	0.701	tomspunt	argument?	why_face	yes	yes	correct	task-fractional/runtype-tomspunt/F_403.jpg	69
160.44	0.751	tomspunt	argument?	why_face	no	no	correct	task-fractional/runtype-tomspunt/F_844.jpg	70
161.507	0.601	tomspunt	argument?	why_face	yes	yes	correct	task-fractional/runtype-tomspunt/F_743.jpg	71
162.424	0.685	tomspunt	argument?	why_face	yes	yes	correct	task-fractional/runtype-tomspunt/F_758.jpg	72
167.984	2.101	tomspunt	open-mouth?	block_question_presentation	n/a	n/a	n/a	n/a	73
172.994	0.496	tomspunt	open-mouth?	how_face	yes	yes	correct	task-fractional/runtype-tomspunt/F_844.jpg	73
173.795	0.485	tomspunt	open-mouth?	how_face	yes	yes	correct	task-fractional/runtype-tomspunt/F_776.jpg	74
174.595	0.835	tomspunt	open-mouth?	how_face	no	no	correct	task-fractional/runtype-tomspunt/F_544.jpg	75
175.745	0.462	tomspunt	open-mouth?	how_face	yes	yes	correct	task-fractional/runtype-tomspunt/F_692.jpg	76
176.512	0.511	tomspunt	open-mouth?	how_face	no	no	correct	task-fractional/runtype-tomspunt/F_584.jpg	77
177.329	0.428	tomspunt	open-mouth?	how_face	yes	yes	correct	task-fractional/runtype-tomspunt/F_403.jpg	78
178.063	0.511	tomspunt	open-mouth?	how_face	yes	yes	correct	task-fractional/runtype-tomspunt/F_086.jpg	79
178.88	0.485	tomspunt	open-mouth?	how_face	no	no	correct	task-fractional/runtype-tomspunt/F_648.jpg	80
185.874	2.101	tomspunt	pressing-button?	block_question_presentation	n/a	n/a	n/a	n/a	81
190.884	0.54	tomspunt	pressing-button?	how_hand	yes	yes	correct	task-fractional/runtype-tomspunt/H_019.jpg	81
191.735	0.622	tomspunt	pressing-button?	how_hand	no	no	correct	task-fractional/runtype-tomspunt/H_024.jpg	82
192.668	0.572	tomspunt	pressing-button?	how_hand	no	no	correct	task-fractional/runtype-tomspunt/H_130.jpg	83
193.552	0.552	tomspunt	pressing-button?	how_hand	yes	yes	correct	task-fractional/runtype-tomspunt/H_502.jpg	84
194.419	0.588	tomspunt	pressing-button?	how_hand	no	no	correct	task-fractional/runtype-tomspunt/H_261.jpg	85
195.319	0.755	tomspunt	pressing-button?	how_hand	yes	yes	correct	task-fractional/runtype-tomspunt/H_332.jpg	86
196.387	0.57	tomspunt	pressing-button?	how_hand	yes	yes	correct	task-fractional/runtype-tomspunt/H_126.jpg	87
197.27	0.637	tomspunt	pressing-button?	how_hand	yes	yes	correct	task-fractional/runtype-tomspunt/H_483.jpg	88
203.664	2.101	tomspunt	competing?	block_question_presentation	n/a	n/a	n/a	n/a	89
208.674	0.751	tomspunt	competing?	why_hand	yes	yes	correct	task-fractional/runtype-tomspunt/H_261.jpg	89
209.742	0.535	tomspunt	competing?	why_hand	no	no	correct	task-fractional/runtype-tomspunt/H_483.jpg	90
210.592	0.569	tomspunt	competing?	why_hand	yes	yes	correct	task-fractional/runtype-tomspunt/H_132.jpg	91
211.475	0.715	tomspunt	competing?	why_hand	no	no	correct	task-fractional/runtype-tomspunt/H_126.jpg	92
212.493	0.735	tomspunt	competing?	why_hand	yes	yes	correct	task-fractional/runtype-tomspunt/H_136.jpg	93
213.543	0.585	tomspunt	competing?	why_hand	no	no	correct	task-fractional/runtype-tomspunt/H_502.jpg	94
214.443	0.585	tomspunt	competing?	why_hand	yes	yes	correct	task-fractional/runtype-tomspunt/H_003.jpg	95
215.344	0.502	tomspunt	competing?	why_hand	yes	yes	correct	task-fractional/runtype-tomspunt/H_170.jpg	96
221.737	2.084	tomspunt	self-doubt?	block_question_presentation	n/a	n/a	n/a	n/a	97
226.731	0.676	tomspunt	self-doubt?	why_face	yes	yes	correct	task-fractional/runtype-tomspunt/F_544.jpg	97
227.715	0.501	tomspunt	self-doubt?	why_face	no	no	correct	task-fractional/runtype-tomspunt/F_086.jpg	98
228.532	0.459	tomspunt	self-doubt?	why_face	yes	yes	correct	task-fractional/runtype-tomspunt/F_798.jpg	99
229.299	0.552	tomspunt	self-doubt?	why_face	yes	yes	correct	task-fractional/runtype-tomspunt/F_111.jpg	100
230.166	0.585	tomspunt	self-doubt?	why_face	no	no	correct	task-fractional/runtype-tomspunt/F_774.jpg	101
231.066	0.752	tomspunt	self-doubt?	why_face	yes	yes	correct	task-fractional/runtype-tomspunt/F_754.jpg	102
232.133	0.752	tomspunt	self-doubt?	why_face	no	no	correct	task-fractional/runtype-tomspunt/F_128.jpg	103
233.2	0.451	tomspunt	self-doubt?	why_face	yes	yes	correct	task-fractional/runtype-tomspunt/F_584.jpg	104
240.777	2.101	tomspunt	looking-at-camera?	block_question_presentation	n/a	n/a	n/a	n/a	105
245.788	0.519	tomspunt	looking-at-camera?	how_face	yes	yes	correct	task-fractional/runtype-tomspunt/F_128.jpg	105
246.622	0.436	tomspunt	looking-at-camera?	how_face	yes	yes	correct	task-fractional/runtype-tomspunt/F_618.jpg	106
247.372	0.485	tomspunt	looking-at-camera?	how_face	yes	yes	correct	task-fractional/runtype-tomspunt/F_598.jpg	107
248.173	0.502	tomspunt	looking-at-camera?	how_face	no	no	correct	task-fractional/runtype-tomspunt/F_743.jpg	108
248.989	0.451	tomspunt	looking-at-camera?	how_face	yes	yes	correct	task-fractional/runtype-tomspunt/F_774.jpg	109
249.756	0.735	tomspunt	looking-at-camera?	how_face	no	no	correct	task-fractional/runtype-tomspunt/F_582.jpg	110
250.807	0.585	tomspunt	looking-at-camera?	how_face	no	no	correct	task-fractional/runtype-tomspunt/F_754.jpg	111
251.707	0.568	tomspunt	looking-at-camera?	how_face	yes	yes	correct	task-fractional/runtype-tomspunt/F_129.jpg	112
259.568	2.101	tomspunt	both-hands?	block_question_presentation	n/a	n/a	n/a	n/a	113
264.579	0.929	tomspunt	both-hands?	how_hand	yes	yes	correct	task-fractional/runtype-tomspunt/H_167.jpg	113
265.812	0.835	tomspunt	both-hands?	how_hand	no	no	correct	task-fractional/runtype-tomspunt/H_091.jpg	114
266.963	0.751	tomspunt	both-hands?	how_hand	no	no	correct	task-fractional/runtype-tomspunt/H_627.jpg	115
268.03	0.718	tomspunt	both-hands?	how_hand	yes	yes	correct	task-fractional/runtype-tomspunt/H_027.jpg	116
269.064	0.735	tomspunt	both-hands?	how_hand	yes	yes	correct	task-fractional/runtype-tomspunt/H_111.jpg	117
270.114	0.702	tomspunt	both-hands?	how_hand	no	no	correct	task-fractional/runtype-tomspunt/H_159.jpg	118
271.131	1.043	tomspunt	both-hands?	how_hand	yes	yes	correct	task-fractional/runtype-tomspunt/H_581.jpg	119
272.482	0.575	tomspunt	both-hands?	how_hand	yes	yes	correct	task-fractional/runtype-tomspunt/H_349.jpg	120
278.358	2.101	tomspunt	self-protection?	block_question_presentation	n/a	n/a	n/a	n/a	121
283.369	0.705	tomspunt	self-protection?	why_hand	yes	yes	correct	task-fractional/runtype-tomspunt/H_443.jpg	121
284.386	0.718	tomspunt	self-protection?	why_hand	no	no	correct	task-fractional/runtype-tomspunt/H_006.jpg	122
285.42	0.571	tomspunt	self-protection?	why_hand	yes	yes	correct	task-fractional/runtype-tomspunt/H_581.jpg	123
286.303	0.868	tomspunt	self-protection?	why_hand	no	no	correct	task-fractional/runtype-tomspunt/H_532.jpg	124
287.487	1.053	tomspunt	self-protection?	why_hand	yes	yes	correct	task-fractional/runtype-tomspunt/H_027.jpg	125
288.854	0.787	tomspunt	self-protection?	why_hand	yes	yes	correct	task-fractional/runtype-tomspunt/H_038.jpg	126
289.955	0.669	tomspunt	self-protection?	why_hand	no	no	correct	task-fractional/runtype-tomspunt/H_332.jpg	127
290.938	0.719	tomspunt	self-protection?	why_hand	yes	yes	correct	task-fractional/runtype-tomspunt/H_189.jpg	128
299.849	2.101	tomspunt	smiling?	block_question_presentation	n/a	n/a	n/a	n/a	129
304.86	0.534	tomspunt	smiling?	how_face	yes	yes	correct	task-fractional/runtype-tomspunt/F_759.jpg	129
305.711	0.585	tomspunt	smiling?	how_face	no	no	correct	task-fractional/runtype-tomspunt/F_412.jpg	130
306.611	0.535	tomspunt	smiling?	how_face	yes	yes	correct	task-fractional/runtype-tomspunt/F_593.jpg	131
307.461	0.663	tomspunt	smiling?	how_face	no	no	correct	task-fractional/runtype-tomspunt/F_712.jpg	132
308.428	0.519	tomspunt	smiling?	how_face	yes	yes	correct	task-fractional/runtype-tomspunt/F_695.jpg	133
309.262	0.618	tomspunt	smiling?	how_face	yes	yes	correct	task-fractional/runtype-tomspunt/F_139.jpg	134
310.196	0.502	tomspunt	smiling?	how_face	yes	yes	correct	task-fractional/runtype-tomspunt/F_083.jpg	135
311.013	0.602	tomspunt	smiling?	how_face	no	no	correct	task-fractional/runtype-tomspunt/F_758.jpg	136
317.639	2.101	tomspunt	admiring?	block_question_presentation	n/a	n/a	n/a	n/a	137
322.65	0.641	tomspunt	admiring?	why_face	yes	yes	correct	task-fractional/runtype-tomspunt/F_593.jpg	137
323.601	0.702	tomspunt	admiring?	why_face	no	no	correct	task-fractional/runtype-tomspunt/F_129.jpg	138
324.618	0.506	tomspunt	admiring?	why_face	yes	yes	correct	task-fractional/runtype-tomspunt/F_759.jpg	139
325.435	0.64	tomspunt	admiring?	why_face	no	no	correct	task-fractional/runtype-tomspunt/F_692.jpg	140
326.385	0.589	tomspunt	admiring?	why_face	yes	yes	correct	task-fractional/runtype-tomspunt/F_779.jpg	141
327.285	0.505	tomspunt	admiring?	why_face	yes	yes	correct	task-fractional/runtype-tomspunt/F_590.jpg	142
328.102	0.771	tomspunt	admiring?	why_face	yes	yes	correct	task-fractional/runtype-tomspunt/F_648.jpg	143
329.186	0.788	tomspunt	admiring?	why_face	no	no	correct	task-fractional/runtype-tomspunt/F_110.jpg	144
335.529	2.101	tomspunt	competing?	block_question_presentation	n/a	n/a	n/a	n/a	145
340.54	0.518	tomspunt	competing?	why_hand	yes	yes	correct	task-fractional/runtype-tomspunt/H_261.jpg	145
341.374	0.569	tomspunt	competing?	why_hand	yes	yes	correct	task-fractional/runtype-tomspunt/H_170.jpg	146
342.258	0.518	tomspunt	competing?	why_hand	no	no	correct	task-fractional/runtype-tomspunt/H_483.jpg	147
343.091	0.502	tomspunt	competing?	why_hand	yes	yes	correct	task-fractional/runtype-tomspunt/H_132.jpg	148
343.908	0.518	tomspunt	competing?	why_hand	yes	yes	correct	task-fractional/runtype-tomspunt/H_136.jpg	149
344.742	0.501	tomspunt	competing?	why_hand	yes	yes	correct	task-fractional/runtype-tomspunt/H_003.jpg	150
345.559	0.616	tomspunt	competing?	why_hand	no	no	correct	task-fractional/runtype-tomspunt/H_126.jpg	151
346.476	0.585	tomspunt	competing?	why_hand	no	no	correct	task-fractional/runtype-tomspunt/H_502.jpg	152
357.004	2.101	tomspunt	reaching?	block_question_presentation	n/a	n/a	n/a	n/a	153
362.015	0.652	tomspunt	reaching?	how_hand	yes	yes	correct	task-fractional/runtype-tomspunt/H_003.jpg	153
362.982	0.602	tomspunt	reaching?	how_hand	yes	yes	correct	task-fractional/runtype-tomspunt/H_364.jpg	154
363.899	0.591	tomspunt	reaching?	how_hand	no	no	correct	task-fractional/runtype-tomspunt/H_532.jpg	155
364.799	0.508	tomspunt	reaching?	how_hand	yes	yes	correct	task-fractional/runtype-tomspunt/H_006.jpg	156
365.616	0.707	tomspunt	reaching?	how_hand	no	no	correct	task-fractional/runtype-tomspunt/H_438.jpg	157
366.633	0.574	tomspunt	reaching?	how_hand	yes	yes	correct	task-fractional/runtype-tomspunt/H_007.jpg	158
367.517	0.774	tomspunt	reaching?	how_hand	no	yes	incorrect	task-fractional/runtype-tomspunt/H_474.jpg	159
368.601	0.923	tomspunt	reaching?	how_hand	no	no	correct	task-fractional/runtype-tomspunt/H_132.jpg	160
374.844	2.101	tomspunt	open-mouth?	block_question_presentation	n/a	n/a	n/a	n/a	161
379.855	0.469	tomspunt	open-mouth?	how_face	yes	yes	correct	task-fractional/runtype-tomspunt/F_403.jpg	161
380.639	0.485	tomspunt	open-mouth?	how_face	no	no	correct	task-fractional/runtype-tomspunt/F_648.jpg	162
381.439	0.451	tomspunt	open-mouth?	how_face	yes	yes	correct	task-fractional/runtype-tomspunt/F_776.jpg	163
382.206	0.468	tomspunt	open-mouth?	how_face	no	no	correct	task-fractional/runtype-tomspunt/F_584.jpg	164
382.989	0.501	tomspunt	open-mouth?	how_face	yes	yes	correct	task-fractional/runtype-tomspunt/F_844.jpg	165
383.806	0.501	tomspunt	open-mouth?	how_face	yes	yes	correct	task-fractional/runtype-tomspunt/F_692.jpg	166
384.623	0.519	tomspunt	open-mouth?	how_face	yes	yes	correct	task-fractional/runtype-tomspunt/F_086.jpg	167
385.457	0.618	tomspunt	open-mouth?	how_face	no	no	correct	task-fractional/runtype-tomspunt/F_544.jpg	168
393.518	2.101	tomspunt	argument?	block_question_presentation	n/a	n/a	n/a	n/a	169
398.529	0.445	tomspunt	argument?	why_face	yes	yes	correct	task-fractional/runtype-tomspunt/F_403.jpg	169
399.279	0.479	tomspunt	argument?	why_face	no	no	correct	task-fractional/runtype-tomspunt/F_844.jpg	170
400.062	0.461	tomspunt	argument?	why_face	yes	yes	correct	task-fractional/runtype-tomspunt/F_712.jpg	171
400.829	0.662	tomspunt	argument?	why_face	yes	yes	correct	task-fractional/runtype-tomspunt/F_758.jpg	172
401.796	0.528	tomspunt	argument?	why_face	no	no	correct	task-fractional/runtype-tomspunt/F_433.jpg	173
402.63	0.561	tomspunt	argument?	why_face	yes	yes	correct	task-fractional/runtype-tomspunt/F_716.jpg	174
403.497	0.844	tomspunt	argument?	why_face	no	no	correct	task-fractional/runtype-tomspunt/F_139.jpg	175
404.648	0.452	tomspunt	argument?	why_face	yes	yes	correct	task-fractional/runtype-tomspunt/F_743.jpg	176
411.741	2.101	tomspunt	helping?	block_question_presentation	n/a	n/a	n/a	n/a	177
416.752	0.822	tomspunt	helping?	why_hand	yes	yes	correct	task-fractional/runtype-tomspunt/H_024.jpg	177
417.886	0.555	tomspunt	helping?	why_hand	yes	yes	correct	task-fractional/runtype-tomspunt/H_349.jpg	178
418.753	0.855	tomspunt	helping?	why_hand	yes	yes	correct	task-fractional/runtype-tomspunt/H_077.jpg	179
419.92	0.654	tomspunt	helping?	why_hand	yes	yes	correct	task-fractional/runtype-tomspunt/H_474.jpg	180
420.887	0.688	tomspunt	helping?	why_hand	no	no	correct	task-fractional/runtype-tomspunt/H_091.jpg	181
421.887	0.671	tomspunt	helping?	why_hand	no	no	correct	task-fractional/runtype-tomspunt/H_159.jpg	182
422.871	0.587	tomspunt	helping?	why_hand	yes	yes	correct	task-fractional/runtype-tomspunt/H_111.jpg	183
423.771	0.703	tomspunt	helping?	why_hand	no	no	correct	task-fractional/runtype-tomspunt/H_012.jpg	184
429.815	2.101	tomspunt	both-hands?	block_question_presentation	n/a	n/a	n/a	n/a	185
434.825	0.585	tomspunt	both-hands?	how_hand	yes	yes	correct	task-fractional/runtype-tomspunt/H_111.jpg	185
435.726	0.519	tomspunt	both-hands?	how_hand	yes	yes	correct	task-fractional/runtype-tomspunt/H_027.jpg	186
436.559	0.501	tomspunt	both-hands?	how_hand	no	no	correct	task-fractional/runtype-tomspunt/H_091.jpg	187
437.376	0.485	tomspunt	both-hands?	how_hand	yes	yes	correct	task-fractional/runtype-tomspunt/H_167.jpg	188
438.177	0.685	tomspunt	both-hands?	how_hand	yes	yes	correct	task-fractional/runtype-tomspunt/H_581.jpg	189
439.177	0.585	tomspunt	both-hands?	how_hand	no	no	correct	task-fractional/runtype-tomspunt/H_159.jpg	190
440.077	0.502	tomspunt	both-hands?	how_hand	yes	yes	correct	task-fractional/runtype-tomspunt/H_349.jpg	191
440.894	0.613	tomspunt	both-hands?	how_hand	no	no	correct	task-fractional/runtype-tomspunt/H_627.jpg	192
447.321	2.101	tomspunt	healthy?	block_question_presentation	n/a	n/a	n/a	n/a	193
452.332	0.735	tomspunt	healthy?	why_hand	yes	yes	correct	task-fractional/runtype-tomspunt/H_438.jpg	193
453.382	0.501	tomspunt	healthy?	why_hand	yes	yes	correct	task-fractional/runtype-tomspunt/H_364.jpg	194
454.199	0.601	tomspunt	healthy?	why_hand	yes	yes	correct	task-fractional/runtype-tomspunt/H_362.jpg	195
455.116	0.635	tomspunt	healthy?	why_hand	no	no	correct	task-fractional/runtype-tomspunt/H_019.jpg	196
456.067	0.569	tomspunt	healthy?	why_hand	yes	yes	correct	task-fractional/runtype-tomspunt/H_167.jpg	197
456.95	0.574	tomspunt	healthy?	why_hand	no	no	correct	task-fractional/runtype-tomspunt/H_007.jpg	198
457.834	0.64	tomspunt	healthy?	why_hand	yes	yes	correct	task-fractional/runtype-tomspunt/H_627.jpg	199
458.784	0.723	tomspunt	healthy?	why_hand	no	no	correct	task-fractional/runtype-tomspunt/H_130.jpg	200
466.378	2.101	tomspunt	pressing-button?	block_question_presentation	n/a	n/a	n/a	n/a	201
471.389	0.535	tomspunt	pressing-button?	how_hand	yes	yes	correct	task-fractional/runtype-tomspunt/H_126.jpg	201
472.239	0.568	tomspunt	pressing-button?	how_hand	no	no	correct	task-fractional/runtype-tomspunt/H_130.jpg	202
473.123	0.585	tomspunt	pressing-button?	how_hand	yes	yes	correct	task-fractional/runtype-tomspunt/H_483.jpg	203
474.023	0.551	tomspunt	pressing-button?	how_hand	no	no	correct	task-fractional/runtype-tomspunt/H_024.jpg	204
474.89	0.468	tomspunt	pressing-button?	how_hand	yes	yes	correct	task-fractional/runtype-tomspunt/H_332.jpg	205
475.674	0.719	tomspunt	pressing-button?	how_hand	yes	yes	correct	task-fractional/runtype-tomspunt/H_019.jpg	206
476.708	0.534	tomspunt	pressing-button?	how_hand	no	no	correct	task-fractional/runtype-tomspunt/H_261.jpg	207
477.558	0.468	tomspunt	pressing-button?	how_hand	yes	yes	correct	task-fractional/runtype-tomspunt/H_502.jpg	208
483.918	2.084	tomspunt	looking-at-camera?	block_question_presentation	n/a	n/a	n/a	n/a	209
488.912	0.579	tomspunt	looking-at-camera?	how_face	yes	yes	correct	task-fractional/runtype-tomspunt/F_618.jpg	209
489.796	0.502	tomspunt	looking-at-camera?	how_face	no	no	correct	task-fractional/runtype-tomspunt/F_754.jpg	210
490.613	0.511	tomspunt	looking-at-camera?	how_face	yes	yes	correct	task-fractional/runtype-tomspunt/F_129.jpg	211
491.43	0.568	tomspunt	looking-at-camera?	how_face	yes	yes	correct	task-fractional/runtype-tomspunt/F_598.jpg	212
492.314	0.544	tomspunt	looking-at-camera?	how_face	yes	yes	correct	task-fractional/runtype-tomspunt/F_128.jpg	213
493.164	0.594	tomspunt	looking-at-camera?	how_face	no	no	correct	task-fractional/runtype-tomspunt/F_582.jpg	214
494.064	0.426	tomspunt	looking-at-camera?	how_face	yes	yes	correct	task-fractional/runtype-tomspunt/F_774.jpg	215
494.798	0.643	tomspunt	looking-at-camera?	how_face	no	no	correct	task-fractional/runtype-tomspunt/F_743.jpg	216
502.875	2.101	tomspunt	self-doubt?	block_question_presentation	n/a	n/a	n/a	n/a	217
507.886	0.721	tomspunt	self-doubt?	why_face	yes	yes	correct	task-fractional/runtype-tomspunt/F_798.jpg	217
508.92	0.588	tomspunt	self-doubt?	why_face	no	no	correct	task-fractional/runtype-tomspunt/F_086.jpg	218
509.82	0.585	tomspunt	self-doubt?	why_face	yes	yes	correct	task-fractional/runtype-tomspunt/F_544.jpg	219
510.72	0.603	tomspunt	self-doubt?	why_face	yes	yes	correct	task-fractional/runtype-tomspunt/F_754.jpg	220
511.637	0.518	tomspunt	self-doubt?	why_face	yes	yes	correct	task-fractional/runtype-tomspunt/F_111.jpg	221
512.471	0.803	tomspunt	self-doubt?	why_face	yes	yes	correct	task-fractional/runtype-tomspunt/F_584.jpg	222
513.588	1.386	tomspunt	self-doubt?	why_face	no	no	correct	task-fractional/runtype-tomspunt/F_128.jpg	223
515.289	0.686	tomspunt	self-doubt?	why_face	no	no	correct	task-fractional/runtype-tomspunt/F_774.jpg	224
520.398	2.084	tomspunt	self-protection?	block_question_presentation	n/a	n/a	n/a	n/a	225
525.393	0.635	tomspunt	self-protection?	why_hand	yes	yes	correct	task-fractional/runtype-tomspunt/H_581.jpg	225
526.343	0.564	tomspunt	self-protection?	why_hand	yes	yes	correct	task-fractional/runtype-tomspunt/H_443.jpg	226
527.21	0.668	tomspunt	self-protection?	why_hand	no	no	correct	task-fractional/runtype-tomspunt/H_332.jpg	227
528.194	0.581	tomspunt	self-protection?	why_hand	yes	yes	correct	task-fractional/runtype-tomspunt/H_027.jpg	228
529.077	0.652	tomspunt	self-protection?	why_hand	no	no	correct	task-fractional/runtype-tomspunt/H_532.jpg	229
530.044	0.813	tomspunt	self-protection?	why_hand	yes	yes	correct	task-fractional/runtype-tomspunt/H_189.jpg	230
531.161	0.835	tomspunt	self-protection?	why_hand	no	no	correct	task-fractional/runtype-tomspunt/H_006.jpg	231
532.312	0.502	tomspunt	self-protection?	why_hand	yes	yes	correct	task-fractional/runtype-tomspunt/H_038.jpg	232
538.605	2.101	tomspunt	lifting?	block_question_presentation	n/a	n/a	n/a	n/a	233
543.616	0.901	tomspunt	lifting?	how_hand	yes	yes	correct	task-fractional/runtype-tomspunt/H_443.jpg	233
544.833	0.624	tomspunt	lifting?	how_hand	no	no	correct	task-fractional/runtype-tomspunt/H_038.jpg	234
545.767	0.657	tomspunt	lifting?	how_hand	yes	yes	correct	task-fractional/runtype-tomspunt/H_136.jpg	235
546.734	0.724	tomspunt	lifting?	how_hand	no	no	correct	task-fractional/runtype-tomspunt/H_012.jpg	236
547.768	0.49	tomspunt	lifting?	how_hand	yes	yes	correct	task-fractional/runtype-tomspunt/H_362.jpg	237
548.568	0.652	tomspunt	lifting?	how_hand	no	yes	incorrect	task-fractional/runtype-tomspunt/H_189.jpg	238
549.535	0.839	tomspunt	lifting?	how_hand	no	yes	incorrect	task-fractional/runtype-tomspunt/H_170.jpg	239
550.685	0.689	tomspunt	lifting?	how_hand	no	no	correct	task-fractional/runtype-tomspunt/H_077.jpg	240
556.495	2.084	tomspunt	looking-to-side?	block_question_presentation	n/a	n/a	n/a	n/a	241
561.489	0.668	tomspunt	looking-to-side?	how_face	yes	yes	correct	task-fractional/runtype-tomspunt/F_716.jpg	241
562.473	0.535	tomspunt	looking-to-side?	how_face	no	no	correct	task-fractional/runtype-tomspunt/F_798.jpg	242
563.323	0.535	tomspunt	looking-to-side?	how_face	yes	yes	correct	task-fractional/runtype-tomspunt/F_760.jpg	243
564.174	0.501	tomspunt	looking-to-side?	how_face	yes	yes	correct	task-fractional/runtype-tomspunt/F_110.jpg	244
564.991	0.618	tomspunt	looking-to-side?	how_face	yes	no	incorrect	task-fractional/runtype-tomspunt/F_779.jpg	245
565.924	0.685	tomspunt	looking-to-side?	how_face	yes	yes	correct	task-fractional/runtype-tomspunt/F_590.jpg	246
566.925	0.685	tomspunt	looking-to-side?	how_face	no	no	correct	task-fractional/runtype-tomspunt/F_111.jpg	247
567.925	0.566	tomspunt	looking-to-side?	how_face	yes	yes	correct	task-fractional/runtype-tomspunt/F_433.jpg	248
578.97	2.101	tomspunt	proud?	block_question_presentation	n/a	n/a	n/a	n/a	249
583.981	0.476	tomspunt	proud?	why_face	yes	yes	correct	task-fractional/runtype-tomspunt/F_083.jpg	249
584.765	0.576	tomspunt	proud?	why_face	yes	yes	correct	task-fractional/runtype-tomspunt/F_582.jpg	250
585.648	0.475	tomspunt	proud?	why_face	yes	yes	correct	task-fractional/runtype-tomspunt/F_618.jpg	251
586.432	0.659	tomspunt	proud?	why_face	no	no	correct	task-fractional/runtype-tomspunt/F_776.jpg	252
587.399	0.608	tomspunt	proud?	why_face	yes	yes	correct	task-fractional/runtype-tomspunt/F_598.jpg	253
588.316	0.625	tomspunt	proud?	why_face	no	no	correct	task-fractional/runtype-tomspunt/F_760.jpg	254
589.25	0.708	tomspunt	proud?	why_face	no	no	correct	task-fractional/runtype-tomspunt/F_412.jpg	255
590.267	0.669	tomspunt	proud?	why_face	yes	yes	correct	task-fractional/runtype-tomspunt/F_695.jpg	256
