onset	duration	trial_type	response_value	rating_type	expression	sex	race	age	stim_file
3.871	1.377	face	n/a	sex	anger	male	African	young	task-faces/5Anger_Model5_2Male_3African_1Young.mp4
5.248	1.583	rating	0.11	sex	anger	male	African	young	n/a
6.498	0.333	rating_mouse_trajectory	0.11	sex	anger	male	African	young	n/a
7.34	2.043	face	n/a	sex	pleasure	male	WC	young	task-faces/8Pleasure_Model4_2Male_1WC_1Young.mp4
9.382	1.867	rating	0.2456	sex	pleasure	male	WC	young	n/a
10.166	1.083	rating_mouse_trajectory	0.2456	sex	pleasure	male	WC	young	n/a
11.322	2.062	face	n/a	sex	pain	female	WC	young	task-faces/7Pain_Model1_1Female_1WC_1Young.mp4
13.384	0.9	rating	0.9312	sex	pain	female	WC	young	n/a
13.734	0.55	rating_mouse_trajectory	0.9312	sex	pain	female	WC	young	n/a
16.325	1.328	face	n/a	sex	happy	female	WC	young	task-faces/1Happy_Model5_1Female_1WC_1Young.mp4
17.652	0.567	rating	0.8078	sex	happy	female	WC	young	n/a
17.702	0.517	rating_mouse_trajectory	0.8078	sex	happy	female	WC	young	n/a
19.584	1.336	face	n/a	sex	anger	female	African	young	task-faces/5Anger_Model1_1Female_3African_1Young.mp4
20.92	1.8	rating	0.7148	sex	anger	female	African	young	n/a
21.72	1.0	rating_mouse_trajectory	0.7148	sex	anger	female	African	young	n/a
26.869	1.321	face	n/a	sex	surprise	female	African	old	task-faces/2Surprise_Model4_1Female_3African_2Old.mp4
28.189	1.2	rating	0.1646	sex	surprise	female	African	old	n/a
28.556	0.833	rating_mouse_trajectory	0.1646	sex	surprise	female	African	old	n/a
30.113	1.328	face	n/a	sex	fear	female	WC	old	task-faces/3Fear_Model5_1Female_1WC_2Old.mp4
31.441	0.983	rating	0.2496	sex	fear	female	WC	old	n/a
32.057	0.367	rating_mouse_trajectory	0.2496	sex	fear	female	WC	old	n/a
33.367	1.308	face	n/a	sex	disgust	female	EA	young	task-faces/4Disgust_Model4_1Female_2EA_1Young.mp4
34.675	1.333	rating	0.2253	sex	disgust	female	EA	young	n/a
35.842	0.167	rating_mouse_trajectory	0.2253	sex	disgust	female	EA	young	n/a
36.598	1.312	face	n/a	sex	anger	male	EA	young	task-faces/5Anger_Model2_2Male_2EA_1Young.mp4
37.91	0.633	rating	0.2253	sex	anger	male	EA	young	n/a
38.176	0.367	rating_mouse_trajectory	0.2253	sex	anger	male	EA	young	n/a
39.833	1.328	face	n/a	sex	happy	female	EA	old	task-faces/1Happy_Model3_1Female_2EA_2Old.mp4
41.161	1.867	rating	0.818	sex	happy	female	EA	old	n/a
41.844	1.183	rating_mouse_trajectory	0.818	sex	happy	female	EA	old	n/a
45.068	1.311	face	n/a	sex	surprise	female	African	young	task-faces/2Surprise_Model5_1Female_3African_1Young.mp4
46.38	0.6	rating	0.9333	sex	surprise	female	African	young	n/a
46.696	0.283	rating_mouse_trajectory	0.9333	sex	surprise	female	African	young	n/a
49.302	1.312	face	n/a	sex	happy	female	African	old	task-faces/1Happy_Model3_1Female_3African_2Old.mp4
50.615	1.333	rating	0.2476	sex	happy	female	African	old	n/a
50.915	1.033	rating_mouse_trajectory	0.2476	sex	happy	female	African	old	n/a
54.535	2.048	face	n/a	sex	pleasure	female	African	young	task-faces/8Pleasure_Model1_1Female_3African_1Young.mp4
56.583	1.8	rating	0.1282	sex	pleasure	female	African	young	n/a
56.967	1.417	rating_mouse_trajectory	0.1282	sex	pleasure	female	African	young	n/a
59.502	2.05	face	n/a	sex	pain	female	EA	old	task-faces/7Pain_Model2_1Female_2EA_2Old.mp4
61.552	1.333	rating	0.1383	sex	pain	female	EA	old	n/a
62.052	0.833	rating_mouse_trajectory	0.1383	sex	pain	female	EA	old	n/a
64.469	1.301	face	n/a	sex	sad	male	WC	old	task-faces/6Sad_Model2_2Male_1WC_2Old.mp4
65.77	1.733	rating	0.1363	sex	sad	male	WC	old	n/a
66.337	1.167	rating_mouse_trajectory	0.1363	sex	sad	male	WC	old	n/a
68.685	1.303	face	n/a	sex	sad	female	African	old	task-faces/6Sad_Model1_1Female_3African_2Old.mp4
69.988	1.7	rating	0.2051	sex	sad	female	African	old	n/a
71.038	0.65	rating_mouse_trajectory	0.2051	sex	sad	female	African	old	n/a
72.902	1.304	face	n/a	sex	sad	female	African	young	task-faces/6Sad_Model3_1Female_3African_1Young.mp4
74.207	0.85	rating	0.8564	sex	sad	female	African	young	n/a
74.473	0.583	rating_mouse_trajectory	0.8564	sex	sad	female	African	young	n/a
77.135	1.306	face	n/a	sex	fear	male	WC	young	task-faces/3Fear_Model4_2Male_1WC_1Young.mp4
78.442	1.767	rating	0.2132	sex	fear	male	WC	young	n/a
79.308	0.9	rating_mouse_trajectory	0.2132	sex	fear	male	WC	young	n/a
83.365	1.312	face	n/a	sex	happy	male	WC	old	task-faces/1Happy_Model3_2Male_1WC_2Old.mp4
84.677	1.5	rating	0.0615	sex	happy	male	WC	old	n/a
85.144	1.033	rating_mouse_trajectory	0.0615	sex	happy	male	WC	old	n/a
86.582	1.296	face	n/a	sex	fear	male	WC	old	task-faces/3Fear_Model3_2Male_1WC_2Old.mp4
87.878	1.5	rating	0.0918	sex	fear	male	WC	old	n/a
88.012	1.367	rating_mouse_trajectory	0.0918	sex	fear	male	WC	old	n/a
90.785	1.312	face	n/a	sex	disgust	female	WC	young	task-faces/4Disgust_Model2_1Female_1WC_1Young.mp4
92.097	1.733	rating	0.7472	sex	disgust	female	WC	young	n/a
93.213	0.617	rating_mouse_trajectory	0.7472	sex	disgust	female	WC	young	n/a
94.017	2.048	face	n/a	sex	pain	male	EA	old	task-faces/7Pain_Model3_2Male_2EA_2Old.mp4
96.065	1.633	rating	0.1808	sex	pain	male	EA	old	n/a
96.398	1.3	rating_mouse_trajectory	0.1808	sex	pain	male	EA	old	n/a
98.986	1.314	face	n/a	sex	anger	female	WC	old	task-faces/5Anger_Model4_1Female_1WC_2Old.mp4
100.3	1.617	rating	0.7128	sex	anger	female	WC	old	n/a
101.116	0.8	rating_mouse_trajectory	0.7128	sex	anger	female	WC	old	n/a
103.218	1.316	face	n/a	sex	sad	female	WC	old	task-faces/6Sad_Model2_1Female_1WC_2Old.mp4
104.535	1.683	rating	0.2233	sex	sad	female	WC	old	n/a
105.618	0.6	rating_mouse_trajectory	0.2233	sex	sad	female	WC	old	n/a
107.441	2.046	face	n/a	sex	pain	female	African	old	task-faces/7Pain_Model5_1Female_3African_2Old.mp4
109.486	0.7	rating	0.1222	sex	pain	female	African	old	n/a
109.886	0.3	rating_mouse_trajectory	0.1222	sex	pain	female	African	old	n/a
111.4	1.304	face	n/a	sex	disgust	male	African	old	task-faces/4Disgust_Model5_2Male_3African_2Old.mp4
112.704	1.067	rating	0.104	sex	disgust	male	African	old	n/a
113.138	0.633	rating_mouse_trajectory	0.104	sex	disgust	male	African	old	n/a
114.627	1.312	face	n/a	sex	happy	male	African	old	task-faces/1Happy_Model5_2Male_3African_2Old.mp4
115.939	0.917	rating	0.1019	sex	happy	male	African	old	n/a
116.172	0.683	rating_mouse_trajectory	0.1019	sex	happy	male	African	old	n/a
117.862	1.311	face	n/a	sex	disgust	female	African	young	task-faces/4Disgust_Model5_1Female_3African_1Young.mp4
119.173	1.833	rating	0.82	sex	disgust	female	African	young	n/a
119.54	1.467	rating_mouse_trajectory	0.82	sex	disgust	female	African	young	n/a
122.097	2.045	face	n/a	sex	pain	male	WC	old	task-faces/7Pain_Model2_2Male_1WC_2Old.mp4
124.142	1.817	rating	0.1383	sex	pain	male	WC	old	n/a
124.192	1.767	rating_mouse_trajectory	0.1383	sex	pain	male	WC	old	n/a
127.069	1.308	face	n/a	sex	surprise	male	WC	old	task-faces/2Surprise_Model2_2Male_1WC_2Old.mp4
128.377	1.017	rating	0.0979	sex	surprise	male	WC	old	n/a
128.51	0.883	rating_mouse_trajectory	0.0979	sex	surprise	male	WC	old	n/a
131.285	1.31	face	n/a	sex	surprise	male	EA	young	task-faces/2Surprise_Model4_2Male_2EA_1Young.mp4
132.595	1.167	rating	0.2921	sex	surprise	male	EA	young	n/a
133.128	0.633	rating_mouse_trajectory	0.2921	sex	surprise	male	EA	young	n/a
134.499	2.031	face	n/a	sex	pleasure	male	EA	old	task-faces/8Pleasure_Model5_2Male_2EA_2Old.mp4
136.53	0.4	rating	0.1828	sex	pleasure	male	EA	old	n/a
136.58	0.35	rating_mouse_trajectory	0.1828	sex	pleasure	male	EA	old	n/a
138.453	1.311	face	n/a	sex	happy	male	African	young	task-faces/1Happy_Model1_2Male_3African_1Young.mp4
139.764	1.383	rating	0.8281	sex	happy	male	African	young	n/a
140.281	0.867	rating_mouse_trajectory	0.8281	sex	happy	male	African	young	n/a
142.686	1.314	face	n/a	sex	fear	male	EA	old	task-faces/3Fear_Model4_2Male_2EA_2Old.mp4
143.999	1.617	rating	0.0554	sex	fear	male	EA	old	n/a
144.499	1.117	rating_mouse_trajectory	0.0554	sex	fear	male	EA	old	n/a
145.923	1.311	face	n/a	sex	sad	male	WC	young	task-faces/6Sad_Model2_2Male_1WC_1Young.mp4
147.234	1.65	rating	0.1909	sex	sad	male	WC	young	n/a
148.084	0.8	rating_mouse_trajectory	0.1909	sex	sad	male	WC	young	n/a
149.151	2.035	face	n/a	sex	pain	female	EA	young	task-faces/7Pain_Model2_1Female_2EA_1Young.mp4
151.185	1.633	rating	0.7189	sex	pain	female	EA	young	n/a
151.235	1.583	rating_mouse_trajectory	0.7189	sex	pain	female	EA	young	n/a
155.102	1.318	face	n/a	sex	anger	female	EA	young	task-faces/5Anger_Model5_1Female_2EA_1Young.mp4
156.421	1.6	rating	0.8989	sex	anger	female	EA	young	n/a
157.021	1.0	rating_mouse_trajectory	0.8989	sex	anger	female	EA	young	n/a
160.335	2.038	face	n/a	sex	pleasure	female	African	old	task-faces/8Pleasure_Model5_1Female_3African_2Old.mp4
162.373	0.983	rating	0.1525	sex	pleasure	female	African	old	n/a
162.423	0.933	rating_mouse_trajectory	0.1525	sex	pleasure	female	African	old	n/a
167.297	1.312	face	n/a	sex	anger	male	African	old	task-faces/5Anger_Model3_2Male_3African_2Old.mp4
168.609	1.867	rating	0.2941	sex	anger	male	African	old	n/a
169.442	1.033	rating_mouse_trajectory	0.2941	sex	anger	male	African	old	n/a
171.518	2.042	face	n/a	sex	pleasure	male	WC	old	task-faces/8Pleasure_Model3_2Male_1WC_2Old.mp4
173.56	1.867	rating	0.1363	sex	pleasure	male	WC	old	n/a
173.86	1.567	rating_mouse_trajectory	0.1363	sex	pleasure	male	WC	old	n/a
176.484	2.045	face	n/a	sex	pain	male	African	young	task-faces/7Pain_Model3_2Male_3African_1Young.mp4
178.529	0.983	rating	0.2051	sex	pain	male	African	young	n/a
178.996	0.517	rating_mouse_trajectory	0.2051	sex	pain	male	African	young	n/a
180.451	1.313	face	n/a	sex	disgust	male	WC	young	task-faces/4Disgust_Model3_2Male_1WC_1Young.mp4
181.763	0.983	rating	0.2071	sex	disgust	male	WC	young	n/a
182.397	0.35	rating_mouse_trajectory	0.2071	sex	disgust	male	WC	young	n/a
184.67	1.312	face	n/a	sex	anger	female	EA	old	task-faces/5Anger_Model5_1Female_2EA_2Old.mp4
185.982	1.817	rating	0.2496	sex	anger	female	EA	old	n/a
187.532	0.267	rating_mouse_trajectory	0.2496	sex	anger	female	EA	old	n/a
187.901	2.032	face	n/a	sex	pain	male	EA	young	task-faces/7Pain_Model1_2Male_2EA_1Young.mp4
189.933	1.5	rating	0.1869	sex	pain	male	EA	young	n/a
190.466	0.967	rating_mouse_trajectory	0.1869	sex	pain	male	EA	young	n/a
193.84	1.312	face	n/a	sex	fear	male	African	old	task-faces/3Fear_Model1_2Male_3African_2Old.mp4
195.152	1.817	rating	0.1505	sex	fear	male	African	old	n/a
195.702	1.267	rating_mouse_trajectory	0.1505	sex	fear	male	African	old	n/a
199.068	1.319	face	n/a	sex	surprise	male	African	old	task-faces/2Surprise_Model2_2Male_3African_2Old.mp4
200.387	1.383	rating	0.1626	sex	surprise	male	African	old	n/a
200.737	1.033	rating_mouse_trajectory	0.1626	sex	surprise	male	African	old	n/a
203.311	1.311	face	n/a	sex	anger	male	WC	young	task-faces/5Anger_Model1_2Male_1WC_1Young.mp4
204.622	1.633	rating	0.1869	sex	anger	male	WC	young	n/a
205.255	1.0	rating_mouse_trajectory	0.1869	sex	anger	male	WC	young	n/a
207.546	1.311	face	n/a	sex	fear	female	African	young	task-faces/3Fear_Model2_1Female_3African_1Young.mp4
208.857	1.783	rating	0.8503	sex	fear	female	African	young	n/a
209.457	1.183	rating_mouse_trajectory	0.8503	sex	fear	female	African	young	n/a
211.781	1.311	face	n/a	sex	sad	male	EA	old	task-faces/6Sad_Model1_2Male_2EA_2Old.mp4
213.092	1.3	rating	0.1909	sex	sad	male	EA	old	n/a
213.542	0.85	rating_mouse_trajectory	0.1909	sex	sad	male	EA	old	n/a
216.016	2.045	face	n/a	sex	pain	male	African	old	task-faces/7Pain_Model1_2Male_3African_2Old.mp4
218.06	1.033	rating	0.2213	sex	pain	male	African	old	n/a
218.71	0.383	rating_mouse_trajectory	0.2213	sex	pain	male	African	old	n/a
220.969	2.043	face	n/a	sex	pleasure	male	EA	young	task-faces/8Pleasure_Model2_2Male_2EA_1Young.mp4
223.012	1.683	rating	0.2799	sex	pleasure	male	EA	young	n/a
223.679	1.017	rating_mouse_trajectory	0.2799	sex	pleasure	male	EA	young	n/a
225.919	1.312	face	n/a	sex	disgust	female	WC	old	task-faces/4Disgust_Model1_1Female_1WC_2Old.mp4
227.23	1.4	rating	0.2213	sex	disgust	female	WC	old	n/a
227.88	0.75	rating_mouse_trajectory	0.2213	sex	disgust	female	WC	old	n/a
230.152	2.046	face	n/a	sex	pleasure	female	EA	old	task-faces/8Pleasure_Model1_1Female_2EA_2Old.mp4
232.199	1.15	rating	0.7775	sex	pleasure	female	EA	old	n/a
232.449	0.9	rating_mouse_trajectory	0.7775	sex	pleasure	female	EA	old	n/a
234.118	1.316	face	n/a	sex	surprise	female	EA	young	task-faces/2Surprise_Model5_1Female_2EA_1Young.mp4
235.433	1.55	rating	0.9413	sex	surprise	female	EA	young	n/a
235.633	1.35	rating_mouse_trajectory	0.9413	sex	surprise	female	EA	young	n/a
237.351	1.301	face	n/a	sex	disgust	female	African	old	task-faces/4Disgust_Model5_1Female_3African_2Old.mp4
238.651	0.7	rating	0.5712	sex	disgust	female	African	old	n/a
239.068	0.283	rating_mouse_trajectory	0.5712	sex	disgust	female	African	old	n/a
242.568	1.301	face	n/a	sex	fear	female	EA	young	task-faces/3Fear_Model1_1Female_2EA_1Young.mp4
243.87	1.0	rating	0.646	sex	fear	female	EA	young	n/a
244.287	0.583	rating_mouse_trajectory	0.646	sex	fear	female	EA	young	n/a
245.785	2.036	face	n/a	sex	pleasure	male	African	young	task-faces/8Pleasure_Model3_2Male_3African_1Young.mp4
247.821	1.867	rating	0.0797	sex	pleasure	male	African	young	n/a
247.871	1.817	rating_mouse_trajectory	0.0797	sex	pleasure	male	African	young	n/a
253.752	1.306	face	n/a	sex	fear	female	African	old	task-faces/3Fear_Model3_1Female_3African_2Old.mp4
255.057	1.617	rating	0.2638	sex	fear	female	African	old	n/a
256.124	0.55	rating_mouse_trajectory	0.2638	sex	fear	female	African	old	n/a
256.981	1.311	face	n/a	sex	surprise	male	African	young	task-faces/2Surprise_Model5_2Male_3African_1Young.mp4
258.292	0.883	rating	0.7269	sex	surprise	male	African	young	n/a
258.709	0.467	rating_mouse_trajectory	0.7269	sex	surprise	male	African	young	n/a
261.215	2.045	face	n/a	sex	pleasure	female	EA	young	task-faces/8Pleasure_Model1_1Female_2EA_1Young.mp4
263.26	1.8	rating	0.8746	sex	pleasure	female	EA	young	n/a
263.627	1.433	rating_mouse_trajectory	0.8746	sex	pleasure	female	EA	young	n/a
266.168	2.044	face	n/a	sex	pleasure	female	WC	young	task-faces/8Pleasure_Model5_1Female_1WC_1Young.mp4
268.212	1.533	rating	0.6197	sex	pleasure	female	WC	young	n/a
268.262	1.483	rating_mouse_trajectory	0.6197	sex	pleasure	female	WC	young	n/a
271.136	1.311	face	n/a	sex	surprise	male	EA	old	task-faces/2Surprise_Model4_2Male_2EA_2Old.mp4
272.447	0.933	rating	0.7451	sex	surprise	male	EA	old	n/a
272.681	0.7	rating_mouse_trajectory	0.7451	sex	surprise	male	EA	old	n/a
274.368	2.048	face	n/a	sex	pain	female	WC	old	task-faces/7Pain_Model4_1Female_1WC_2Old.mp4
276.415	1.4	rating	0.371	sex	pain	female	WC	old	n/a
276.882	0.933	rating_mouse_trajectory	0.371	sex	pain	female	WC	old	n/a
279.339	1.311	face	n/a	sex	happy	male	EA	young	task-faces/1Happy_Model1_2Male_2EA_1Young.mp4
280.65	1.017	rating	0.642	sex	happy	male	EA	young	n/a
281.25	0.417	rating_mouse_trajectory	0.642	sex	happy	male	EA	young	n/a
282.566	1.318	face	n/a	sex	surprise	female	WC	old	task-faces/2Surprise_Model2_1Female_1WC_2Old.mp4
283.885	0.75	rating	0.2354	sex	surprise	female	WC	old	n/a
284.285	0.35	rating_mouse_trajectory	0.2354	sex	surprise	female	WC	old	n/a
286.802	1.301	face	n/a	sex	anger	female	African	old	task-faces/5Anger_Model2_1Female_3African_2Old.mp4
288.103	0.983	rating	0.2941	sex	anger	female	African	old	n/a
288.886	0.2	rating_mouse_trajectory	0.2941	sex	anger	female	African	old	n/a
291.018	2.037	face	n/a	sex	pain	female	African	young	task-faces/7Pain_Model4_1Female_3African_1Young.mp4
293.055	0.983	rating	0.6885	sex	pain	female	African	young	n/a
293.105	0.933	rating_mouse_trajectory	0.6885	sex	pain	female	African	young	n/a
294.978	1.312	face	n/a	sex	sad	female	EA	old	task-faces/6Sad_Model3_1Female_2EA_2Old.mp4
296.289	1.25	rating	0.3568	sex	sad	female	EA	old	n/a
296.756	0.783	rating_mouse_trajectory	0.3568	sex	sad	female	EA	old	n/a
300.214	1.311	face	n/a	sex	fear	female	EA	old	task-faces/3Fear_Model4_1Female_2EA_2Old.mp4
301.525	1.05	rating	0.6744	sex	fear	female	EA	old	n/a
301.825	0.75	rating_mouse_trajectory	0.6744	sex	fear	female	EA	old	n/a
304.452	2.041	face	n/a	sex	pleasure	male	African	old	task-faces/8Pleasure_Model3_2Male_3African_2Old.mp4
306.493	0.683	rating	0.1201	sex	pleasure	male	African	old	n/a
306.577	0.6	rating_mouse_trajectory	0.1201	sex	pleasure	male	African	old	n/a
309.401	1.311	face	n/a	sex	happy	female	EA	young	task-faces/1Happy_Model5_1Female_2EA_1Young.mp4
310.712	1.667	rating	0.7654	sex	happy	female	EA	young	n/a
311.328	1.05	rating_mouse_trajectory	0.7654	sex	happy	female	EA	young	n/a
312.615	1.314	face	n/a	sex	surprise	female	EA	old	task-faces/2Surprise_Model3_1Female_2EA_2Old.mp4
313.929	1.767	rating	0.6946	sex	surprise	female	EA	old	n/a
314.913	0.783	rating_mouse_trajectory	0.6946	sex	surprise	female	EA	old	n/a
315.833	1.314	face	n/a	sex	happy	female	WC	old	task-faces/1Happy_Model2_1Female_1WC_2Old.mp4
317.147	1.267	rating	0.1363	sex	happy	female	WC	old	n/a
317.714	0.7	rating_mouse_trajectory	0.1363	sex	happy	female	WC	old	n/a
320.069	1.314	face	n/a	sex	disgust	male	WC	old	task-faces/4Disgust_Model2_2Male_1WC_2Old.mp4
321.382	0.717	rating	0.1505	sex	disgust	male	WC	old	n/a
321.432	0.667	rating_mouse_trajectory	0.1505	sex	disgust	male	WC	old	n/a
324.302	1.315	face	n/a	sex	anger	male	WC	old	task-faces/5Anger_Model4_2Male_1WC_2Old.mp4
325.617	1.183	rating	0.1659	sex	anger	male	WC	old	n/a
326.034	0.767	rating_mouse_trajectory	0.1659	sex	anger	male	WC	old	n/a
328.535	1.317	face	n/a	sex	happy	female	African	young	task-faces/1Happy_Model3_1Female_3African_1Young.mp4
329.852	0.583	rating	0.8948	sex	happy	female	African	young	n/a
330.169	0.267	rating_mouse_trajectory	0.8948	sex	happy	female	African	young	n/a
331.775	1.312	face	n/a	sex	anger	female	WC	young	task-faces/5Anger_Model4_1Female_1WC_1Young.mp4
333.087	1.15	rating	0.6521	sex	anger	female	WC	young	n/a
333.503	0.733	rating_mouse_trajectory	0.6521	sex	anger	female	WC	young	n/a
337.003	1.319	face	n/a	sex	fear	female	WC	young	task-faces/3Fear_Model5_1Female_1WC_1Young.mp4
338.322	1.85	rating	0.5348	sex	fear	female	WC	young	n/a
339.405	0.767	rating_mouse_trajectory	0.5348	sex	fear	female	WC	young	n/a
341.246	1.311	face	n/a	sex	sad	male	African	old	task-faces/6Sad_Model1_2Male_3African_2Old.mp4
342.557	1.35	rating	0.2678	sex	sad	male	African	old	n/a
342.857	1.05	rating_mouse_trajectory	0.2678	sex	sad	male	African	old	n/a
346.481	1.311	face	n/a	sex	fear	male	African	young	task-faces/3Fear_Model5_2Male_3African_1Young.mp4
347.792	1.317	rating	0.2456	sex	fear	male	African	young	n/a
348.809	0.3	rating_mouse_trajectory	0.2456	sex	fear	male	African	young	n/a
350.716	1.311	face	n/a	sex	fear	male	EA	young	task-faces/3Fear_Model4_2Male_2EA_1Young.mp4
352.027	1.8	rating	0.1788	sex	fear	male	EA	young	n/a
352.26	1.567	rating_mouse_trajectory	0.1788	sex	fear	male	EA	young	n/a
354.934	2.044	face	n/a	sex	pain	male	WC	young	task-faces/7Pain_Model4_2Male_1WC_1Young.mp4
356.979	0.75	rating	0.3062	sex	pain	male	WC	young	n/a
357.362	0.367	rating_mouse_trajectory	0.3062	sex	pain	male	WC	young	n/a
360.902	2.045	face	n/a	sex	pleasure	female	WC	old	task-faces/8Pleasure_Model3_1Female_1WC_2Old.mp4
362.948	0.417	rating	0.6096	sex	pleasure	female	WC	old	n/a
363.014	0.35	rating_mouse_trajectory	0.6096	sex	pleasure	female	WC	old	n/a
364.868	1.314	face	n/a	sex	disgust	male	African	young	task-faces/4Disgust_Model1_2Male_3African_1Young.mp4
366.182	0.967	rating	0.373	sex	disgust	male	African	young	n/a
366.882	0.267	rating_mouse_trajectory	0.373	sex	disgust	male	African	young	n/a
368.1	1.316	face	n/a	sex	happy	male	EA	old	task-faces/1Happy_Model3_2Male_2EA_2Old.mp4
369.417	1.533	rating	0.7633	sex	happy	male	EA	old	n/a
370.0	0.95	rating_mouse_trajectory	0.7633	sex	happy	male	EA	old	n/a
373.335	1.317	face	n/a	sex	surprise	female	WC	young	task-faces/2Surprise_Model3_1Female_1WC_1Young.mp4
374.652	1.4	rating	0.553	sex	surprise	female	WC	young	n/a
375.519	0.533	rating_mouse_trajectory	0.553	sex	surprise	female	WC	young	n/a
377.568	1.302	face	n/a	sex	happy	male	WC	young	task-faces/1Happy_Model5_2Male_1WC_1Young.mp4
378.87	1.35	rating	0.2395	sex	happy	male	WC	young	n/a
379.504	0.717	rating_mouse_trajectory	0.2395	sex	happy	male	WC	young	n/a
381.786	1.32	face	n/a	sex	sad	male	EA	young	task-faces/6Sad_Model3_2Male_2EA_1Young.mp4
383.105	1.233	rating	0.2132	sex	sad	male	EA	young	n/a
383.522	0.817	rating_mouse_trajectory	0.2132	sex	sad	male	EA	young	n/a
388.029	1.312	face	n/a	sex	disgust	male	EA	old	task-faces/4Disgust_Model2_2Male_2EA_2Old.mp4
389.341	1.533	rating	0.6157	sex	disgust	male	EA	old	n/a
390.741	0.133	rating_mouse_trajectory	0.6157	sex	disgust	male	EA	old	n/a
391.264	1.311	face	n/a	sex	disgust	female	EA	old	task-faces/4Disgust_Model5_1Female_2EA_2Old.mp4
392.575	1.75	rating	0.7269	sex	disgust	female	EA	old	n/a
392.775	1.55	rating_mouse_trajectory	0.7269	sex	disgust	female	EA	old	n/a
396.499	1.311	face	n/a	sex	disgust	male	EA	young	task-faces/4Disgust_Model4_2Male_2EA_1Young.mp4
397.811	1.317	rating	0.6056	sex	disgust	male	EA	young	n/a
398.194	0.933	rating_mouse_trajectory	0.6056	sex	disgust	male	EA	young	n/a
400.735	1.31	face	n/a	sex	sad	male	African	young	task-faces/6Sad_Model4_2Male_3African_1Young.mp4
402.046	0.65	rating	0.3204	sex	sad	male	African	young	n/a
402.529	0.167	rating_mouse_trajectory	0.3204	sex	sad	male	African	young	n/a
405.952	1.312	face	n/a	sex	sad	female	WC	young	task-faces/6Sad_Model4_1Female_1WC_1Young.mp4
407.264	1.867	rating	0.3932	sex	sad	female	WC	young	n/a
408.564	0.567	rating_mouse_trajectory	0.3932	sex	sad	female	WC	young	n/a
410.17	1.312	face	n/a	sex	anger	male	EA	old	task-faces/5Anger_Model2_2Male_2EA_2Old.mp4
411.482	0.75	rating	0.3366	sex	anger	male	EA	old	n/a
411.849	0.383	rating_mouse_trajectory	0.3366	sex	anger	male	EA	old	n/a
413.401	1.316	face	n/a	sex	sad	female	EA	young	task-faces/6Sad_Model2_1Female_2EA_1Young.mp4
414.717	1.7	rating	0.5833	sex	sad	female	EA	young	n/a
415.284	1.133	rating_mouse_trajectory	0.5833	sex	sad	female	EA	young	n/a
416.634	1.318	face	n/a	sex	surprise	male	WC	young	task-faces/2Surprise_Model5_2Male_1WC_1Young.mp4
417.952	1.683	rating	0.3224	sex	surprise	male	WC	young	n/a
418.118	1.517	rating_mouse_trajectory	0.3224	sex	surprise	male	WC	young	n/a
