onset	duration	run_type	trial_type	trial_index	cue	stimulusintensity	rating_value	rating_glmslabel	rating_value_fillna	rating_glmslabel_fillna	rating_mouseonset	rating_mousedur	stim_file	pain_onset_ttl1	pain_onset_ttl2	pain_onset_ttl3	pain_onset_ttl4	pain_stimulus_delivery_success	cognitive_correct_response	cognitive_participant_response	cognitive_response_accuracy
9.8	0.98	pain	cue	1	high_cue	n/a	n/a	n/a	n/a	n/a	n/a	n/a	task-social/cue/runtype-pain/sch/h027.png	n/a	n/a	n/a	n/a	n/a	n/a	n/a	n/a
12.54	1.69	pain	expectrating	1	high_cue	n/a	78.6	Very Strong	78.6	Very Strong	0.87	0.82	task-social/cue/runtype-pain/sch/h027.png	n/a	n/a	n/a	n/a	n/a	n/a	n/a	n/a
22.26	12.359999999999996	pain	stimulus	1	high_cue	med_stim	n/a	n/a	n/a	n/a	n/a	n/a	n/a	22.26	26.02	31.02	34.63	success	n/a	n/a	n/a
32.99	1.53	pain	outcomerating	1	high_cue	med_stim	80.27	Very Strong	80.27	Very Strong	0.78	0.75	task-social/outcomerating/task-pain_scale.png	n/a	n/a	n/a	n/a	success	n/a	n/a	n/a
41.5	1.0	pain	cue	2	high_cue	n/a	n/a	n/a	n/a	n/a	n/a	n/a	task-social/cue/runtype-pain/sch/h023.png	n/a	n/a	n/a	n/a	n/a	n/a	n/a	n/a
43.0	1.45	pain	expectrating	2	high_cue	n/a	124.65	Strongest sensation of any kind	124.65	Strongest sensation of any kind	0.52	0.93	task-social/cue/runtype-pain/sch/h023.png	n/a	n/a	n/a	n/a	n/a	n/a	n/a	n/a
49.12	12.82	pain	stimulus	2	high_cue	high_stim	n/a	n/a	n/a	n/a	n/a	n/a	n/a	49.12	53.13	58.13	61.94	success	n/a	n/a	n/a
59.5	2.33	pain	outcomerating	2	high_cue	high_stim	52.67	Strong	52.67	Strong	0.83	1.5	task-social/outcomerating/task-pain_scale.png	n/a	n/a	n/a	n/a	success	n/a	n/a	n/a
67.39	1.0	pain	cue	3	low_cue	n/a	n/a	n/a	n/a	n/a	n/a	n/a	task-social/cue/runtype-pain/scl/l043.png	n/a	n/a	n/a	n/a	n/a	n/a	n/a	n/a
69.51	1.27	pain	expectrating	3	low_cue	n/a	106.04	Strongest sensation of any kind	106.04	Strongest sensation of any kind	0.42	0.85	task-social/cue/runtype-pain/scl/l043.png	n/a	n/a	n/a	n/a	n/a	n/a	n/a	n/a
75.71	12.820000000000007	pain	stimulus	3	low_cue	high_stim	n/a	n/a	n/a	n/a	n/a	n/a	n/a	75.71	79.72	84.72	88.53	success	n/a	n/a	n/a
87.5	1.13	pain	outcomerating	3	low_cue	high_stim	19.84	Moderate	19.84	Moderate	0.57	0.57	task-social/outcomerating/task-pain_scale.png	n/a	n/a	n/a	n/a	success	n/a	n/a	n/a
96.8	0.98	pain	cue	4	high_cue	n/a	n/a	n/a	n/a	n/a	n/a	n/a	task-social/cue/runtype-pain/sch/h018.png	n/a	n/a	n/a	n/a	n/a	n/a	n/a	n/a
100.7	1.3	pain	expectrating	4	high_cue	n/a	73.74	Very Strong	73.74	Very Strong	0.37	0.93	task-social/cue/runtype-pain/sch/h018.png	n/a	n/a	n/a	n/a	n/a	n/a	n/a	n/a
108.93	11.899999999999991	pain	stimulus	4	high_cue	low_stim	n/a	n/a	n/a	n/a	n/a	n/a	n/a	108.93	112.43	117.43	120.83	success	n/a	n/a	n/a
119.29	1.18	pain	outcomerating	4	high_cue	low_stim	37.51	Strong	37.51	Strong	0.63	0.55	task-social/outcomerating/task-pain_scale.png	n/a	n/a	n/a	n/a	success	n/a	n/a	n/a
128.39	1.0	pain	cue	5	high_cue	n/a	n/a	n/a	n/a	n/a	n/a	n/a	task-social/cue/runtype-pain/sch/h053.png	n/a	n/a	n/a	n/a	n/a	n/a	n/a	n/a
132.3	1.7	pain	expectrating	5	high_cue	n/a	84.95	Very Strong	84.95	Very Strong	0.38	1.32	task-social/cue/runtype-pain/sch/h053.png	n/a	n/a	n/a	n/a	n/a	n/a	n/a	n/a
145.04	12.370000000000005	pain	stimulus	5	high_cue	med_stim	n/a	n/a	n/a	n/a	n/a	n/a	n/a	145.04	148.8	153.8	157.41	success	n/a	n/a	n/a
156.79	1.92	pain	outcomerating	5	high_cue	med_stim	59.31	Strong	59.31	Strong	0.47	1.45	task-social/outcomerating/task-pain_scale.png	n/a	n/a	n/a	n/a	success	n/a	n/a	n/a
170.99	1.0	pain	cue	6	low_cue	n/a	n/a	n/a	n/a	n/a	n/a	n/a	task-social/cue/runtype-pain/scl/l038.png	n/a	n/a	n/a	n/a	n/a	n/a	n/a	n/a
174.9	1.0	pain	expectrating	6	low_cue	n/a	11.49	Moderate	11.49	Moderate	0.35	0.65	task-social/cue/runtype-pain/scl/l038.png	n/a	n/a	n/a	n/a	n/a	n/a	n/a	n/a
179.84	11.900000000000006	pain	stimulus	6	low_cue	low_stim	n/a	n/a	n/a	n/a	n/a	n/a	n/a	179.84	183.34	188.34	191.74	success	n/a	n/a	n/a
191.7	1.98	pain	outcomerating	6	low_cue	low_stim	25.95	Moderate	25.95	Moderate	0.53	1.45	task-social/outcomerating/task-pain_scale.png	n/a	n/a	n/a	n/a	success	n/a	n/a	n/a
198.29	1.0	pain	cue	7	low_cue	n/a	n/a	n/a	n/a	n/a	n/a	n/a	task-social/cue/runtype-pain/scl/l018.png	n/a	n/a	n/a	n/a	n/a	n/a	n/a	n/a
199.8	1.84	pain	expectrating	7	low_cue	n/a	28.72	Moderate	28.72	Moderate	0.9	0.94	task-social/cue/runtype-pain/scl/l018.png	n/a	n/a	n/a	n/a	n/a	n/a	n/a	n/a
208.13	12.370000000000005	pain	stimulus	7	low_cue	med_stim	n/a	n/a	n/a	n/a	n/a	n/a	n/a	208.13	211.89	216.89	220.5	success	n/a	n/a	n/a
228.9	2.02	pain	outcomerating	7	low_cue	med_stim	60.97	Strong	60.97	Strong	0.97	1.05	task-social/outcomerating/task-pain_scale.png	n/a	n/a	n/a	n/a	success	n/a	n/a	n/a
234.88	1.0	pain	cue	8	low_cue	n/a	n/a	n/a	n/a	n/a	n/a	n/a	task-social/cue/runtype-pain/scl/l035.png	n/a	n/a	n/a	n/a	n/a	n/a	n/a	n/a
237.0	1.43	pain	expectrating	8	low_cue	n/a	20.2	Moderate	20.2	Moderate	0.43	1.0	task-social/cue/runtype-pain/scl/l035.png	n/a	n/a	n/a	n/a	n/a	n/a	n/a	n/a
244.33	12.359999999999985	pain	stimulus	8	low_cue	med_stim	n/a	n/a	n/a	n/a	n/a	n/a	n/a	244.33	248.09	253.09	256.7	success	n/a	n/a	n/a
256.19	1.1	pain	outcomerating	8	low_cue	med_stim	62.31	Strong	62.31	Strong	0.48	0.62	task-social/outcomerating/task-pain_scale.png	n/a	n/a	n/a	n/a	success	n/a	n/a	n/a
262.19	1.0	pain	cue	9	high_cue	n/a	n/a	n/a	n/a	n/a	n/a	n/a	task-social/cue/runtype-pain/sch/h014.png	n/a	n/a	n/a	n/a	n/a	n/a	n/a	n/a
264.9	1.35	pain	expectrating	9	high_cue	n/a	109.96	Strongest sensation of any kind	109.96	Strongest sensation of any kind	0.4	0.95	task-social/cue/runtype-pain/sch/h014.png	n/a	n/a	n/a	n/a	n/a	n/a	n/a	n/a
272.21	12.819999999999993	pain	stimulus	9	high_cue	high_stim	n/a	n/a	n/a	n/a	n/a	n/a	n/a	272.21	276.22	281.22	285.03	success	n/a	n/a	n/a
285.79	2.02	pain	outcomerating	9	high_cue	high_stim	105.09	Strongest sensation of any kind	105.09	Strongest sensation of any kind	0.67	1.36	task-social/outcomerating/task-pain_scale.png	n/a	n/a	n/a	n/a	success	n/a	n/a	n/a
291.09	1.0	pain	cue	10	low_cue	n/a	n/a	n/a	n/a	n/a	n/a	n/a	task-social/cue/runtype-pain/scl/l041.png	n/a	n/a	n/a	n/a	n/a	n/a	n/a	n/a
293.29	1.47	pain	expectrating	10	low_cue	n/a	16.08	Moderate	16.08	Moderate	0.35	1.12	task-social/cue/runtype-pain/scl/l041.png	n/a	n/a	n/a	n/a	n/a	n/a	n/a	n/a
306.04	11.909999999999968	pain	stimulus	10	low_cue	low_stim	n/a	n/a	n/a	n/a	n/a	n/a	n/a	306.04	309.54	314.54	317.94	success	n/a	n/a	n/a
323.0	2.07	pain	outcomerating	10	low_cue	low_stim	17.62	Moderate	17.62	Moderate	0.37	1.7	task-social/outcomerating/task-pain_scale.png	n/a	n/a	n/a	n/a	success	n/a	n/a	n/a
336.59	1.0	pain	cue	11	high_cue	n/a	n/a	n/a	n/a	n/a	n/a	n/a	task-social/cue/runtype-pain/sch/h035.png	n/a	n/a	n/a	n/a	n/a	n/a	n/a	n/a
338.29	1.39	pain	expectrating	11	high_cue	n/a	119.86	Strongest sensation of any kind	119.86	Strongest sensation of any kind	0.52	0.87	task-social/cue/runtype-pain/sch/h035.png	n/a	n/a	n/a	n/a	n/a	n/a	n/a	n/a
352.01	11.910000000000025	pain	stimulus	11	high_cue	low_stim	n/a	n/a	n/a	n/a	n/a	n/a	n/a	352.01	355.51	360.51	363.91	success	n/a	n/a	n/a
367.1	1.97	pain	outcomerating	11	high_cue	low_stim	61.87	Strong	61.87	Strong	0.43	1.53	task-social/outcomerating/task-pain_scale.png	n/a	n/a	n/a	n/a	success	n/a	n/a	n/a
371.59	1.0	pain	cue	12	low_cue	n/a	n/a	n/a	n/a	n/a	n/a	n/a	task-social/cue/runtype-pain/scl/l030.png	n/a	n/a	n/a	n/a	n/a	n/a	n/a	n/a
373.4	1.43	pain	expectrating	12	low_cue	n/a	7.15	Weak	7.15	Weak	0.55	0.88	task-social/cue/runtype-pain/scl/l030.png	n/a	n/a	n/a	n/a	n/a	n/a	n/a	n/a
378.34	12.82000000000005	pain	stimulus	12	low_cue	high_stim	n/a	n/a	n/a	n/a	n/a	n/a	n/a	378.34	382.35	387.35	391.16	success	n/a	n/a	n/a
394.79	1.4	pain	outcomerating	12	low_cue	high_stim	69.39	Very Strong	69.39	Very Strong	0.42	0.98	task-social/outcomerating/task-pain_scale.png	n/a	n/a	n/a	n/a	success	n/a	n/a	n/a
