onset	duration	run_type	trial_type	trial_index	cue	stimulusintensity	rating_value	rating_glmslabel	rating_value_fillna	rating_glmslabel_fillna	rating_mouseonset	rating_mousedur	stim_file_TODO	pain_onset_ttl1	pain_onset_ttl2	pain_onset_ttl3	pain_onset_ttl4	pain_stimulus_delivery_success	cognitive_correct_response	cognitive_participant_response	cognitive_response_accuracy
10.1	0.98	cognitive	cue	1	high_cue	n/a	n/a	n/a	n/a	n/a	n/a	n/a	task-social/cue/runtype-cognitive/sch/h049.png	n/a	n/a	n/a	n/a	n/a	n/a	n/a	n/a
12.4	1.35	cognitive	expectrating	1	high_cue	n/a	65.5	Very Strong	65.5	Very Strong	0.7	0.65	task-social/cue/runtype-cognitive/sch/h049.png	n/a	n/a	n/a	n/a	n/a	n/a	n/a	n/a
20.2	5.0	cognitive	stimulus	1	high_cue	med_stim	n/a	n/a	n/a	n/a	n/a	n/a	task-social/stim/runtype-cognitive/29_100.jpg	n/a	n/a	n/a	n/a	n/a	same	diff	False
31.51	1.4	cognitive	outcomerating	1	high_cue	med_stim	79.24	Very Strong	79.24	Very Strong	0.7	0.65	task-social/outcomerating/task-cognitive_scale.png	n/a	n/a	n/a	n/a	n/a	n/a	n/a	n/a
36.29	0.99	cognitive	cue	2	high_cue	n/a	n/a	n/a	n/a	n/a	n/a	n/a	task-social/cue/runtype-cognitive/sch/h007.png	n/a	n/a	n/a	n/a	n/a	n/a	n/a	n/a
39.19	1.71	cognitive	expectrating	2	high_cue	n/a	50.13	Strong	50.13	Strong	1.02	0.69	task-social/cue/runtype-cognitive/sch/h007.png	n/a	n/a	n/a	n/a	n/a	n/a	n/a	n/a
47.5	5.0	cognitive	stimulus	2	high_cue	low_stim	n/a	n/a	n/a	n/a	n/a	n/a	task-social/stim/runtype-cognitive/39_50_R.jpg	n/a	n/a	n/a	n/a	n/a	diff	diff	True
55.8	2.72	cognitive	outcomerating	2	high_cue	low_stim	45.0	Strong	45.0	Strong	1.02	0.69	task-social/outcomerating/task-cognitive_scale.png	n/a	n/a	n/a	n/a	n/a	n/a	n/a	n/a
68.39	0.99	cognitive	cue	3	low_cue	n/a	n/a	n/a	n/a	n/a	n/a	n/a	task-social/cue/runtype-cognitive/scl/l037.png	n/a	n/a	n/a	n/a	n/a	n/a	n/a	n/a
71.3	1.6	cognitive	expectrating	3	low_cue	n/a	27.41	Moderate	27.41	Moderate	0.92	0.68	task-social/cue/runtype-cognitive/scl/l037.png	n/a	n/a	n/a	n/a	n/a	n/a	n/a	n/a
80.49	5.0	cognitive	stimulus	3	low_cue	med_stim	n/a	n/a	n/a	n/a	n/a	n/a	task-social/stim/runtype-cognitive/17_100_R.jpg	n/a	n/a	n/a	n/a	n/a	diff	diff	True
96.4	2.74	cognitive	outcomerating	3	low_cue	med_stim	99.08	Strongest sensation of any kind	99.08	Strongest sensation of any kind	0.92	0.68	task-social/outcomerating/task-cognitive_scale.png	n/a	n/a	n/a	n/a	n/a	n/a	n/a	n/a
103.1	0.98	cognitive	cue	4	high_cue	n/a	n/a	n/a	n/a	n/a	n/a	n/a	task-social/cue/runtype-cognitive/sch/h030.png	n/a	n/a	n/a	n/a	n/a	n/a	n/a	n/a
106.0	1.29	cognitive	expectrating	4	high_cue	n/a	85.87	Very Strong	85.87	Very Strong	0.58	0.7	task-social/cue/runtype-cognitive/sch/h030.png	n/a	n/a	n/a	n/a	n/a	n/a	n/a	n/a
115.19	5.0	cognitive	stimulus	4	high_cue	high_stim	n/a	n/a	n/a	n/a	n/a	n/a	task-social/stim/runtype-cognitive/27_150.jpg	n/a	n/a	n/a	n/a	n/a	same	same	True
126.99	1.16	cognitive	outcomerating	4	high_cue	high_stim	14.15	Moderate	14.15	Moderate	0.58	0.7	task-social/outcomerating/task-cognitive_scale.png	n/a	n/a	n/a	n/a	n/a	n/a	n/a	n/a
139.6	0.98	cognitive	cue	5	high_cue	n/a	n/a	n/a	n/a	n/a	n/a	n/a	task-social/cue/runtype-cognitive/sch/h044.png	n/a	n/a	n/a	n/a	n/a	n/a	n/a	n/a
141.7	2.26	cognitive	expectrating	5	high_cue	n/a	60.95	Strong	60.95	Strong	1.08	1.17	task-social/cue/runtype-cognitive/sch/h044.png	n/a	n/a	n/a	n/a	n/a	n/a	n/a	n/a
159.79	5.0	cognitive	stimulus	5	high_cue	high_stim	n/a	n/a	n/a	n/a	n/a	n/a	task-social/stim/runtype-cognitive/8_150_R.jpg	n/a	n/a	n/a	n/a	n/a	diff	same	False
169.71	2.34	cognitive	outcomerating	5	high_cue	high_stim	44.18	Strong	44.18	Strong	1.08	1.17	task-social/outcomerating/task-cognitive_scale.png	n/a	n/a	n/a	n/a	n/a	n/a	n/a	n/a
175.69	0.99	cognitive	cue	6	low_cue	n/a	n/a	n/a	n/a	n/a	n/a	n/a	task-social/cue/runtype-cognitive/scl/l036.png	n/a	n/a	n/a	n/a	n/a	n/a	n/a	n/a
178.49	1.84	cognitive	expectrating	6	low_cue	n/a	40.81	Strong	40.81	Strong	0.4	1.44	task-social/cue/runtype-cognitive/scl/l036.png	n/a	n/a	n/a	n/a	n/a	n/a	n/a	n/a
187.7	5.0	cognitive	stimulus	6	low_cue	high_stim	n/a	n/a	n/a	n/a	n/a	n/a	task-social/stim/runtype-cognitive/12_150.jpg	n/a	n/a	n/a	n/a	n/a	same	same	True
196.0	2.35	cognitive	outcomerating	6	low_cue	high_stim	18.95	Moderate	18.95	Moderate	0.4	1.44	task-social/outcomerating/task-cognitive_scale.png	n/a	n/a	n/a	n/a	n/a	n/a	n/a	n/a
203.09	0.99	cognitive	cue	7	high_cue	n/a	n/a	n/a	n/a	n/a	n/a	n/a	task-social/cue/runtype-cognitive/sch/h027.png	n/a	n/a	n/a	n/a	n/a	n/a	n/a	n/a
205.39	2.22	cognitive	expectrating	7	high_cue	n/a	86.54	Very Strong	86.54	Very Strong	0.83	1.38	task-social/cue/runtype-cognitive/sch/h027.png	n/a	n/a	n/a	n/a	n/a	n/a	n/a	n/a
217.59	5.0	cognitive	stimulus	7	high_cue	med_stim	n/a	n/a	n/a	n/a	n/a	n/a	task-social/stim/runtype-cognitive/6_100.jpg	n/a	n/a	n/a	n/a	n/a	same	diff	False
230.0	1.79	cognitive	outcomerating	7	high_cue	med_stim	58.8	Strong	58.8	Strong	0.83	1.38	task-social/outcomerating/task-cognitive_scale.png	n/a	n/a	n/a	n/a	n/a	n/a	n/a	n/a
235.8	0.98	cognitive	cue	8	high_cue	n/a	n/a	n/a	n/a	n/a	n/a	n/a	task-social/cue/runtype-cognitive/sch/h047.png	n/a	n/a	n/a	n/a	n/a	n/a	n/a	n/a
237.8	1.44	cognitive	expectrating	8	high_cue	n/a	88.62	Very Strong	88.62	Very Strong	0.97	0.47	task-social/cue/runtype-cognitive/sch/h047.png	n/a	n/a	n/a	n/a	n/a	n/a	n/a	n/a
245.3	5.0	cognitive	stimulus	8	high_cue	low_stim	n/a	n/a	n/a	n/a	n/a	n/a	task-social/stim/runtype-cognitive/29_50.jpg	n/a	n/a	n/a	n/a	n/a	same	same	True
256.99	1.5	cognitive	outcomerating	8	high_cue	low_stim	3.98	Weak	3.98	Weak	0.97	0.47	task-social/outcomerating/task-cognitive_scale.png	n/a	n/a	n/a	n/a	n/a	n/a	n/a	n/a
262.79	0.99	cognitive	cue	9	low_cue	n/a	n/a	n/a	n/a	n/a	n/a	n/a	task-social/cue/runtype-cognitive/scl/l018.png	n/a	n/a	n/a	n/a	n/a	n/a	n/a	n/a
264.99	2.56	cognitive	expectrating	9	low_cue	n/a	4.76	Weak	4.76	Weak	1.42	1.14	task-social/cue/runtype-cognitive/scl/l018.png	n/a	n/a	n/a	n/a	n/a	n/a	n/a	n/a
272.8	5.0	cognitive	stimulus	9	low_cue	high_stim	n/a	n/a	n/a	n/a	n/a	n/a	task-social/stim/runtype-cognitive/41_150.jpg	n/a	n/a	n/a	n/a	n/a	same	same	True
289.8	2.38	cognitive	outcomerating	9	low_cue	high_stim	8.26	Weak	8.26	Weak	1.42	1.14	task-social/outcomerating/task-cognitive_scale.png	n/a	n/a	n/a	n/a	n/a	n/a	n/a	n/a
294.59	0.99	cognitive	cue	10	low_cue	n/a	n/a	n/a	n/a	n/a	n/a	n/a	task-social/cue/runtype-cognitive/scl/l043.png	n/a	n/a	n/a	n/a	n/a	n/a	n/a	n/a
297.49	1.62	cognitive	expectrating	10	low_cue	n/a	2.79	Barely detectable	2.79	Barely detectable	0.47	1.15	task-social/cue/runtype-cognitive/scl/l043.png	n/a	n/a	n/a	n/a	n/a	n/a	n/a	n/a
308.89	5.0	cognitive	stimulus	10	low_cue	low_stim	n/a	n/a	n/a	n/a	n/a	n/a	task-social/stim/runtype-cognitive/6_50_R.jpg	n/a	n/a	n/a	n/a	n/a	diff	same	False
318.8	2.49	cognitive	outcomerating	10	low_cue	low_stim	6.57	Weak	6.57	Weak	0.47	1.15	task-social/outcomerating/task-cognitive_scale.png	n/a	n/a	n/a	n/a	n/a	n/a	n/a	n/a
332.99	1.0	cognitive	cue	11	low_cue	n/a	n/a	n/a	n/a	n/a	n/a	n/a	task-social/cue/runtype-cognitive/scl/l001.png	n/a	n/a	n/a	n/a	n/a	n/a	n/a	n/a
335.6	1.2	cognitive	expectrating	11	low_cue	n/a	10.86	Moderate	10.86	Moderate	0.47	0.73	task-social/cue/runtype-cognitive/scl/l001.png	n/a	n/a	n/a	n/a	n/a	n/a	n/a	n/a
353.69	5.0	cognitive	stimulus	11	low_cue	low_stim	n/a	n/a	n/a	n/a	n/a	n/a	task-social/stim/runtype-cognitive/17_50_R.jpg	n/a	n/a	n/a	n/a	n/a	diff	diff	True
362.0	2.16	cognitive	outcomerating	11	low_cue	low_stim	55.35	Strong	55.35	Strong	0.47	0.73	task-social/outcomerating/task-cognitive_scale.png	n/a	n/a	n/a	n/a	n/a	n/a	n/a	n/a
372.3	0.98	cognitive	cue	12	low_cue	n/a	n/a	n/a	n/a	n/a	n/a	n/a	task-social/cue/runtype-cognitive/scl/l047.png	n/a	n/a	n/a	n/a	n/a	n/a	n/a	n/a
374.3	1.55	cognitive	expectrating	12	low_cue	n/a	10.89	Moderate	10.89	Moderate	0.52	1.04	task-social/cue/runtype-cognitive/scl/l047.png	n/a	n/a	n/a	n/a	n/a	n/a	n/a	n/a
381.39	5.0	cognitive	stimulus	12	low_cue	med_stim	n/a	n/a	n/a	n/a	n/a	n/a	task-social/stim/runtype-cognitive/12_100.jpg	n/a	n/a	n/a	n/a	n/a	same	same	True
394.79	3.04	cognitive	outcomerating	12	low_cue	med_stim	51.38	Strong	51.38	Strong	0.52	1.04	task-social/outcomerating/task-cognitive_scale.png	n/a	n/a	n/a	n/a	n/a	n/a	n/a	n/a
