onset	duration	run_type	trial_type	trial_index	cue	stimulusintensity	rating_value	rating_glmslabel	rating_value_fillna	rating_glmslabel_fillna	rating_mouseonset	rating_mousedur	stim_file	pain_onset_ttl1	pain_onset_ttl2	pain_onset_ttl3	pain_onset_ttl4	pain_stimulus_delivery_success	cognitive_correct_response	cognitive_participant_response	cognitive_response_accuracy
4.68	0.98	vicarious	cue	1	high_cue	n/a	n/a	n/a	n/a	n/a	n/a	n/a	task-social/cue/runtype-vicarious/sch/h026.png	n/a	n/a	n/a	n/a	n/a	n/a	n/a	n/a
7.12	3.15	vicarious	expectrating	1	high_cue	n/a	42.07	Strong	42.07	Strong	0.55	2.6	task-social/cue/runtype-vicarious/sch/h026.png	n/a	n/a	n/a	n/a	n/a	n/a	n/a	n/a
21.87	5.0	vicarious	stimulus	1	high_cue	low_stim	n/a	n/a	n/a	n/a	n/a	n/a	task-social/stim/runtype-vicarious/ll042t1aaunaff_L.mp4	n/a	n/a	n/a	n/a	n/a	n/a	n/a	n/a
31.29	2.63	vicarious	outcomerating	1	high_cue	low_stim	37.79	Strong	37.79	Strong	0.55	2.6	task-social/outcomerating/task-vicarious_scale.png	n/a	n/a	n/a	n/a	n/a	n/a	n/a	n/a
37.18	0.99	vicarious	cue	2	low_cue	n/a	n/a	n/a	n/a	n/a	n/a	n/a	task-social/cue/runtype-vicarious/scl/l036.png	n/a	n/a	n/a	n/a	n/a	n/a	n/a	n/a
38.98	2.26	vicarious	expectrating	2	low_cue	n/a	16.63	Moderate	16.63	Moderate	0.48	1.77	task-social/cue/runtype-vicarious/scl/l036.png	n/a	n/a	n/a	n/a	n/a	n/a	n/a	n/a
46.07	5.0	vicarious	stimulus	2	low_cue	low_stim	n/a	n/a	n/a	n/a	n/a	n/a	task-social/stim/runtype-vicarious/vw121t1aeaff_L.mp4	n/a	n/a	n/a	n/a	n/a	n/a	n/a	n/a
57.29	1.82	vicarious	outcomerating	2	low_cue	low_stim	1.38	Barely detectable	1.38	Barely detectable	0.48	1.77	task-social/outcomerating/task-vicarious_scale.png	n/a	n/a	n/a	n/a	n/a	n/a	n/a	n/a
62.17	1.0	vicarious	cue	3	low_cue	n/a	n/a	n/a	n/a	n/a	n/a	n/a	task-social/cue/runtype-vicarious/scl/l024.png	n/a	n/a	n/a	n/a	n/a	n/a	n/a	n/a
64.29	n/a	vicarious	expectrating	3	low_cue	n/a	n/a	n/a	11.31	Moderate	1.3	3.92	task-social/cue/runtype-vicarious/scl/l024.png	n/a	n/a	n/a	n/a	n/a	n/a	n/a	n/a
77.07	5.0	vicarious	stimulus	3	low_cue	med_stim	n/a	n/a	n/a	n/a	n/a	n/a	task-social/stim/runtype-vicarious/vw121t1aiaff_M.mp4	n/a	n/a	n/a	n/a	n/a	n/a	n/a	n/a
86.7	2.84	vicarious	outcomerating	3	low_cue	med_stim	23.68	Moderate	23.68	Moderate	1.3	3.92	task-social/outcomerating/task-vicarious_scale.png	n/a	n/a	n/a	n/a	n/a	n/a	n/a	n/a
91.78	0.98	vicarious	cue	4	low_cue	n/a	n/a	n/a	n/a	n/a	n/a	n/a	task-social/cue/runtype-vicarious/scl/l023.png	n/a	n/a	n/a	n/a	n/a	n/a	n/a	n/a
94.89	1.52	vicarious	expectrating	4	low_cue	n/a	9.69	Weak	9.69	Weak	0.4	1.12	task-social/cue/runtype-vicarious/scl/l023.png	n/a	n/a	n/a	n/a	n/a	n/a	n/a	n/a
106.07	5.0	vicarious	stimulus	4	low_cue	high_stim	n/a	n/a	n/a	n/a	n/a	n/a	task-social/stim/runtype-vicarious/th108t1aeaff_H.mp4	n/a	n/a	n/a	n/a	n/a	n/a	n/a	n/a
115.39	1.2	vicarious	outcomerating	4	low_cue	high_stim	98.78	Strongest sensation of any kind	98.78	Strongest sensation of any kind	0.4	1.12	task-social/outcomerating/task-vicarious_scale.png	n/a	n/a	n/a	n/a	n/a	n/a	n/a	n/a
120.09	0.97	vicarious	cue	5	high_cue	n/a	n/a	n/a	n/a	n/a	n/a	n/a	task-social/cue/runtype-vicarious/sch/h041.png	n/a	n/a	n/a	n/a	n/a	n/a	n/a	n/a
122.5	1.65	vicarious	expectrating	5	high_cue	n/a	45.16	Strong	45.16	Strong	0.37	1.28	task-social/cue/runtype-vicarious/sch/h041.png	n/a	n/a	n/a	n/a	n/a	n/a	n/a	n/a
134.08	5.0	vicarious	stimulus	5	high_cue	med_stim	n/a	n/a	n/a	n/a	n/a	n/a	task-social/stim/runtype-vicarious/ll042t1afunaff_M.mp4	n/a	n/a	n/a	n/a	n/a	n/a	n/a	n/a
144.69	2.47	vicarious	outcomerating	5	high_cue	med_stim	22.14	Moderate	22.14	Moderate	0.37	1.28	task-social/outcomerating/task-vicarious_scale.png	n/a	n/a	n/a	n/a	n/a	n/a	n/a	n/a
149.27	1.0	vicarious	cue	6	high_cue	n/a	n/a	n/a	n/a	n/a	n/a	n/a	task-social/cue/runtype-vicarious/sch/h022.png	n/a	n/a	n/a	n/a	n/a	n/a	n/a	n/a
151.39	2.55	vicarious	expectrating	6	high_cue	n/a	57.99	Strong	57.99	Strong	0.82	1.73	task-social/cue/runtype-vicarious/sch/h022.png	n/a	n/a	n/a	n/a	n/a	n/a	n/a	n/a
162.87	5.0	vicarious	stimulus	6	high_cue	high_stim	n/a	n/a	n/a	n/a	n/a	n/a	task-social/stim/runtype-vicarious/vw121t1aaaff_H.mp4	n/a	n/a	n/a	n/a	n/a	n/a	n/a	n/a
172.6	1.84	vicarious	outcomerating	6	high_cue	high_stim	109.61	Strongest sensation of any kind	109.61	Strongest sensation of any kind	0.82	1.73	task-social/outcomerating/task-vicarious_scale.png	n/a	n/a	n/a	n/a	n/a	n/a	n/a	n/a
178.58	0.99	vicarious	cue	7	high_cue	n/a	n/a	n/a	n/a	n/a	n/a	n/a	task-social/cue/runtype-vicarious/sch/h005.png	n/a	n/a	n/a	n/a	n/a	n/a	n/a	n/a
180.68	1.95	vicarious	expectrating	7	high_cue	n/a	23.01	Moderate	23.01	Moderate	0.72	1.24	task-social/cue/runtype-vicarious/sch/h005.png	n/a	n/a	n/a	n/a	n/a	n/a	n/a	n/a
189.27	5.0	vicarious	stimulus	7	high_cue	low_stim	n/a	n/a	n/a	n/a	n/a	n/a	task-social/stim/runtype-vicarious/dn124t1aaunaff_L.mp4	n/a	n/a	n/a	n/a	n/a	n/a	n/a	n/a
207.19	3.03	vicarious	outcomerating	7	high_cue	low_stim	29.35	Strong	29.35	Strong	0.72	1.24	task-social/outcomerating/task-vicarious_scale.png	n/a	n/a	n/a	n/a	n/a	n/a	n/a	n/a
218.98	0.99	vicarious	cue	8	high_cue	n/a	n/a	n/a	n/a	n/a	n/a	n/a	task-social/cue/runtype-vicarious/sch/h037.png	n/a	n/a	n/a	n/a	n/a	n/a	n/a	n/a
221.08	1.89	vicarious	expectrating	8	high_cue	n/a	42.37	Strong	42.37	Strong	0.75	1.14	task-social/cue/runtype-vicarious/sch/h037.png	n/a	n/a	n/a	n/a	n/a	n/a	n/a	n/a
227.97	5.0	vicarious	stimulus	8	high_cue	high_stim	n/a	n/a	n/a	n/a	n/a	n/a	task-social/stim/runtype-vicarious/dn124t1aiaff_H.mp4	n/a	n/a	n/a	n/a	n/a	n/a	n/a	n/a
240.59	2.22	vicarious	outcomerating	8	high_cue	high_stim	73.1	Very Strong	73.1	Very Strong	0.75	1.14	task-social/outcomerating/task-vicarious_scale.png	n/a	n/a	n/a	n/a	n/a	n/a	n/a	n/a
245.47	0.99	vicarious	cue	9	low_cue	n/a	n/a	n/a	n/a	n/a	n/a	n/a	task-social/cue/runtype-vicarious/scl/l031.png	n/a	n/a	n/a	n/a	n/a	n/a	n/a	n/a
248.58	1.82	vicarious	expectrating	9	low_cue	n/a	16.74	Moderate	16.74	Moderate	0.35	1.47	task-social/cue/runtype-vicarious/scl/l031.png	n/a	n/a	n/a	n/a	n/a	n/a	n/a	n/a
259.17	5.0	vicarious	stimulus	9	low_cue	low_stim	n/a	n/a	n/a	n/a	n/a	n/a	task-social/stim/runtype-vicarious/dr052t1aeunaff_L.mp4	n/a	n/a	n/a	n/a	n/a	n/a	n/a	n/a
270.48	2.24	vicarious	outcomerating	9	low_cue	low_stim	31.16	Strong	31.16	Strong	0.35	1.47	task-social/outcomerating/task-vicarious_scale.png	n/a	n/a	n/a	n/a	n/a	n/a	n/a	n/a
276.39	0.98	vicarious	cue	10	low_cue	n/a	n/a	n/a	n/a	n/a	n/a	n/a	task-social/cue/runtype-vicarious/scl/l027.png	n/a	n/a	n/a	n/a	n/a	n/a	n/a	n/a
279.49	1.53	vicarious	expectrating	10	low_cue	n/a	1.39	Barely detectable	1.39	Barely detectable	0.27	1.27	task-social/cue/runtype-vicarious/scl/l027.png	n/a	n/a	n/a	n/a	n/a	n/a	n/a	n/a
290.77	5.0	vicarious	stimulus	10	low_cue	med_stim	n/a	n/a	n/a	n/a	n/a	n/a	task-social/stim/runtype-vicarious/gf097t1aiaff_M.mp4	n/a	n/a	n/a	n/a	n/a	n/a	n/a	n/a
302.0	1.37	vicarious	outcomerating	10	low_cue	med_stim	2.73	Barely detectable	2.73	Barely detectable	0.27	1.27	task-social/outcomerating/task-vicarious_scale.png	n/a	n/a	n/a	n/a	n/a	n/a	n/a	n/a
322.99	0.98	vicarious	cue	11	low_cue	n/a	n/a	n/a	n/a	n/a	n/a	n/a	task-social/cue/runtype-vicarious/scl/l028.png	n/a	n/a	n/a	n/a	n/a	n/a	n/a	n/a
325.39	1.43	vicarious	expectrating	11	low_cue	n/a	2.33	Barely detectable	2.33	Barely detectable	0.47	0.97	task-social/cue/runtype-vicarious/scl/l028.png	n/a	n/a	n/a	n/a	n/a	n/a	n/a	n/a
332.77	5.0	vicarious	stimulus	11	low_cue	high_stim	n/a	n/a	n/a	n/a	n/a	n/a	task-social/stim/runtype-vicarious/gf097t2aaunaff_H.mp4	n/a	n/a	n/a	n/a	n/a	n/a	n/a	n/a
341.19	1.58	vicarious	outcomerating	11	low_cue	high_stim	0.92	No sensation	0.92	No sensation	0.47	0.97	task-social/outcomerating/task-vicarious_scale.png	n/a	n/a	n/a	n/a	n/a	n/a	n/a	n/a
362.28	0.98	vicarious	cue	12	high_cue	n/a	n/a	n/a	n/a	n/a	n/a	n/a	task-social/cue/runtype-vicarious/sch/h030.png	n/a	n/a	n/a	n/a	n/a	n/a	n/a	n/a
365.39	3.2	vicarious	expectrating	12	high_cue	n/a	55.93	Strong	55.93	Strong	0.52	2.68	task-social/cue/runtype-vicarious/sch/h030.png	n/a	n/a	n/a	n/a	n/a	n/a	n/a	n/a
377.47	5.0	vicarious	stimulus	12	high_cue	med_stim	n/a	n/a	n/a	n/a	n/a	n/a	task-social/stim/runtype-vicarious/bn080t1aeaff_M.mp4	n/a	n/a	n/a	n/a	n/a	n/a	n/a	n/a
394.1	n/a	vicarious	outcomerating	12	high_cue	med_stim	n/a	n/a	57.53	Strong	0.52	2.68	task-social/outcomerating/task-vicarious_scale.png	n/a	n/a	n/a	n/a	n/a	n/a	n/a	n/a
