onset	duration	run_type	trial_type	trial_index	cue	stimulusintensity	rating_value	rating_glmslabel	rating_value_fillna	rating_glmslabel_fillna	rating_mouseonset	rating_mousedur	stim_file	pain_onset_ttl1	pain_onset_ttl2	pain_onset_ttl3	pain_onset_ttl4	pain_stimulus_delivery_success	cognitive_correct_response	cognitive_participant_response	cognitive_response_accuracy
14.19	0.99	cognitive	cue	1	low_cue	n/a	n/a	n/a	n/a	n/a	n/a	n/a	task-social/cue/runtype-cognitive/scl/l037.png	n/a	n/a	n/a	n/a	n/a	n/a	n/a	n/a
16.03	n/a	cognitive	expectrating	1	low_cue	n/a	n/a	n/a	46.77	Strong	3.77	3.93	task-social/cue/runtype-cognitive/scl/l037.png	n/a	n/a	n/a	n/a	n/a	n/a	n/a	n/a
26.71	5.0	cognitive	stimulus	1	low_cue	low_stim	n/a	n/a	n/a	n/a	n/a	n/a	task-social/stim/runtype-cognitive/7_50.jpg	n/a	n/a	n/a	n/a	n/a	same	same	True
37.7	n/a	cognitive	outcomerating	1	low_cue	low_stim	n/a	n/a	5.05	Weak	3.77	3.93	task-social/outcomerating/task-cognitive_scale.png	n/a	n/a	n/a	n/a	n/a	n/a	n/a	n/a
43.8	0.98	cognitive	cue	2	low_cue	n/a	n/a	n/a	n/a	n/a	n/a	n/a	task-social/cue/runtype-cognitive/scl/l006.png	n/a	n/a	n/a	n/a	n/a	n/a	n/a	n/a
46.81	n/a	cognitive	expectrating	2	low_cue	n/a	n/a	n/a	4.49	Weak	0.42	1.9	task-social/cue/runtype-cognitive/scl/l006.png	n/a	n/a	n/a	n/a	n/a	n/a	n/a	n/a
57.49	5.0	cognitive	stimulus	2	low_cue	med_stim	n/a	n/a	n/a	n/a	n/a	n/a	task-social/stim/runtype-cognitive/35_100.jpg	n/a	n/a	n/a	n/a	n/a	same	same	True
69.3	n/a	cognitive	outcomerating	2	low_cue	med_stim	n/a	n/a	7.9	Weak	0.42	1.9	task-social/outcomerating/task-cognitive_scale.png	n/a	n/a	n/a	n/a	n/a	n/a	n/a	n/a
77.8	0.98	cognitive	cue	3	high_cue	n/a	n/a	n/a	n/a	n/a	n/a	n/a	task-social/cue/runtype-cognitive/sch/h017.png	n/a	n/a	n/a	n/a	n/a	n/a	n/a	n/a
80.82	n/a	cognitive	expectrating	3	high_cue	n/a	n/a	n/a	51.34	Strong	0.82	3.38	task-social/cue/runtype-cognitive/sch/h017.png	n/a	n/a	n/a	n/a	n/a	n/a	n/a	n/a
87.6	5.0	cognitive	stimulus	3	high_cue	med_stim	n/a	n/a	n/a	n/a	n/a	n/a	task-social/stim/runtype-cognitive/1_100_R.jpg	n/a	n/a	n/a	n/a	n/a	diff	n/a	False
97.41	n/a	cognitive	outcomerating	3	high_cue	med_stim	n/a	n/a	50.69	Strong	0.82	3.38	task-social/outcomerating/task-cognitive_scale.png	n/a	n/a	n/a	n/a	n/a	n/a	n/a	n/a
110.5	0.99	cognitive	cue	4	low_cue	n/a	n/a	n/a	n/a	n/a	n/a	n/a	task-social/cue/runtype-cognitive/scl/l023.png	n/a	n/a	n/a	n/a	n/a	n/a	n/a	n/a
112.4	n/a	cognitive	expectrating	4	low_cue	n/a	n/a	n/a	8.13	Weak	0.07	1.73	task-social/cue/runtype-cognitive/scl/l023.png	n/a	n/a	n/a	n/a	n/a	n/a	n/a	n/a
125.9	5.0	cognitive	stimulus	4	low_cue	high_stim	n/a	n/a	n/a	n/a	n/a	n/a	task-social/stim/runtype-cognitive/1_150.jpg	n/a	n/a	n/a	n/a	n/a	same	diff	False
136.11	n/a	cognitive	outcomerating	4	low_cue	high_stim	n/a	n/a	6.52	Weak	0.07	1.73	task-social/outcomerating/task-cognitive_scale.png	n/a	n/a	n/a	n/a	n/a	n/a	n/a	n/a
150.7	0.99	cognitive	cue	5	high_cue	n/a	n/a	n/a	n/a	n/a	n/a	n/a	task-social/cue/runtype-cognitive/sch/h016.png	n/a	n/a	n/a	n/a	n/a	n/a	n/a	n/a
152.4	n/a	cognitive	expectrating	5	high_cue	n/a	n/a	n/a	69.61	Very-Strong	0.72	1.52	task-social/cue/runtype-cognitive/sch/h016.png	n/a	n/a	n/a	n/a	n/a	n/a	n/a	n/a
160.9	5.0	cognitive	stimulus	5	high_cue	med_stim	n/a	n/a	n/a	n/a	n/a	n/a	task-social/stim/runtype-cognitive/24_100_R.jpg	n/a	n/a	n/a	n/a	n/a	diff	diff	True
173.81	n/a	cognitive	outcomerating	5	high_cue	med_stim	n/a	n/a	61.28	Strong	0.72	1.52	task-social/outcomerating/task-cognitive_scale.png	n/a	n/a	n/a	n/a	n/a	n/a	n/a	n/a
178.69	0.99	cognitive	cue	6	low_cue	n/a	n/a	n/a	n/a	n/a	n/a	n/a	task-social/cue/runtype-cognitive/scl/l048.png	n/a	n/a	n/a	n/a	n/a	n/a	n/a	n/a
181.79	n/a	cognitive	expectrating	6	low_cue	n/a	n/a	n/a	13.81	Moderate	0.05	2.5	task-social/cue/runtype-cognitive/scl/l048.png	n/a	n/a	n/a	n/a	n/a	n/a	n/a	n/a
189.99	5.0	cognitive	stimulus	6	low_cue	high_stim	n/a	n/a	n/a	n/a	n/a	n/a	task-social/stim/runtype-cognitive/26_150_R.jpg	n/a	n/a	n/a	n/a	n/a	diff	diff	True
200.1	n/a	cognitive	outcomerating	6	low_cue	high_stim	n/a	n/a	2.07	Barely-detectable	0.05	2.5	task-social/outcomerating/task-cognitive_scale.png	n/a	n/a	n/a	n/a	n/a	n/a	n/a	n/a
205.4	0.98	cognitive	cue	7	low_cue	n/a	n/a	n/a	n/a	n/a	n/a	n/a	task-social/cue/runtype-cognitive/scl/l008.png	n/a	n/a	n/a	n/a	n/a	n/a	n/a	n/a
208.4	n/a	cognitive	expectrating	7	low_cue	n/a	n/a	n/a	14.37	Moderate	0.35	1.82	task-social/cue/runtype-cognitive/scl/l008.png	n/a	n/a	n/a	n/a	n/a	n/a	n/a	n/a
219.71	5.0	cognitive	stimulus	7	low_cue	low_stim	n/a	n/a	n/a	n/a	n/a	n/a	task-social/stim/runtype-cognitive/26_50_R.jpg	n/a	n/a	n/a	n/a	n/a	diff	diff	True
232.61	n/a	cognitive	outcomerating	7	low_cue	low_stim	n/a	n/a	6.44	Weak	0.35	1.82	task-social/outcomerating/task-cognitive_scale.png	n/a	n/a	n/a	n/a	n/a	n/a	n/a	n/a
237.5	0.99	cognitive	cue	8	high_cue	n/a	n/a	n/a	n/a	n/a	n/a	n/a	task-social/cue/runtype-cognitive/sch/h055.png	n/a	n/a	n/a	n/a	n/a	n/a	n/a	n/a
239.2	n/a	cognitive	expectrating	8	high_cue	n/a	n/a	n/a	65.08	Very-Strong	0.47	1.88	task-social/cue/runtype-cognitive/sch/h055.png	n/a	n/a	n/a	n/a	n/a	n/a	n/a	n/a
246.0	5.0	cognitive	stimulus	8	high_cue	high_stim	n/a	n/a	n/a	n/a	n/a	n/a	task-social/stim/runtype-cognitive/22_150.jpg	n/a	n/a	n/a	n/a	n/a	same	same	True
257.91	n/a	cognitive	outcomerating	8	high_cue	high_stim	n/a	n/a	19.09	Moderate	0.47	1.88	task-social/outcomerating/task-cognitive_scale.png	n/a	n/a	n/a	n/a	n/a	n/a	n/a	n/a
265.79	0.99	cognitive	cue	9	high_cue	n/a	n/a	n/a	n/a	n/a	n/a	n/a	task-social/cue/runtype-cognitive/sch/h044.png	n/a	n/a	n/a	n/a	n/a	n/a	n/a	n/a
268.79	n/a	cognitive	expectrating	9	high_cue	n/a	n/a	n/a	61.73	Strong	0.45	1.73	task-social/cue/runtype-cognitive/sch/h044.png	n/a	n/a	n/a	n/a	n/a	n/a	n/a	n/a
277.0	5.0	cognitive	stimulus	9	high_cue	high_stim	n/a	n/a	n/a	n/a	n/a	n/a	task-social/stim/runtype-cognitive/24_150_R.jpg	n/a	n/a	n/a	n/a	n/a	diff	diff	True
288.0	n/a	cognitive	outcomerating	9	high_cue	high_stim	n/a	n/a	3.46	Weak	0.45	1.73	task-social/outcomerating/task-cognitive_scale.png	n/a	n/a	n/a	n/a	n/a	n/a	n/a	n/a
296.7	0.98	cognitive	cue	10	high_cue	n/a	n/a	n/a	n/a	n/a	n/a	n/a	task-social/cue/runtype-cognitive/sch/h021.png	n/a	n/a	n/a	n/a	n/a	n/a	n/a	n/a
299.5	n/a	cognitive	expectrating	10	high_cue	n/a	n/a	n/a	89.07	Very-Strong	0.48	2.95	task-social/cue/runtype-cognitive/sch/h021.png	n/a	n/a	n/a	n/a	n/a	n/a	n/a	n/a
316.09	5.0	cognitive	stimulus	10	high_cue	low_stim	n/a	n/a	n/a	n/a	n/a	n/a	task-social/stim/runtype-cognitive/20_50.jpg	n/a	n/a	n/a	n/a	n/a	same	same	True
327.0	n/a	cognitive	outcomerating	10	high_cue	low_stim	n/a	n/a	6.44	Weak	0.48	2.95	task-social/outcomerating/task-cognitive_scale.png	n/a	n/a	n/a	n/a	n/a	n/a	n/a	n/a
332.7	0.98	cognitive	cue	11	high_cue	n/a	n/a	n/a	n/a	n/a	n/a	n/a	task-social/cue/runtype-cognitive/sch/h028.png	n/a	n/a	n/a	n/a	n/a	n/a	n/a	n/a
335.6	n/a	cognitive	expectrating	11	high_cue	n/a	n/a	n/a	52.81	Strong	0.22	1.43	task-social/cue/runtype-cognitive/sch/h028.png	n/a	n/a	n/a	n/a	n/a	n/a	n/a	n/a
346.49	5.0	cognitive	stimulus	11	high_cue	low_stim	n/a	n/a	n/a	n/a	n/a	n/a	task-social/stim/runtype-cognitive/1_50_R.jpg	n/a	n/a	n/a	n/a	n/a	diff	diff	True
358.51	n/a	cognitive	outcomerating	11	high_cue	low_stim	n/a	n/a	12.8	Moderate	0.22	1.43	task-social/outcomerating/task-cognitive_scale.png	n/a	n/a	n/a	n/a	n/a	n/a	n/a	n/a
365.3	0.99	cognitive	cue	12	low_cue	n/a	n/a	n/a	n/a	n/a	n/a	n/a	task-social/cue/runtype-cognitive/scl/l052.png	n/a	n/a	n/a	n/a	n/a	n/a	n/a	n/a
367.2	n/a	cognitive	expectrating	12	low_cue	n/a	n/a	n/a	6.01	Weak	0.37	1.58	task-social/cue/runtype-cognitive/scl/l052.png	n/a	n/a	n/a	n/a	n/a	n/a	n/a	n/a
380.8	5.0	cognitive	stimulus	12	low_cue	med_stim	n/a	n/a	n/a	n/a	n/a	n/a	task-social/stim/runtype-cognitive/20_100_R.jpg	n/a	n/a	n/a	n/a	n/a	diff	diff	True
394.49	n/a	cognitive	outcomerating	12	low_cue	med_stim	n/a	n/a	5.34	Weak	0.37	1.58	task-social/outcomerating/task-cognitive_scale.png	n/a	n/a	n/a	n/a	n/a	n/a	n/a	n/a
