onset	duration	trial_type	response_x	response_y	situation	context	modality	stim_file
7.814	12.646	narrative_presentation	n/a	n/a	Enmity of kin	prison	Text	task-narratives/Narrative5Situation1.txt
20.461	1.701	rating_feeling	1119	569	Enmity of kin	prison	Text	task-narratives/Narrative5Situation1.txt
20.644	1.518	feeling_mouse_trajectory	1119	569	Enmity of kin	prison	Text	task-narratives/Narrative5Situation1.txt
24.503	2.134	rating_expectation	1141	583	Enmity of kin	prison	Text	task-narratives/Narrative5Situation1.txt
25.07	1.568	expectation_mouse_trajectory	1141	583	Enmity of kin	prison	Text	task-narratives/Narrative5Situation1.txt
31.557	28.118	narrative_presentation	n/a	n/a	The enigma	town	Text	task-narratives/Narrative5Situation2.txt
59.674	1.768	rating_feeling	1119	569	The enigma	town	Text	task-narratives/Narrative5Situation2.txt
59.908	1.535	feeling_mouse_trajectory	1119	569	The enigma	town	Text	task-narratives/Narrative5Situation2.txt
63.7	1.267	rating_expectation	1141	583	The enigma	town	Text	task-narratives/Narrative5Situation2.txt
64.15	0.817	expectation_mouse_trajectory	1141	583	The enigma	town	Text	task-narratives/Narrative5Situation2.txt
70.754	13.312	narrative_presentation	n/a	n/a	Discovery of dishonour of loved one	prison	Text	task-narratives/Narrative5Situation3.txt
84.067	2.776	rating_feeling	1119	569	Discovery of dishonour of loved one	prison	Text	task-narratives/Narrative5Situation3.txt
84.633	2.209	feeling_mouse_trajectory	1119	569	Discovery of dishonour of loved one	prison	Text	task-narratives/Narrative5Situation3.txt
88.092	1.757	rating_expectation	1141	583	Discovery of dishonour of loved one	prison	Text	task-narratives/Narrative5Situation3.txt
88.392	1.457	expectation_mouse_trajectory	1141	583	Discovery of dishonour of loved one	prison	Text	task-narratives/Narrative5Situation3.txt
93.147	20.147	narrative_presentation	n/a	n/a	Loss of loved one	swamp	Text	task-narratives/Narrative5Situation4.txt
113.294	1.184	rating_feeling	1119	569	Loss of loved one	swamp	Text	task-narratives/Narrative5Situation4.txt
113.627	0.851	feeling_mouse_trajectory	1119	569	Loss of loved one	swamp	Text	task-narratives/Narrative5Situation4.txt
117.319	2.084	rating_expectation	1141	583	Loss of loved one	swamp	Text	task-narratives/Narrative5Situation4.txt
117.369	2.034	expectation_mouse_trajectory	1141	583	Loss of loved one	swamp	Text	task-narratives/Narrative5Situation4.txt
126.375	14.118	narrative_presentation	n/a	n/a	Necessity of sacrificing loved ones	park	Text	task-narratives/Narrative5Situation5.txt
140.493	1.755	rating_feeling	1119	569	Necessity of sacrificing loved ones	park	Text	task-narratives/Narrative5Situation5.txt
140.827	1.421	feeling_mouse_trajectory	1119	569	Necessity of sacrificing loved ones	park	Text	task-narratives/Narrative5Situation5.txt
144.516	2.32	rating_expectation	1141	583	Necessity of sacrificing loved ones	park	Text	task-narratives/Narrative5Situation5.txt
145.099	1.737	expectation_mouse_trajectory	1141	583	Necessity of sacrificing loved ones	park	Text	task-narratives/Narrative5Situation5.txt
151.569	5.477	narrative_presentation	n/a	n/a	Daring Enterprise	swamp	Text	task-narratives/Narrative5Situation6.txt
157.047	3.568	rating_feeling	1119	569	Daring Enterprise	swamp	Text	task-narratives/Narrative5Situation6.txt
157.513	3.102	feeling_mouse_trajectory	1119	569	Daring Enterprise	swamp	Text	task-narratives/Narrative5Situation6.txt
161.069	1.084	rating_expectation	1141	583	Daring Enterprise	swamp	Text	task-narratives/Narrative5Situation6.txt
161.386	0.767	expectation_mouse_trajectory	1141	583	Daring Enterprise	swamp	Text	task-narratives/Narrative5Situation6.txt
169.124	20.834	narrative_presentation	n/a	n/a	Revolt	beach	Text	task-narratives/Narrative5Situation7.txt
189.958	3.983	rating_feeling	1119	569	Revolt	beach	Text	task-narratives/Narrative5Situation7.txt
192.258	1.683	feeling_mouse_trajectory	1119	569	Revolt	beach	Text	task-narratives/Narrative5Situation7.txt
193.982	2.251	rating_expectation	1141	583	Revolt	beach	Text	task-narratives/Narrative5Situation7.txt
194.016	2.218	expectation_mouse_trajectory	1141	583	Revolt	beach	Text	task-narratives/Narrative5Situation7.txt
201.036	7.275	narrative_presentation	n/a	n/a	Falling prey to misfortune	city	Text	task-narratives/Narrative5Situation8.txt
208.311	3.018	rating_feeling	1119	569	Falling prey to misfortune	city	Text	task-narratives/Narrative5Situation8.txt
208.961	2.368	feeling_mouse_trajectory	1119	569	Falling prey to misfortune	city	Text	task-narratives/Narrative5Situation8.txt
212.338	1.067	rating_expectation	1141	583	Falling prey to misfortune	city	Text	task-narratives/Narrative5Situation8.txt
212.705	0.701	expectation_mouse_trajectory	1141	583	Falling prey to misfortune	city	Text	task-narratives/Narrative5Situation8.txt
219.393	37.937	narrative_presentation	n/a	n/a	Mistaken jealousy	beach	Text	task-narratives/Narrative5Situation9.txt
257.331	2.118	rating_feeling	1119	569	Mistaken jealousy	beach	Text	task-narratives/Narrative5Situation9.txt
257.764	1.684	feeling_mouse_trajectory	1119	569	Mistaken jealousy	beach	Text	task-narratives/Narrative5Situation9.txt
261.356	2.876	rating_expectation	1141	583	Mistaken jealousy	beach	Text	task-narratives/Narrative5Situation9.txt
261.656	2.576	expectation_mouse_trajectory	1141	583	Mistaken jealousy	beach	Text	task-narratives/Narrative5Situation9.txt
267.428	25.982	narrative_presentation	n/a	n/a	Enmity of kin	prison	Text	task-narratives/Narrative6Situation1.txt
293.41	3.568	rating_feeling	1119	569	Enmity of kin	prison	Text	task-narratives/Narrative6Situation1.txt
293.443	3.535	feeling_mouse_trajectory	1119	569	Enmity of kin	prison	Text	task-narratives/Narrative6Situation1.txt
297.436	1.701	rating_expectation	1141	583	Enmity of kin	prison	Text	task-narratives/Narrative6Situation1.txt
297.886	1.251	expectation_mouse_trajectory	1141	583	Enmity of kin	prison	Text	task-narratives/Narrative6Situation1.txt
304.492	27.981	narrative_presentation	n/a	n/a	The enigma	town	Text	task-narratives/Narrative6Situation2.txt
332.473	2.951	rating_feeling	1119	569	The enigma	town	Text	task-narratives/Narrative6Situation2.txt
333.289	2.135	feeling_mouse_trajectory	1119	569	The enigma	town	Text	task-narratives/Narrative6Situation2.txt
336.501	2.118	rating_expectation	1141	583	The enigma	town	Text	task-narratives/Narrative6Situation2.txt
336.718	1.901	expectation_mouse_trajectory	1141	583	The enigma	town	Text	task-narratives/Narrative6Situation2.txt
345.557	11.976	narrative_presentation	n/a	n/a	Discovery of dishonour of loved one	prison	Text	task-narratives/Narrative6Situation3.txt
357.532	2.707	rating_feeling	1119	569	Discovery of dishonour of loved one	prison	Text	task-narratives/Narrative6Situation3.txt
357.582	2.657	feeling_mouse_trajectory	1119	569	Discovery of dishonour of loved one	prison	Text	task-narratives/Narrative6Situation3.txt
361.566	1.172	rating_expectation	1141	583	Discovery of dishonour of loved one	prison	Text	task-narratives/Narrative6Situation3.txt
361.599	1.139	expectation_mouse_trajectory	1141	583	Discovery of dishonour of loved one	prison	Text	task-narratives/Narrative6Situation3.txt
367.635	11.975	narrative_presentation	n/a	n/a	Loss of loved one	swamp	Text	task-narratives/Narrative6Situation4.txt
379.61	1.734	rating_feeling	1119	569	Loss of loved one	swamp	Text	task-narratives/Narrative6Situation4.txt
379.91	1.434	feeling_mouse_trajectory	1119	569	Loss of loved one	swamp	Text	task-narratives/Narrative6Situation4.txt
383.635	1.951	rating_expectation	1141	583	Loss of loved one	swamp	Text	task-narratives/Narrative6Situation4.txt
383.969	1.618	expectation_mouse_trajectory	1141	583	Loss of loved one	swamp	Text	task-narratives/Narrative6Situation4.txt
389.69	7.306	narrative_presentation	n/a	n/a	Necessity of sacrificing loved ones	park	Text	task-narratives/Narrative6Situation5.txt
396.996	2.892	rating_feeling	1119	569	Necessity of sacrificing loved ones	park	Text	task-narratives/Narrative6Situation5.txt
397.229	2.659	feeling_mouse_trajectory	1119	569	Necessity of sacrificing loved ones	park	Text	task-narratives/Narrative6Situation5.txt
401.025	2.074	rating_expectation	1141	583	Necessity of sacrificing loved ones	park	Text	task-narratives/Narrative6Situation5.txt
401.392	1.708	expectation_mouse_trajectory	1141	583	Necessity of sacrificing loved ones	park	Text	task-narratives/Narrative6Situation5.txt
407.08	10.814	narrative_presentation	n/a	n/a	Daring Enterprise	swamp	Text	task-narratives/Narrative6Situation6.txt
417.894	1.501	rating_feeling	1119	569	Daring Enterprise	swamp	Text	task-narratives/Narrative6Situation6.txt
418.328	1.068	feeling_mouse_trajectory	1119	569	Daring Enterprise	swamp	Text	task-narratives/Narrative6Situation6.txt
421.916	3.835	rating_expectation	1141	583	Daring Enterprise	swamp	Text	task-narratives/Narrative6Situation6.txt
422.233	3.518	expectation_mouse_trajectory	1141	583	Daring Enterprise	swamp	Text	task-narratives/Narrative6Situation6.txt
430.972	23.287	narrative_presentation	n/a	n/a	Revolt	beach	Text	task-narratives/Narrative6Situation7.txt
454.259	2.904	rating_feeling	1119	569	Revolt	beach	Text	task-narratives/Narrative6Situation7.txt
455.042	2.121	feeling_mouse_trajectory	1119	569	Revolt	beach	Text	task-narratives/Narrative6Situation7.txt
458.282	1.62	rating_expectation	1141	583	Revolt	beach	Text	task-narratives/Narrative6Situation7.txt
458.632	1.27	expectation_mouse_trajectory	1141	583	Revolt	beach	Text	task-narratives/Narrative6Situation7.txt
467.335	5.276	narrative_presentation	n/a	n/a	Falling prey to misfortune	city	Text	task-narratives/Narrative6Situation8.txt
472.611	2.768	rating_feeling	1119	569	Falling prey to misfortune	city	Text	task-narratives/Narrative6Situation8.txt
473.561	1.818	feeling_mouse_trajectory	1119	569	Falling prey to misfortune	city	Text	task-narratives/Narrative6Situation8.txt
476.637	1.834	rating_expectation	1141	583	Falling prey to misfortune	city	Text	task-narratives/Narrative6Situation8.txt
477.003	1.468	expectation_mouse_trajectory	1141	583	Falling prey to misfortune	city	Text	task-narratives/Narrative6Situation8.txt
484.695	9.326	narrative_presentation	n/a	n/a	Mistaken jealousy	beach	Text	task-narratives/Narrative6Situation9.txt
494.021	2.19	rating_feeling	1119	569	Mistaken jealousy	beach	Text	task-narratives/Narrative6Situation9.txt
494.621	1.59	feeling_mouse_trajectory	1119	569	Mistaken jealousy	beach	Text	task-narratives/Narrative6Situation9.txt
498.049	2.205	rating_expectation	1141	583	Mistaken jealousy	beach	Text	task-narratives/Narrative6Situation9.txt
498.849	1.405	expectation_mouse_trajectory	1141	583	Mistaken jealousy	beach	Text	task-narratives/Narrative6Situation9.txt
