onset	duration	trial_type	response_value	stim_file
2.765	106.336	video	n/a	task-alignvideo/ses-01_run-03_order-01_content-huggingpets.mp4
113.636	n/a	rating_relevance	n/a	task-alignvideo/ses-01_run-03_order-01_content-huggingpets.mp4
118.671	n/a	rating_happy	n/a	task-alignvideo/ses-01_run-03_order-01_content-huggingpets.mp4
123.707	n/a	rating_sad	n/a	task-alignvideo/ses-01_run-03_order-01_content-huggingpets.mp4
128.742	n/a	rating_afraid	n/a	task-alignvideo/ses-01_run-03_order-01_content-huggingpets.mp4
133.777	n/a	rating_disgusted	n/a	task-alignvideo/ses-01_run-03_order-01_content-huggingpets.mp4
138.812	n/a	rating_warm	n/a	task-alignvideo/ses-01_run-03_order-01_content-huggingpets.mp4
143.831	n/a	rating_engaged	n/a	task-alignvideo/ses-01_run-03_order-01_content-huggingpets.mp4
144.362	59.183	video	n/a	task-alignvideo/ses-01_run-03_order-02_content-bestfriendsweating.mp4
208.088	n/a	rating_relevance	n/a	task-alignvideo/ses-01_run-03_order-02_content-bestfriendsweating.mp4
213.123	n/a	rating_happy	n/a	task-alignvideo/ses-01_run-03_order-02_content-bestfriendsweating.mp4
218.159	n/a	rating_sad	n/a	task-alignvideo/ses-01_run-03_order-02_content-bestfriendsweating.mp4
223.194	n/a	rating_afraid	n/a	task-alignvideo/ses-01_run-03_order-02_content-bestfriendsweating.mp4
228.229	n/a	rating_disgusted	n/a	task-alignvideo/ses-01_run-03_order-02_content-bestfriendsweating.mp4
233.247	n/a	rating_warm	n/a	task-alignvideo/ses-01_run-03_order-02_content-bestfriendsweating.mp4
238.283	n/a	rating_engaged	n/a	task-alignvideo/ses-01_run-03_order-02_content-bestfriendsweating.mp4
238.814	20.931	video	n/a	task-alignvideo/ses-01_run-03_order-03_content-cupstacking.mp4
264.292	n/a	rating_relevance	n/a	task-alignvideo/ses-01_run-03_order-03_content-cupstacking.mp4
269.328	n/a	rating_happy	n/a	task-alignvideo/ses-01_run-03_order-03_content-cupstacking.mp4
274.363	n/a	rating_sad	n/a	task-alignvideo/ses-01_run-03_order-03_content-cupstacking.mp4
279.381	n/a	rating_afraid	n/a	task-alignvideo/ses-01_run-03_order-03_content-cupstacking.mp4
284.417	n/a	rating_disgusted	n/a	task-alignvideo/ses-01_run-03_order-03_content-cupstacking.mp4
287.501	2.567	rating_warm	42.81	task-alignvideo/ses-01_run-03_order-03_content-cupstacking.mp4
294.454	n/a	rating_engaged	n/a	task-alignvideo/ses-01_run-03_order-03_content-cupstacking.mp4
294.985	136.726	video	n/a	task-alignvideo/ses-01_run-03_order-04_content-dancewithdeath.mp4
436.257	n/a	rating_relevance	n/a	task-alignvideo/ses-01_run-03_order-04_content-dancewithdeath.mp4
441.292	n/a	rating_happy	n/a	task-alignvideo/ses-01_run-03_order-04_content-dancewithdeath.mp4
446.327	n/a	rating_sad	n/a	task-alignvideo/ses-01_run-03_order-04_content-dancewithdeath.mp4
451.362	n/a	rating_afraid	n/a	task-alignvideo/ses-01_run-03_order-04_content-dancewithdeath.mp4
456.381	n/a	rating_disgusted	n/a	task-alignvideo/ses-01_run-03_order-04_content-dancewithdeath.mp4
461.416	n/a	rating_warm	n/a	task-alignvideo/ses-01_run-03_order-04_content-dancewithdeath.mp4
466.434	n/a	rating_engaged	n/a	task-alignvideo/ses-01_run-03_order-04_content-dancewithdeath.mp4
