onset	duration	trial_type	response_value	rating_type	expression	sex	race	age	stim_file_TODO
3.833	1.367	face	n/a	age	disgust	female	WC	young	task-faces/4Disgust_Model4_1Female_1WC_1Young.mp4
5.2	1.817	rating	0.2172	age	disgust	female	WC	young	n/a
6.1	0.917	rating_mouse_trajectory	0.2172	age	disgust	female	WC	young	n/a
7.244	1.34	face	n/a	age	anger	female	WC	old	task-faces/5Anger_Model2_1Female_1WC_2Old.mp4
8.584	0.905	rating	0.6036	age	anger	female	WC	old	n/a
8.901	0.589	rating_mouse_trajectory	0.6036	age	anger	female	WC	old	n/a
10.525	1.327	face	n/a	age	disgust	male	WC	old	task-faces/4Disgust_Model1_2Male_1WC_2Old.mp4
11.852	1.103	rating	0.644	age	disgust	male	WC	old	n/a
12.219	0.736	rating_mouse_trajectory	0.644	age	disgust	male	WC	old	n/a
14.794	1.326	face	n/a	age	anger	female	African	old	task-faces/5Anger_Model4_1Female_3African_2Old.mp4
16.12	1.002	rating	0.6258	age	anger	female	African	old	n/a
16.487	0.635	rating_mouse_trajectory	0.6258	age	anger	female	African	old	n/a
18.051	1.304	face	n/a	age	surprise	male	African	young	task-faces/2Surprise_Model2_2Male_3African_1Young.mp4
19.355	0.852	rating	0.3224	age	surprise	male	African	young	n/a
19.705	0.502	rating_mouse_trajectory	0.3224	age	surprise	male	African	young	n/a
25.296	1.328	face	n/a	age	sad	male	WC	young	task-faces/6Sad_Model4_2Male_1WC_1Young.mp4
26.624	0.836	rating	0.3972	age	sad	male	WC	young	n/a
27.024	0.436	rating_mouse_trajectory	0.3972	age	sad	male	WC	young	n/a
28.547	1.328	face	n/a	age	fear	male	EA	young	task-faces/3Fear_Model5_2Male_2EA_1Young.mp4
29.875	0.902	rating	0.195	age	fear	male	EA	young	n/a
30.242	0.536	rating_mouse_trajectory	0.195	age	fear	male	EA	young	n/a
31.792	1.335	face	n/a	age	fear	male	African	old	task-faces/3Fear_Model3_2Male_3African_2Old.mp4
33.127	0.885	rating	0.6299	age	fear	male	African	old	n/a
33.427	0.585	rating_mouse_trajectory	0.6299	age	fear	male	African	old	n/a
35.033	1.328	face	n/a	age	surprise	male	EA	young	task-faces/2Surprise_Model3_2Male_2EA_1Young.mp4
36.361	1.002	rating	0.4235	age	surprise	male	EA	young	n/a
36.511	0.852	rating_mouse_trajectory	0.4235	age	surprise	male	EA	young	n/a
38.265	1.298	face	n/a	age	anger	male	EA	young	task-faces/5Anger_Model4_2Male_2EA_1Young.mp4
39.562	0.525	rating	0.466	age	anger	male	EA	young	n/a
n/a	n/a	rating_mouse_trajectory	0.466	age	anger	male	EA	young	n/a
43.486	2.045	face	n/a	age	pleasure	female	WC	young	task-faces/8Pleasure_Model2_1Female_1WC_1Young.mp4
45.531	0.774	rating	0.284	age	pleasure	female	WC	young	n/a
45.831	0.474	rating_mouse_trajectory	0.284	age	pleasure	female	WC	young	n/a
48.455	1.311	face	n/a	age	happy	male	African	old	task-faces/1Happy_Model2_2Male_3African_2Old.mp4
49.766	1.005	rating	0.8321	age	happy	male	African	old	n/a
50.049	0.722	rating_mouse_trajectory	0.8321	age	happy	male	African	old	n/a
53.691	1.361	face	n/a	age	happy	male	WC	young	task-faces/1Happy_Model4_2Male_1WC_1Young.mp4
55.051	0.503	rating	0.466	age	happy	male	WC	young	n/a
n/a	n/a	rating_mouse_trajectory	0.466	age	happy	male	WC	young	n/a
57.959	1.344	face	n/a	age	disgust	male	WC	young	task-faces/4Disgust_Model1_2Male_1WC_1Young.mp4
59.303	1.535	rating	0.2091	age	disgust	male	WC	young	n/a
59.703	1.135	rating_mouse_trajectory	0.2091	age	disgust	male	WC	young	n/a
62.209	1.329	face	n/a	age	fear	female	EA	young	task-faces/3Fear_Model5_1Female_2EA_1Young.mp4
63.538	1.469	rating	0.2273	age	fear	female	EA	young	n/a
63.921	1.085	rating_mouse_trajectory	0.2273	age	fear	female	EA	young	n/a
66.46	1.313	face	n/a	age	disgust	female	EA	young	task-faces/4Disgust_Model3_1Female_2EA_1Young.mp4
67.773	0.585	rating	0.462	age	disgust	female	EA	young	n/a
68.123	0.235	rating_mouse_trajectory	0.462	age	disgust	female	EA	young	n/a
70.694	1.331	face	n/a	age	disgust	male	African	young	task-faces/4Disgust_Model3_2Male_3African_1Young.mp4
72.024	1.413	rating	0.4478	age	disgust	male	African	young	n/a
72.308	1.13	rating_mouse_trajectory	0.4478	age	disgust	male	African	young	n/a
74.943	1.316	face	n/a	age	sad	female	WC	young	task-faces/6Sad_Model3_1Female_1WC_1Young.mp4
76.259	0.485	rating	0.466	age	sad	female	WC	young	n/a
n/a	n/a	rating_mouse_trajectory	0.466	age	sad	female	WC	young	n/a
81.176	2.052	face	n/a	age	pain	female	African	young	task-faces/7Pain_Model2_1Female_3African_1Young.mp4
83.229	0.751	rating	0.5409	age	pain	female	African	young	n/a
83.545	0.435	rating_mouse_trajectory	0.5409	age	pain	female	African	young	n/a
85.152	1.311	face	n/a	age	disgust	female	African	old	task-faces/4Disgust_Model1_1Female_3African_2Old.mp4
86.463	1.025	rating	0.731	age	disgust	female	African	old	n/a
86.563	0.925	rating_mouse_trajectory	0.731	age	disgust	female	African	old	n/a
89.387	2.061	face	n/a	age	pain	male	EA	young	task-faces/7Pain_Model5_2Male_2EA_1Young.mp4
91.448	0.956	rating	0.2941	age	pain	male	EA	young	n/a
91.798	0.606	rating_mouse_trajectory	0.2941	age	pain	male	EA	young	n/a
93.372	2.045	face	n/a	age	pleasure	male	EA	young	task-faces/8Pleasure_Model5_2Male_2EA_1Young.mp4
95.416	1.121	rating	0.2193	age	pleasure	male	EA	young	n/a
95.766	0.771	rating_mouse_trajectory	0.2193	age	pleasure	male	EA	young	n/a
98.341	1.328	face	n/a	age	fear	female	WC	young	task-faces/3Fear_Model1_1Female_1WC_1Young.mp4
99.668	1.637	rating	0.1383	age	fear	female	WC	young	n/a
100.135	1.17	rating_mouse_trajectory	0.1383	age	fear	female	WC	young	n/a
102.576	1.31	face	n/a	age	happy	female	WC	old	task-faces/1Happy_Model3_1Female_1WC_2Old.mp4
103.886	1.502	rating	0.6926	age	happy	female	WC	old	n/a
104.336	1.052	rating_mouse_trajectory	0.6926	age	happy	female	WC	old	n/a
106.791	1.314	face	n/a	age	fear	male	WC	young	task-faces/3Fear_Model2_2Male_1WC_1Young.mp4
108.105	0.501	rating	0.466	age	fear	male	WC	young	n/a
n/a	n/a	rating_mouse_trajectory	0.466	age	fear	male	WC	young	n/a
110.009	2.064	face	n/a	age	pain	male	WC	old	task-faces/7Pain_Model5_2Male_1WC_2Old.mp4
112.073	0.985	rating	0.7573	age	pain	male	WC	old	n/a
112.406	0.652	rating_mouse_trajectory	0.7573	age	pain	male	WC	old	n/a
113.995	1.328	face	n/a	age	happy	male	African	young	task-faces/1Happy_Model2_2Male_3African_1Young.mp4
115.324	1.852	rating	0.3831	age	happy	male	African	young	n/a
115.841	1.335	rating_mouse_trajectory	0.3831	age	happy	male	African	young	n/a
117.23	1.312	face	n/a	age	fear	male	WC	old	task-faces/3Fear_Model2_2Male_1WC_2Old.mp4
118.542	1.018	rating	0.7067	age	fear	male	WC	old	n/a
118.825	0.735	rating_mouse_trajectory	0.7067	age	fear	male	WC	old	n/a
121.46	2.05	face	n/a	age	pain	female	African	old	task-faces/7Pain_Model4_1Female_3African_2Old.mp4
123.51	0.785	rating	0.6804	age	pain	female	African	old	n/a
123.76	0.535	rating_mouse_trajectory	0.6804	age	pain	female	African	old	n/a
126.417	1.311	face	n/a	age	sad	male	WC	old	task-faces/6Sad_Model5_2Male_1WC_2Old.mp4
127.729	0.701	rating	0.5914	age	sad	male	WC	old	n/a
128.062	0.368	rating_mouse_trajectory	0.5914	age	sad	male	WC	old	n/a
130.642	1.321	face	n/a	age	surprise	female	EA	old	task-faces/2Surprise_Model1_1Female_2EA_2Old.mp4
131.963	0.841	rating	0.646	age	surprise	female	EA	old	n/a
132.33	0.474	rating_mouse_trajectory	0.646	age	surprise	female	EA	old	n/a
133.887	1.311	face	n/a	age	disgust	male	EA	old	task-faces/4Disgust_Model5_2Male_2EA_2Old.mp4
135.198	0.99	rating	0.6521	age	disgust	male	EA	old	n/a
135.498	0.69	rating_mouse_trajectory	0.6521	age	disgust	male	EA	old	n/a
137.109	1.306	face	n/a	age	happy	female	EA	old	task-faces/1Happy_Model2_1Female_2EA_2Old.mp4
138.416	1.505	rating	0.6379	age	happy	female	EA	old	n/a
138.833	1.089	rating_mouse_trajectory	0.6379	age	happy	female	EA	old	n/a
141.34	1.311	face	n/a	age	sad	female	African	young	task-faces/6Sad_Model1_1Female_3African_1Young.mp4
142.651	0.454	rating	0.466	age	sad	female	African	young	n/a
n/a	n/a	rating_mouse_trajectory	0.466	age	sad	female	African	young	n/a
144.556	1.312	face	n/a	age	happy	male	EA	old	task-faces/1Happy_Model4_2Male_2EA_2Old.mp4
145.869	0.819	rating	0.7633	age	happy	male	EA	old	n/a
145.919	0.769	rating_mouse_trajectory	0.7633	age	happy	male	EA	old	n/a
147.775	2.045	face	n/a	age	pleasure	male	African	young	task-faces/8Pleasure_Model4_2Male_3African_1Young.mp4
149.82	0.768	rating	0.4195	age	pleasure	male	African	young	n/a
149.87	0.718	rating_mouse_trajectory	0.4195	age	pleasure	male	African	young	n/a
153.726	1.313	face	n/a	age	fear	male	African	young	task-faces/3Fear_Model3_2Male_3African_1Young.mp4
155.039	0.635	rating	0.466	age	fear	male	African	young	n/a
n/a	n/a	rating_mouse_trajectory	0.466	age	fear	male	African	young	n/a
158.963	2.045	face	n/a	age	pleasure	female	African	old	task-faces/8Pleasure_Model2_1Female_3African_2Old.mp4
161.008	0.835	rating	0.6137	age	pleasure	female	African	old	n/a
161.274	0.569	rating_mouse_trajectory	0.6137	age	pleasure	female	African	old	n/a
165.926	1.317	face	n/a	age	surprise	male	WC	young	task-faces/2Surprise_Model2_2Male_1WC_1Young.mp4
167.243	0.735	rating	0.466	age	surprise	male	WC	young	n/a
n/a	n/a	rating_mouse_trajectory	0.466	age	surprise	male	WC	young	n/a
170.15	1.311	face	n/a	age	sad	female	African	old	task-faces/6Sad_Model5_1Female_3African_2Old.mp4
171.462	0.885	rating	0.5732	age	sad	female	African	old	n/a
171.928	0.418	rating_mouse_trajectory	0.5732	age	sad	female	African	old	n/a
174.377	1.303	face	n/a	age	surprise	female	African	young	task-faces/2Surprise_Model3_1Female_3African_1Young.mp4
175.68	0.508	rating	0.466	age	surprise	female	African	young	n/a
n/a	n/a	rating_mouse_trajectory	0.466	age	surprise	female	African	young	n/a
177.609	1.306	face	n/a	age	anger	male	EA	old	task-faces/5Anger_Model1_2Male_2EA_2Old.mp4
178.914	0.44	rating	0.466	age	anger	male	EA	old	n/a
n/a	n/a	rating_mouse_trajectory	0.466	age	anger	male	EA	old	n/a
181.838	1.311	face	n/a	age	anger	female	EA	old	task-faces/5Anger_Model2_1Female_2EA_2Old.mp4
183.149	0.972	rating	0.3892	age	anger	female	EA	old	n/a
183.766	0.355	rating_mouse_trajectory	0.3892	age	anger	female	EA	old	n/a
185.057	1.31	face	n/a	age	happy	female	African	young	task-faces/1Happy_Model5_1Female_3African_1Young.mp4
186.367	1.59	rating	0.3487	age	happy	female	African	young	n/a
186.85	1.106	rating_mouse_trajectory	0.3487	age	happy	female	African	young	n/a
190.291	1.311	face	n/a	age	fear	female	African	old	task-faces/3Fear_Model4_1Female_3African_2Old.mp4
191.602	0.602	rating	0.466	age	fear	female	African	old	n/a
n/a	n/a	rating_mouse_trajectory	0.466	age	fear	female	African	old	n/a
195.508	2.046	face	n/a	age	pain	male	African	young	task-faces/7Pain_Model5_2Male_3African_1Young.mp4
197.555	0.935	rating	0.3467	age	pain	male	African	young	n/a
197.955	0.535	rating_mouse_trajectory	0.3467	age	pain	male	African	young	n/a
200.476	1.313	face	n/a	age	disgust	female	African	young	task-faces/4Disgust_Model1_1Female_3African_1Young.mp4
201.789	1.168	rating	0.3083	age	disgust	female	African	young	n/a
202.423	0.535	rating_mouse_trajectory	0.3083	age	disgust	female	African	young	n/a
204.71	2.048	face	n/a	age	pleasure	male	WC	old	task-faces/8Pleasure_Model1_2Male_1WC_2Old.mp4
206.758	0.952	rating	0.5429	age	pleasure	male	WC	old	n/a
207.158	0.552	rating_mouse_trajectory	0.5429	age	pleasure	male	WC	old	n/a
209.665	1.311	face	n/a	age	disgust	male	African	old	task-faces/4Disgust_Model4_2Male_3African_2Old.mp4
210.976	0.952	rating	0.5793	age	disgust	male	African	old	n/a
211.31	0.618	rating_mouse_trajectory	0.5793	age	disgust	male	African	old	n/a
213.883	1.311	face	n/a	age	anger	male	WC	old	task-faces/5Anger_Model5_2Male_1WC_2Old.mp4
215.194	0.985	rating	0.466	age	anger	male	WC	old	n/a
n/a	n/a	rating_mouse_trajectory	0.466	age	anger	male	WC	old	n/a
218.109	1.32	face	n/a	age	sad	female	EA	young	task-faces/6Sad_Model4_1Female_2EA_1Young.mp4
219.429	1.575	rating	0.2759	age	sad	female	EA	young	n/a
219.796	1.208	rating_mouse_trajectory	0.2759	age	sad	female	EA	young	n/a
222.36	1.305	face	n/a	age	sad	male	African	young	task-faces/6Sad_Model5_2Male_3African_1Young.mp4
223.664	0.907	rating	0.3851	age	sad	male	African	young	n/a
224.014	0.557	rating_mouse_trajectory	0.3851	age	sad	male	African	young	n/a
226.588	1.311	face	n/a	age	happy	female	WC	young	task-faces/1Happy_Model3_1Female_1WC_1Young.mp4
227.899	0.905	rating	0.3345	age	happy	female	WC	young	n/a
228.283	0.522	rating_mouse_trajectory	0.3345	age	happy	female	WC	young	n/a
229.823	2.045	face	n/a	age	pain	female	WC	old	task-faces/7Pain_Model2_1Female_1WC_2Old.mp4
231.867	1.004	rating	0.5995	age	pain	female	WC	old	n/a
231.917	0.954	rating_mouse_trajectory	0.5995	age	pain	female	WC	old	n/a
233.773	1.312	face	n/a	age	fear	male	EA	old	task-faces/3Fear_Model3_2Male_2EA_2Old.mp4
235.085	0.419	rating	0.466	age	fear	male	EA	old	n/a
n/a	n/a	rating_mouse_trajectory	0.466	age	fear	male	EA	old	n/a
238.992	1.312	face	n/a	age	surprise	male	WC	old	task-faces/2Surprise_Model3_2Male_1WC_2Old.mp4
240.304	0.868	rating	0.6622	age	surprise	male	WC	old	n/a
240.687	0.485	rating_mouse_trajectory	0.6622	age	surprise	male	WC	old	n/a
242.226	1.312	face	n/a	age	sad	female	EA	old	task-faces/6Sad_Model2_1Female_2EA_2Old.mp4
243.538	0.551	rating	0.466	age	sad	female	EA	old	n/a
n/a	n/a	rating_mouse_trajectory	0.466	age	sad	female	EA	old	n/a
249.46	1.315	face	n/a	age	sad	male	EA	young	task-faces/6Sad_Model1_2Male_2EA_1Young.mp4
250.774	0.968	rating	0.2799	age	sad	male	EA	young	n/a
251.174	0.568	rating_mouse_trajectory	0.2799	age	sad	male	EA	young	n/a
252.693	2.05	face	n/a	age	pain	female	EA	young	task-faces/7Pain_Model3_1Female_2EA_1Young.mp4
254.743	0.962	rating	0.2536	age	pain	female	EA	young	n/a
255.026	0.679	rating_mouse_trajectory	0.2536	age	pain	female	EA	young	n/a
257.65	1.311	face	n/a	age	surprise	male	African	old	task-faces/2Surprise_Model5_2Male_3African_2Old.mp4
258.961	1.16	rating	0.7047	age	surprise	male	African	old	n/a
259.361	0.76	rating_mouse_trajectory	0.7047	age	surprise	male	African	old	n/a
261.868	1.311	face	n/a	age	sad	male	EA	old	task-faces/6Sad_Model3_2Male_2EA_2Old.mp4
263.179	0.959	rating	0.6986	age	sad	male	EA	old	n/a
263.446	0.692	rating_mouse_trajectory	0.6986	age	sad	male	EA	old	n/a
266.103	1.311	face	n/a	age	surprise	female	African	old	task-faces/2Surprise_Model3_1Female_3African_2Old.mp4
267.414	0.807	rating	0.5348	age	surprise	female	African	old	n/a
267.814	0.407	rating_mouse_trajectory	0.5348	age	surprise	female	African	old	n/a
269.337	1.311	face	n/a	age	surprise	male	EA	old	task-faces/2Surprise_Model5_2Male_2EA_2Old.mp4
270.649	0.856	rating	0.466	age	surprise	male	EA	old	n/a
n/a	n/a	rating_mouse_trajectory	0.466	age	surprise	male	EA	old	n/a
273.577	2.04	face	n/a	age	pleasure	male	WC	young	task-faces/8Pleasure_Model2_2Male_1WC_1Young.mp4
275.617	1.221	rating	0.3386	age	pleasure	male	WC	young	n/a
275.667	1.171	rating_mouse_trajectory	0.3386	age	pleasure	male	WC	young	n/a
277.523	1.312	face	n/a	age	happy	female	EA	young	task-faces/1Happy_Model3_1Female_2EA_1Young.mp4
278.835	1.12	rating	0.282	age	happy	female	EA	young	n/a
279.335	0.62	rating_mouse_trajectory	0.282	age	happy	female	EA	young	n/a
281.759	1.311	face	n/a	age	surprise	female	EA	young	task-faces/2Surprise_Model2_1Female_2EA_1Young.mp4
283.07	1.151	rating	0.4033	age	surprise	female	EA	young	n/a
283.47	0.751	rating_mouse_trajectory	0.4033	age	surprise	female	EA	young	n/a
285.976	1.312	face	n/a	age	disgust	male	EA	young	task-faces/4Disgust_Model1_2Male_2EA_1Young.mp4
287.288	1.118	rating	0.3325	age	disgust	male	EA	young	n/a
287.788	0.618	rating_mouse_trajectory	0.3325	age	disgust	male	EA	young	n/a
289.192	1.314	face	n/a	age	surprise	female	WC	young	task-faces/2Surprise_Model1_1Female_1WC_1Young.mp4
290.506	0.918	rating	0.3325	age	surprise	female	WC	young	n/a
290.806	0.618	rating_mouse_trajectory	0.3325	age	surprise	female	WC	young	n/a
294.426	1.315	face	n/a	age	fear	female	EA	old	task-faces/3Fear_Model3_1Female_2EA_2Old.mp4
295.741	0.768	rating	0.5307	age	fear	female	EA	old	n/a
295.958	0.552	rating_mouse_trajectory	0.5307	age	fear	female	EA	old	n/a
298.665	2.045	face	n/a	age	pain	male	WC	young	task-faces/7Pain_Model3_2Male_1WC_1Young.mp4
300.71	0.995	rating	0.375	age	pain	male	WC	young	n/a
301.026	0.678	rating_mouse_trajectory	0.375	age	pain	male	WC	young	n/a
303.627	2.051	face	n/a	age	pain	male	EA	old	task-faces/7Pain_Model2_2Male_2EA_2Old.mp4
305.678	0.851	rating	0.5611	age	pain	male	EA	old	n/a
306.078	0.451	rating_mouse_trajectory	0.5611	age	pain	male	EA	old	n/a
307.583	1.313	face	n/a	age	sad	female	WC	old	task-faces/6Sad_Model3_1Female_1WC_2Old.mp4
308.896	1.092	rating	0.5813	age	sad	female	WC	old	n/a
309.279	0.708	rating_mouse_trajectory	0.5813	age	sad	female	WC	old	n/a
310.818	2.046	face	n/a	age	pleasure	female	WC	old	task-faces/8Pleasure_Model4_1Female_1WC_2Old.mp4
312.864	0.89	rating	0.6561	age	pleasure	female	WC	old	n/a
313.164	0.59	rating_mouse_trajectory	0.6561	age	pleasure	female	WC	old	n/a
315.788	1.311	face	n/a	age	fear	female	African	young	task-faces/3Fear_Model1_1Female_3African_1Young.mp4
317.099	1.039	rating	0.2961	age	fear	female	African	young	n/a
317.566	0.572	rating_mouse_trajectory	0.2961	age	fear	female	African	young	n/a
320.024	1.31	face	n/a	age	anger	male	WC	young	task-faces/5Anger_Model3_2Male_1WC_1Young.mp4
321.334	0.937	rating	0.3042	age	anger	male	WC	young	n/a
321.751	0.52	rating_mouse_trajectory	0.3042	age	anger	male	WC	young	n/a
324.26	1.309	face	n/a	age	sad	male	African	old	task-faces/6Sad_Model3_2Male_3African_2Old.mp4
325.569	0.885	rating	0.5388	age	sad	male	African	old	n/a
326.069	0.385	rating_mouse_trajectory	0.5388	age	sad	male	African	old	n/a
327.473	1.314	face	n/a	age	fear	female	WC	old	task-faces/3Fear_Model2_1Female_1WC_2Old.mp4
328.787	0.801	rating	0.5307	age	fear	female	WC	old	n/a
329.17	0.418	rating_mouse_trajectory	0.5307	age	fear	female	WC	old	n/a
332.71	2.046	face	n/a	age	pain	female	WC	young	task-faces/7Pain_Model3_1Female_1WC_1Young.mp4
334.756	0.968	rating	0.2921	age	pain	female	WC	young	n/a
335.189	0.535	rating_mouse_trajectory	0.2921	age	pain	female	WC	young	n/a
337.676	1.314	face	n/a	age	happy	male	EA	young	task-faces/1Happy_Model3_2Male_2EA_1Young.mp4
338.991	1.469	rating	0.4943	age	happy	male	EA	young	n/a
339.807	0.652	rating_mouse_trajectory	0.4943	age	happy	male	EA	young	n/a
342.91	1.316	face	n/a	age	surprise	female	WC	old	task-faces/2Surprise_Model1_1Female_1WC_2Old.mp4
344.226	0.852	rating	0.6966	age	surprise	female	WC	old	n/a
344.526	0.552	rating_mouse_trajectory	0.6966	age	surprise	female	WC	old	n/a
347.133	2.045	face	n/a	age	pain	female	EA	old	task-faces/7Pain_Model5_1Female_2EA_2Old.mp4
349.178	1.477	rating	0.7795	age	pain	female	EA	old	n/a
349.544	1.11	rating_mouse_trajectory	0.7795	age	pain	female	EA	old	n/a
352.084	2.046	face	n/a	age	pleasure	female	EA	old	task-faces/8Pleasure_Model2_1Female_2EA_2Old.mp4
354.13	1.041	rating	0.6561	age	pleasure	female	EA	old	n/a
354.513	0.658	rating_mouse_trajectory	0.6561	age	pleasure	female	EA	old	n/a
358.042	2.04	face	n/a	age	pleasure	female	African	young	task-faces/8Pleasure_Model4_1Female_3African_1Young.mp4
360.082	0.889	rating	0.4256	age	pleasure	female	African	young	n/a
360.499	0.473	rating_mouse_trajectory	0.4256	age	pleasure	female	African	young	n/a
362.005	1.312	face	n/a	age	anger	male	African	young	task-faces/5Anger_Model3_2Male_3African_1Young.mp4
363.316	0.938	rating	0.462	age	anger	male	African	young	n/a
364.033	0.221	rating_mouse_trajectory	0.462	age	anger	male	African	young	n/a
365.24	1.311	face	n/a	age	anger	female	African	young	task-faces/5Anger_Model3_1Female_3African_1Young.mp4
366.551	1.587	rating	0.284	age	anger	female	African	young	n/a
366.901	1.237	rating_mouse_trajectory	0.284	age	anger	female	African	young	n/a
370.459	1.311	face	n/a	age	anger	female	EA	young	task-faces/5Anger_Model2_1Female_2EA_1Young.mp4
371.77	1.435	rating	0.2011	age	anger	female	EA	young	n/a
372.27	0.935	rating_mouse_trajectory	0.2011	age	anger	female	EA	young	n/a
374.676	2.045	face	n/a	age	pleasure	male	African	old	task-faces/8Pleasure_Model5_2Male_3African_2Old.mp4
376.721	1.085	rating	0.5712	age	pleasure	male	African	old	n/a
377.055	0.751	rating_mouse_trajectory	0.5712	age	pleasure	male	African	old	n/a
379.645	1.311	face	n/a	age	disgust	female	WC	old	task-faces/4Disgust_Model3_1Female_1WC_2Old.mp4
380.956	1.652	rating	0.5085	age	disgust	female	WC	old	n/a
381.79	0.818	rating_mouse_trajectory	0.5085	age	disgust	female	WC	old	n/a
385.876	1.316	face	n/a	age	anger	female	WC	young	task-faces/5Anger_Model3_1Female_1WC_1Young.mp4
387.192	1.521	rating	0.3062	age	anger	female	WC	young	n/a
387.559	1.154	rating_mouse_trajectory	0.3062	age	anger	female	WC	young	n/a
389.109	2.035	face	n/a	age	pain	male	African	old	task-faces/7Pain_Model3_2Male_3African_2Old.mp4
391.143	0.978	rating	0.6501	age	pain	male	African	old	n/a
391.493	0.628	rating_mouse_trajectory	0.6501	age	pain	male	African	old	n/a
395.051	1.312	face	n/a	age	happy	male	WC	old	task-faces/1Happy_Model4_2Male_1WC_2Old.mp4
396.362	1.109	rating	0.4862	age	happy	male	WC	old	n/a
397.079	0.393	rating_mouse_trajectory	0.4862	age	happy	male	WC	old	n/a
399.286	2.044	face	n/a	age	pleasure	male	EA	old	task-faces/8Pleasure_Model1_2Male_2EA_2Old.mp4
401.331	1.091	rating	0.5388	age	pleasure	male	EA	old	n/a
401.847	0.574	rating_mouse_trajectory	0.5388	age	pleasure	male	EA	old	n/a
405.255	2.045	face	n/a	age	pleasure	female	EA	young	task-faces/8Pleasure_Model4_1Female_2EA_1Young.mp4
407.299	1.738	rating	0.2718	age	pleasure	female	EA	young	n/a
407.933	1.105	rating_mouse_trajectory	0.2718	age	pleasure	female	EA	young	n/a
410.223	1.311	face	n/a	age	anger	male	African	old	task-faces/5Anger_Model1_2Male_3African_2Old.mp4
411.534	1.153	rating	0.6359	age	anger	male	African	old	n/a
412.051	0.637	rating_mouse_trajectory	0.6359	age	anger	male	African	old	n/a
413.44	1.312	face	n/a	age	happy	female	African	old	task-faces/1Happy_Model2_1Female_3African_2Old.mp4
414.752	1.219	rating	0.6036	age	happy	female	African	old	n/a
415.186	0.785	rating_mouse_trajectory	0.6036	age	happy	female	African	old	n/a
416.657	1.313	face	n/a	age	disgust	female	EA	old	task-faces/4Disgust_Model4_1Female_2EA_2Old.mp4
417.97	1.001	rating	0.6663	age	disgust	female	EA	old	n/a
418.37	0.601	rating_mouse_trajectory	0.6663	age	disgust	female	EA	old	n/a
