onset	duration	subtask_type	question	event_type	participant_response	normative_response	response_accuracy	stim_file	trial_index
0.075	2.034	tomspunt	reaching?	block_question_presentation	n/a	n/a	n/a	n/a	1
5.019	1.103	tomspunt	reaching?	how_hand	yes	yes	correct	task-fractional/runtype-tomspunt/H_007.jpg	1
6.436	0.869	tomspunt	reaching?	how_hand	no	no	correct	task-fractional/runtype-tomspunt/H_532.jpg	2
7.62	0.802	tomspunt	reaching?	how_hand	yes	yes	correct	task-fractional/runtype-tomspunt/H_474.jpg	3
8.737	1.069	tomspunt	reaching?	how_hand	yes	no	incorrect	task-fractional/runtype-tomspunt/H_438.jpg	4
10.121	1.017	tomspunt	reaching?	how_hand	no	yes	incorrect	task-fractional/runtype-tomspunt/H_364.jpg	5
11.438	0.935	tomspunt	reaching?	how_hand	yes	yes	correct	task-fractional/runtype-tomspunt/H_006.jpg	6
12.688	0.685	tomspunt	reaching?	how_hand	yes	yes	correct	task-fractional/runtype-tomspunt/H_003.jpg	7
13.689	0.885	tomspunt	reaching?	how_hand	no	no	correct	task-fractional/runtype-tomspunt/H_132.jpg	8
17.548	2.101	tomspunt	healthy?	block_question_presentation	n/a	n/a	n/a	n/a	9
22.559	0.894	tomspunt	healthy?	why_hand	yes	yes	correct	task-fractional/runtype-tomspunt/H_627.jpg	9
23.759	0.944	tomspunt	healthy?	why_hand	yes	yes	correct	task-fractional/runtype-tomspunt/H_438.jpg	10
25.01	1.26	tomspunt	healthy?	why_hand	yes	yes	correct	task-fractional/runtype-tomspunt/H_364.jpg	11
26.577	0.86	tomspunt	healthy?	why_hand	no	no	correct	task-fractional/runtype-tomspunt/H_130.jpg	12
27.744	0.825	tomspunt	healthy?	why_hand	yes	yes	correct	task-fractional/runtype-tomspunt/H_362.jpg	13
28.878	0.785	tomspunt	healthy?	why_hand	yes	no	incorrect	task-fractional/runtype-tomspunt/H_007.jpg	14
29.978	0.652	tomspunt	healthy?	why_hand	yes	yes	correct	task-fractional/runtype-tomspunt/H_167.jpg	15
30.945	0.625	tomspunt	healthy?	why_hand	no	no	correct	task-fractional/runtype-tomspunt/H_019.jpg	16
36.655	2.101	tomspunt	admiring?	block_question_presentation	n/a	n/a	n/a	n/a	17
41.666	0.77	tomspunt	admiring?	why_face	yes	yes	correct	task-fractional/runtype-tomspunt/F_779.jpg	17
42.75	0.721	tomspunt	admiring?	why_face	yes	yes	correct	task-fractional/runtype-tomspunt/F_593.jpg	18
43.783	0.686	tomspunt	admiring?	why_face	no	no	correct	task-fractional/runtype-tomspunt/F_110.jpg	19
44.784	0.853	tomspunt	admiring?	why_face	yes	yes	correct	task-fractional/runtype-tomspunt/F_590.jpg	20
45.951	0.835	tomspunt	admiring?	why_face	no	no	correct	task-fractional/runtype-tomspunt/F_692.jpg	21
47.101	0.768	tomspunt	admiring?	why_face	yes	yes	correct	task-fractional/runtype-tomspunt/F_759.jpg	22
48.185	0.768	tomspunt	admiring?	why_face	yes	yes	correct	task-fractional/runtype-tomspunt/F_648.jpg	23
49.269	0.619	tomspunt	admiring?	why_face	no	no	correct	task-fractional/runtype-tomspunt/F_129.jpg	24
55.612	2.101	tomspunt	smiling?	block_question_presentation	n/a	n/a	n/a	n/a	25
60.623	0.497	tomspunt	smiling?	how_face	yes	yes	correct	task-fractional/runtype-tomspunt/F_139.jpg	25
61.423	0.701	tomspunt	smiling?	how_face	no	no	correct	task-fractional/runtype-tomspunt/F_712.jpg	26
62.44	0.601	tomspunt	smiling?	how_face	yes	yes	correct	task-fractional/runtype-tomspunt/F_695.jpg	27
63.357	0.668	tomspunt	smiling?	how_face	no	no	correct	task-fractional/runtype-tomspunt/F_758.jpg	28
64.341	0.535	tomspunt	smiling?	how_face	yes	yes	correct	task-fractional/runtype-tomspunt/F_083.jpg	29
65.191	0.568	tomspunt	smiling?	how_face	yes	yes	correct	task-fractional/runtype-tomspunt/F_759.jpg	30
66.075	0.611	tomspunt	smiling?	how_face	no	no	correct	task-fractional/runtype-tomspunt/F_412.jpg	31
66.992	0.795	tomspunt	smiling?	how_face	yes	yes	correct	task-fractional/runtype-tomspunt/F_593.jpg	32
73.152	2.101	tomspunt	lifting?	block_question_presentation	n/a	n/a	n/a	n/a	33
78.163	1.152	tomspunt	lifting?	how_hand	no	yes	incorrect	task-fractional/runtype-tomspunt/H_136.jpg	33
79.63	0.635	tomspunt	lifting?	how_hand	no	no	correct	task-fractional/runtype-tomspunt/H_038.jpg	34
80.58	0.64	tomspunt	lifting?	how_hand	yes	yes	correct	task-fractional/runtype-tomspunt/H_189.jpg	35
81.531	0.772	tomspunt	lifting?	how_hand	no	no	correct	task-fractional/runtype-tomspunt/H_077.jpg	36
82.615	1.002	tomspunt	lifting?	how_hand	yes	yes	correct	task-fractional/runtype-tomspunt/H_443.jpg	37
83.932	0.905	tomspunt	lifting?	how_hand	no	no	correct	task-fractional/runtype-tomspunt/H_012.jpg	38
85.149	0.671	tomspunt	lifting?	how_hand	yes	yes	correct	task-fractional/runtype-tomspunt/H_362.jpg	39
86.132	1.171	tomspunt	lifting?	how_hand	no	yes	incorrect	task-fractional/runtype-tomspunt/H_170.jpg	40
95.627	2.101	tomspunt	helping?	block_question_presentation	n/a	n/a	n/a	n/a	41
100.638	0.635	tomspunt	helping?	why_hand	yes	yes	correct	task-fractional/runtype-tomspunt/H_077.jpg	41
101.588	0.835	tomspunt	helping?	why_hand	yes	yes	correct	task-fractional/runtype-tomspunt/H_349.jpg	42
102.739	0.864	tomspunt	helping?	why_hand	no	yes	incorrect	task-fractional/runtype-tomspunt/H_474.jpg	43
103.906	1.418	tomspunt	helping?	why_hand	no	yes	incorrect	task-fractional/runtype-tomspunt/H_024.jpg	44
105.64	1.218	tomspunt	helping?	why_hand	no	no	correct	task-fractional/runtype-tomspunt/H_012.jpg	45
107.174	0.952	tomspunt	helping?	why_hand	no	no	correct	task-fractional/runtype-tomspunt/H_159.jpg	46
108.441	0.919	tomspunt	helping?	why_hand	yes	yes	correct	task-fractional/runtype-tomspunt/H_111.jpg	47
109.675	0.845	tomspunt	helping?	why_hand	no	no	correct	task-fractional/runtype-tomspunt/H_091.jpg	48
113.5	2.101	tomspunt	proud?	block_question_presentation	n/a	n/a	n/a	n/a	49
118.511	1.276	tomspunt	proud?	why_face	no	yes	incorrect	task-fractional/runtype-tomspunt/F_598.jpg	49
120.095	0.808	tomspunt	proud?	why_face	no	no	correct	task-fractional/runtype-tomspunt/F_760.jpg	50
121.212	0.774	tomspunt	proud?	why_face	yes	yes	correct	task-fractional/runtype-tomspunt/F_582.jpg	51
122.296	0.669	tomspunt	proud?	why_face	no	no	correct	task-fractional/runtype-tomspunt/F_412.jpg	52
123.28	0.924	tomspunt	proud?	why_face	yes	yes	correct	task-fractional/runtype-tomspunt/F_083.jpg	53
124.513	0.973	tomspunt	proud?	why_face	no	no	correct	task-fractional/runtype-tomspunt/F_776.jpg	54
125.797	0.906	tomspunt	proud?	why_face	no	yes	incorrect	task-fractional/runtype-tomspunt/F_618.jpg	55
127.014	1.072	tomspunt	proud?	why_face	no	yes	incorrect	task-fractional/runtype-tomspunt/F_695.jpg	56
131.024	2.101	tomspunt	looking-to-side?	block_question_presentation	n/a	n/a	n/a	n/a	57
136.034	1.685	tomspunt	looking-to-side?	how_face	yes	yes	correct	task-fractional/runtype-tomspunt/F_590.jpg	57
138.035	0.585	tomspunt	looking-to-side?	how_face	yes	yes	correct	task-fractional/runtype-tomspunt/F_433.jpg	58
138.936	0.569	tomspunt	looking-to-side?	how_face	yes	yes	correct	task-fractional/runtype-tomspunt/F_716.jpg	59
139.819	0.851	tomspunt	looking-to-side?	how_face	no	no	correct	task-fractional/runtype-tomspunt/F_779.jpg	60
140.986	0.818	tomspunt	looking-to-side?	how_face	yes	yes	correct	task-fractional/runtype-tomspunt/F_760.jpg	61
142.12	0.718	tomspunt	looking-to-side?	how_face	no	no	correct	task-fractional/runtype-tomspunt/F_111.jpg	62
143.154	0.819	tomspunt	looking-to-side?	how_face	yes	yes	correct	task-fractional/runtype-tomspunt/F_110.jpg	63
144.288	0.869	tomspunt	looking-to-side?	how_face	no	no	correct	task-fractional/runtype-tomspunt/F_798.jpg	64
150.147	2.084	tomspunt	argument?	block_question_presentation	n/a	n/a	n/a	n/a	65
155.142	0.962	tomspunt	argument?	why_face	yes	yes	correct	task-fractional/runtype-tomspunt/F_716.jpg	65
156.409	0.601	tomspunt	argument?	why_face	no	no	correct	task-fractional/runtype-tomspunt/F_139.jpg	66
157.326	0.678	tomspunt	argument?	why_face	yes	yes	correct	task-fractional/runtype-tomspunt/F_712.jpg	67
158.309	0.602	tomspunt	argument?	why_face	no	no	correct	task-fractional/runtype-tomspunt/F_433.jpg	68
159.226	0.785	tomspunt	argument?	why_face	yes	yes	correct	task-fractional/runtype-tomspunt/F_403.jpg	69
160.327	0.802	tomspunt	argument?	why_face	no	no	correct	task-fractional/runtype-tomspunt/F_844.jpg	70
161.444	0.725	tomspunt	argument?	why_face	yes	yes	correct	task-fractional/runtype-tomspunt/F_743.jpg	71
162.478	1.009	tomspunt	argument?	why_face	yes	yes	correct	task-fractional/runtype-tomspunt/F_758.jpg	72
167.987	2.084	tomspunt	open-mouth?	block_question_presentation	n/a	n/a	n/a	n/a	73
172.982	0.821	tomspunt	open-mouth?	how_face	yes	yes	correct	task-fractional/runtype-tomspunt/F_844.jpg	73
174.115	0.537	tomspunt	open-mouth?	how_face	yes	yes	correct	task-fractional/runtype-tomspunt/F_776.jpg	74
174.966	0.638	tomspunt	open-mouth?	how_face	no	no	correct	task-fractional/runtype-tomspunt/F_544.jpg	75
175.916	0.57	tomspunt	open-mouth?	how_face	yes	yes	correct	task-fractional/runtype-tomspunt/F_692.jpg	76
176.8	0.67	tomspunt	open-mouth?	how_face	no	no	correct	task-fractional/runtype-tomspunt/F_584.jpg	77
177.783	0.603	tomspunt	open-mouth?	how_face	yes	yes	correct	task-fractional/runtype-tomspunt/F_403.jpg	78
178.7	0.586	tomspunt	open-mouth?	how_face	yes	yes	correct	task-fractional/runtype-tomspunt/F_086.jpg	79
179.601	0.586	tomspunt	open-mouth?	how_face	no	no	correct	task-fractional/runtype-tomspunt/F_648.jpg	80
185.877	2.084	tomspunt	pressing-button?	block_question_presentation	n/a	n/a	n/a	n/a	81
190.872	0.918	tomspunt	pressing-button?	how_hand	no	yes	incorrect	task-fractional/runtype-tomspunt/H_019.jpg	81
192.105	0.802	tomspunt	pressing-button?	how_hand	no	no	correct	task-fractional/runtype-tomspunt/H_024.jpg	82
193.222	0.714	tomspunt	pressing-button?	how_hand	no	no	correct	task-fractional/runtype-tomspunt/H_130.jpg	83
194.239	0.651	tomspunt	pressing-button?	how_hand	yes	yes	correct	task-fractional/runtype-tomspunt/H_502.jpg	84
195.206	0.602	tomspunt	pressing-button?	how_hand	no	no	correct	task-fractional/runtype-tomspunt/H_261.jpg	85
196.124	0.568	tomspunt	pressing-button?	how_hand	yes	yes	correct	task-fractional/runtype-tomspunt/H_332.jpg	86
197.007	0.662	tomspunt	pressing-button?	how_hand	yes	yes	correct	task-fractional/runtype-tomspunt/H_126.jpg	87
197.974	0.951	tomspunt	pressing-button?	how_hand	yes	yes	correct	task-fractional/runtype-tomspunt/H_483.jpg	88
203.667	2.084	tomspunt	competing?	block_question_presentation	n/a	n/a	n/a	n/a	89
208.662	0.725	tomspunt	competing?	why_hand	yes	yes	correct	task-fractional/runtype-tomspunt/H_261.jpg	89
209.695	0.685	tomspunt	competing?	why_hand	no	no	correct	task-fractional/runtype-tomspunt/H_483.jpg	90
210.696	0.774	tomspunt	competing?	why_hand	yes	yes	correct	task-fractional/runtype-tomspunt/H_132.jpg	91
211.779	0.791	tomspunt	competing?	why_hand	no	no	correct	task-fractional/runtype-tomspunt/H_126.jpg	92
212.88	1.14	tomspunt	competing?	why_hand	yes	yes	correct	task-fractional/runtype-tomspunt/H_136.jpg	93
214.33	0.856	tomspunt	competing?	why_hand	no	no	correct	task-fractional/runtype-tomspunt/H_502.jpg	94
215.497	0.972	tomspunt	competing?	why_hand	yes	yes	correct	task-fractional/runtype-tomspunt/H_003.jpg	95
216.781	1.072	tomspunt	competing?	why_hand	yes	yes	correct	task-fractional/runtype-tomspunt/H_170.jpg	96
221.724	2.101	tomspunt	self-doubt?	block_question_presentation	n/a	n/a	n/a	n/a	97
226.735	0.818	tomspunt	self-doubt?	why_face	yes	yes	correct	task-fractional/runtype-tomspunt/F_544.jpg	97
227.869	0.835	tomspunt	self-doubt?	why_face	no	no	correct	task-fractional/runtype-tomspunt/F_086.jpg	98
229.019	0.801	tomspunt	self-doubt?	why_face	yes	yes	correct	task-fractional/runtype-tomspunt/F_798.jpg	99
230.136	0.885	tomspunt	self-doubt?	why_face	yes	yes	correct	task-fractional/runtype-tomspunt/F_111.jpg	100
231.337	0.719	tomspunt	self-doubt?	why_face	no	no	correct	task-fractional/runtype-tomspunt/F_774.jpg	101
232.37	1.051	tomspunt	self-doubt?	why_face	yes	yes	correct	task-fractional/runtype-tomspunt/F_754.jpg	102
233.738	0.982	tomspunt	self-doubt?	why_face	no	no	correct	task-fractional/runtype-tomspunt/F_128.jpg	103
235.021	0.802	tomspunt	self-doubt?	why_face	no	yes	incorrect	task-fractional/runtype-tomspunt/F_584.jpg	104
240.781	2.101	tomspunt	looking-at-camera?	block_question_presentation	n/a	n/a	n/a	n/a	105
245.792	0.878	tomspunt	looking-at-camera?	how_face	yes	yes	correct	task-fractional/runtype-tomspunt/F_128.jpg	105
246.976	0.518	tomspunt	looking-at-camera?	how_face	yes	yes	correct	task-fractional/runtype-tomspunt/F_618.jpg	106
247.809	0.627	tomspunt	looking-at-camera?	how_face	yes	yes	correct	task-fractional/runtype-tomspunt/F_598.jpg	107
248.743	0.643	tomspunt	looking-at-camera?	how_face	no	no	correct	task-fractional/runtype-tomspunt/F_743.jpg	108
249.693	0.609	tomspunt	looking-at-camera?	how_face	yes	yes	correct	task-fractional/runtype-tomspunt/F_774.jpg	109
250.61	n/a	tomspunt	looking-at-camera?	how_face	n/a	no	incorrect	task-fractional/runtype-tomspunt/F_582.jpg	110
252.645	1.025	tomspunt	looking-at-camera?	how_face	no	no	correct	task-fractional/runtype-tomspunt/F_754.jpg	111
253.978	1.202	tomspunt	looking-at-camera?	how_face	no	yes	incorrect	task-fractional/runtype-tomspunt/F_129.jpg	112
259.572	2.101	tomspunt	both-hands?	block_question_presentation	n/a	n/a	n/a	n/a	113
264.582	1.137	tomspunt	both-hands?	how_hand	no	yes	incorrect	task-fractional/runtype-tomspunt/H_167.jpg	113
266.033	0.953	tomspunt	both-hands?	how_hand	no	no	correct	task-fractional/runtype-tomspunt/H_091.jpg	114
267.3	0.853	tomspunt	both-hands?	how_hand	no	no	correct	task-fractional/runtype-tomspunt/H_627.jpg	115
268.467	0.636	tomspunt	both-hands?	how_hand	yes	yes	correct	task-fractional/runtype-tomspunt/H_027.jpg	116
269.418	0.019	tomspunt	both-hands?	how_hand	yes	yes	correct	task-fractional/runtype-tomspunt/H_111.jpg	117
269.751	0.019	tomspunt	both-hands?	how_hand	yes	no	incorrect	task-fractional/runtype-tomspunt/H_159.jpg	118
270.084	1.202	tomspunt	both-hands?	how_hand	yes	yes	correct	task-fractional/runtype-tomspunt/H_581.jpg	119
271.602	0.735	tomspunt	both-hands?	how_hand	yes	yes	correct	task-fractional/runtype-tomspunt/H_349.jpg	120
278.362	2.101	tomspunt	self-protection?	block_question_presentation	n/a	n/a	n/a	n/a	121
283.373	1.085	tomspunt	self-protection?	why_hand	no	yes	incorrect	task-fractional/runtype-tomspunt/H_443.jpg	121
284.773	1.447	tomspunt	self-protection?	why_hand	no	no	correct	task-fractional/runtype-tomspunt/H_006.jpg	122
286.524	1.101	tomspunt	self-protection?	why_hand	no	yes	incorrect	task-fractional/runtype-tomspunt/H_581.jpg	123
287.941	1.018	tomspunt	self-protection?	why_hand	no	no	correct	task-fractional/runtype-tomspunt/H_532.jpg	124
289.275	0.735	tomspunt	self-protection?	why_hand	yes	yes	correct	task-fractional/runtype-tomspunt/H_027.jpg	125
290.325	0.018	tomspunt	self-protection?	why_hand	yes	yes	correct	task-fractional/runtype-tomspunt/H_038.jpg	126
290.659	1.723	tomspunt	self-protection?	why_hand	no	no	correct	task-fractional/runtype-tomspunt/H_332.jpg	127
292.693	1.368	tomspunt	self-protection?	why_hand	yes	yes	correct	task-fractional/runtype-tomspunt/H_189.jpg	128
299.837	2.101	tomspunt	smiling?	block_question_presentation	n/a	n/a	n/a	n/a	129
304.847	0.622	tomspunt	smiling?	how_face	yes	yes	correct	task-fractional/runtype-tomspunt/F_759.jpg	129
305.781	0.605	tomspunt	smiling?	how_face	no	no	correct	task-fractional/runtype-tomspunt/F_412.jpg	130
306.698	0.721	tomspunt	smiling?	how_face	yes	yes	correct	task-fractional/runtype-tomspunt/F_593.jpg	131
307.732	0.688	tomspunt	smiling?	how_face	no	no	correct	task-fractional/runtype-tomspunt/F_712.jpg	132
308.732	0.704	tomspunt	smiling?	how_face	yes	yes	correct	task-fractional/runtype-tomspunt/F_695.jpg	133
309.749	0.587	tomspunt	smiling?	how_face	no	yes	incorrect	task-fractional/runtype-tomspunt/F_139.jpg	134
310.65	0.887	tomspunt	smiling?	how_face	yes	yes	correct	task-fractional/runtype-tomspunt/F_083.jpg	135
311.85	0.753	tomspunt	smiling?	how_face	no	no	correct	task-fractional/runtype-tomspunt/F_758.jpg	136
317.627	2.101	tomspunt	admiring?	block_question_presentation	n/a	n/a	n/a	n/a	137
322.637	1.135	tomspunt	admiring?	why_face	yes	yes	correct	task-fractional/runtype-tomspunt/F_593.jpg	137
324.088	0.718	tomspunt	admiring?	why_face	no	no	correct	task-fractional/runtype-tomspunt/F_129.jpg	138
325.122	0.998	tomspunt	admiring?	why_face	yes	yes	correct	task-fractional/runtype-tomspunt/F_759.jpg	139
326.422	0.552	tomspunt	admiring?	why_face	no	no	correct	task-fractional/runtype-tomspunt/F_692.jpg	140
327.289	0.601	tomspunt	admiring?	why_face	yes	yes	correct	task-fractional/runtype-tomspunt/F_779.jpg	141
328.206	0.718	tomspunt	admiring?	why_face	yes	yes	correct	task-fractional/runtype-tomspunt/F_590.jpg	142
329.24	0.764	tomspunt	admiring?	why_face	yes	yes	correct	task-fractional/runtype-tomspunt/F_648.jpg	143
330.307	0.663	tomspunt	admiring?	why_face	no	no	correct	task-fractional/runtype-tomspunt/F_110.jpg	144
335.517	2.101	tomspunt	competing?	block_question_presentation	n/a	n/a	n/a	n/a	145
340.527	1.059	tomspunt	competing?	why_hand	yes	yes	correct	task-fractional/runtype-tomspunt/H_261.jpg	145
341.895	0.625	tomspunt	competing?	why_hand	yes	yes	correct	task-fractional/runtype-tomspunt/H_170.jpg	146
342.828	0.975	tomspunt	competing?	why_hand	no	no	correct	task-fractional/runtype-tomspunt/H_483.jpg	147
344.112	0.558	tomspunt	competing?	why_hand	yes	yes	correct	task-fractional/runtype-tomspunt/H_132.jpg	148
344.979	0.691	tomspunt	competing?	why_hand	yes	yes	correct	task-fractional/runtype-tomspunt/H_136.jpg	149
345.979	0.574	tomspunt	competing?	why_hand	yes	yes	correct	task-fractional/runtype-tomspunt/H_003.jpg	150
346.863	0.723	tomspunt	competing?	why_hand	no	no	correct	task-fractional/runtype-tomspunt/H_126.jpg	151
347.897	0.59	tomspunt	competing?	why_hand	no	no	correct	task-fractional/runtype-tomspunt/H_502.jpg	152
357.008	2.101	tomspunt	reaching?	block_question_presentation	n/a	n/a	n/a	n/a	153
362.019	1.402	tomspunt	reaching?	how_hand	yes	yes	correct	task-fractional/runtype-tomspunt/H_003.jpg	153
363.736	1.202	tomspunt	reaching?	how_hand	yes	yes	correct	task-fractional/runtype-tomspunt/H_364.jpg	154
365.253	0.718	tomspunt	reaching?	how_hand	yes	no	incorrect	task-fractional/runtype-tomspunt/H_532.jpg	155
366.287	1.619	tomspunt	reaching?	how_hand	yes	yes	correct	task-fractional/runtype-tomspunt/H_006.jpg	156
368.221	1.085	tomspunt	reaching?	how_hand	no	no	correct	task-fractional/runtype-tomspunt/H_438.jpg	157
369.622	0.998	tomspunt	reaching?	how_hand	yes	yes	correct	task-fractional/runtype-tomspunt/H_007.jpg	158
370.922	1.877	tomspunt	reaching?	how_hand	yes	yes	correct	task-fractional/runtype-tomspunt/H_474.jpg	159
372.956	0.018	tomspunt	reaching?	how_hand	yes	no	incorrect	task-fractional/runtype-tomspunt/H_132.jpg	160
374.848	2.101	tomspunt	open-mouth?	block_question_presentation	n/a	n/a	n/a	n/a	161
379.859	0.644	tomspunt	open-mouth?	how_face	yes	yes	correct	task-fractional/runtype-tomspunt/F_403.jpg	161
380.809	0.685	tomspunt	open-mouth?	how_face	no	no	correct	task-fractional/runtype-tomspunt/F_648.jpg	162
381.809	0.719	tomspunt	open-mouth?	how_face	yes	yes	correct	task-fractional/runtype-tomspunt/F_776.jpg	163
382.843	0.844	tomspunt	open-mouth?	how_face	no	no	correct	task-fractional/runtype-tomspunt/F_584.jpg	164
383.994	0.676	tomspunt	open-mouth?	how_face	yes	yes	correct	task-fractional/runtype-tomspunt/F_844.jpg	165
384.977	n/a	tomspunt	open-mouth?	how_face	n/a	yes	incorrect	task-fractional/runtype-tomspunt/F_692.jpg	166
387.011	1.575	tomspunt	open-mouth?	how_face	no	yes	incorrect	task-fractional/runtype-tomspunt/F_086.jpg	167
388.895	0.824	tomspunt	open-mouth?	how_face	no	no	correct	task-fractional/runtype-tomspunt/F_544.jpg	168
393.521	2.101	tomspunt	argument?	block_question_presentation	n/a	n/a	n/a	n/a	169
398.532	n/a	tomspunt	argument?	why_face	n/a	yes	incorrect	task-fractional/runtype-tomspunt/F_403.jpg	169
400.566	n/a	tomspunt	argument?	why_face	n/a	no	incorrect	task-fractional/runtype-tomspunt/F_844.jpg	170
402.601	1.319	tomspunt	argument?	why_face	no	yes	incorrect	task-fractional/runtype-tomspunt/F_712.jpg	171
404.234	0.768	tomspunt	argument?	why_face	yes	yes	correct	task-fractional/runtype-tomspunt/F_758.jpg	172
405.318	0.718	tomspunt	argument?	why_face	no	no	correct	task-fractional/runtype-tomspunt/F_433.jpg	173
406.352	0.818	tomspunt	argument?	why_face	yes	yes	correct	task-fractional/runtype-tomspunt/F_716.jpg	174
407.486	0.585	tomspunt	argument?	why_face	yes	no	incorrect	task-fractional/runtype-tomspunt/F_139.jpg	175
408.386	0.852	tomspunt	argument?	why_face	yes	yes	correct	task-fractional/runtype-tomspunt/F_743.jpg	176
411.745	2.101	tomspunt	helping?	block_question_presentation	n/a	n/a	n/a	n/a	177
416.756	1.019	tomspunt	helping?	why_hand	no	yes	incorrect	task-fractional/runtype-tomspunt/H_024.jpg	177
418.09	0.669	tomspunt	helping?	why_hand	yes	yes	correct	task-fractional/runtype-tomspunt/H_349.jpg	178
419.073	0.635	tomspunt	helping?	why_hand	yes	yes	correct	task-fractional/runtype-tomspunt/H_077.jpg	179
420.024	0.968	tomspunt	helping?	why_hand	yes	yes	correct	task-fractional/runtype-tomspunt/H_474.jpg	180
421.307	0.702	tomspunt	helping?	why_hand	no	no	correct	task-fractional/runtype-tomspunt/H_091.jpg	181
422.325	0.919	tomspunt	helping?	why_hand	no	no	correct	task-fractional/runtype-tomspunt/H_159.jpg	182
423.558	0.751	tomspunt	helping?	why_hand	yes	yes	correct	task-fractional/runtype-tomspunt/H_111.jpg	183
424.625	1.011	tomspunt	helping?	why_hand	no	no	correct	task-fractional/runtype-tomspunt/H_012.jpg	184
429.802	2.101	tomspunt	both-hands?	block_question_presentation	n/a	n/a	n/a	n/a	185
434.813	0.824	tomspunt	both-hands?	how_hand	yes	yes	correct	task-fractional/runtype-tomspunt/H_111.jpg	185
435.946	0.724	tomspunt	both-hands?	how_hand	yes	yes	correct	task-fractional/runtype-tomspunt/H_027.jpg	186
436.98	0.685	tomspunt	both-hands?	how_hand	no	no	correct	task-fractional/runtype-tomspunt/H_091.jpg	187
437.98	0.901	tomspunt	both-hands?	how_hand	yes	yes	correct	task-fractional/runtype-tomspunt/H_167.jpg	188
439.197	0.801	tomspunt	both-hands?	how_hand	yes	yes	correct	task-fractional/runtype-tomspunt/H_581.jpg	189
440.315	0.722	tomspunt	both-hands?	how_hand	no	no	correct	task-fractional/runtype-tomspunt/H_159.jpg	190
441.348	0.605	tomspunt	both-hands?	how_hand	yes	yes	correct	task-fractional/runtype-tomspunt/H_349.jpg	191
442.265	0.654	tomspunt	both-hands?	how_hand	no	no	correct	task-fractional/runtype-tomspunt/H_627.jpg	192
447.325	2.101	tomspunt	healthy?	block_question_presentation	n/a	n/a	n/a	n/a	193
452.336	0.752	tomspunt	healthy?	why_hand	yes	yes	correct	task-fractional/runtype-tomspunt/H_438.jpg	193
453.403	0.718	tomspunt	healthy?	why_hand	yes	yes	correct	task-fractional/runtype-tomspunt/H_364.jpg	194
454.437	0.583	tomspunt	healthy?	why_hand	yes	yes	correct	task-fractional/runtype-tomspunt/H_362.jpg	195
455.32	0.869	tomspunt	healthy?	why_hand	no	no	correct	task-fractional/runtype-tomspunt/H_019.jpg	196
456.504	0.585	tomspunt	healthy?	why_hand	yes	yes	correct	task-fractional/runtype-tomspunt/H_167.jpg	197
457.404	1.102	tomspunt	healthy?	why_hand	no	no	correct	task-fractional/runtype-tomspunt/H_007.jpg	198
458.821	0.968	tomspunt	healthy?	why_hand	yes	yes	correct	task-fractional/runtype-tomspunt/H_627.jpg	199
460.105	0.719	tomspunt	healthy?	why_hand	no	no	correct	task-fractional/runtype-tomspunt/H_130.jpg	200
466.382	2.101	tomspunt	pressing-button?	block_question_presentation	n/a	n/a	n/a	n/a	201
471.393	n/a	tomspunt	pressing-button?	how_hand	n/a	yes	incorrect	task-fractional/runtype-tomspunt/H_126.jpg	201
473.427	1.836	tomspunt	pressing-button?	how_hand	yes	no	incorrect	task-fractional/runtype-tomspunt/H_130.jpg	202
475.461	0.026	tomspunt	pressing-button?	how_hand	yes	yes	correct	task-fractional/runtype-tomspunt/H_483.jpg	203
475.794	0.635	tomspunt	pressing-button?	how_hand	no	no	correct	task-fractional/runtype-tomspunt/H_024.jpg	204
476.745	0.835	tomspunt	pressing-button?	how_hand	yes	yes	correct	task-fractional/runtype-tomspunt/H_332.jpg	205
477.895	0.641	tomspunt	pressing-button?	how_hand	yes	yes	correct	task-fractional/runtype-tomspunt/H_019.jpg	206
478.846	0.657	tomspunt	pressing-button?	how_hand	no	no	correct	task-fractional/runtype-tomspunt/H_261.jpg	207
479.813	0.507	tomspunt	pressing-button?	how_hand	yes	yes	correct	task-fractional/runtype-tomspunt/H_502.jpg	208
483.905	2.101	tomspunt	looking-at-camera?	block_question_presentation	n/a	n/a	n/a	n/a	209
488.916	0.587	tomspunt	looking-at-camera?	how_face	yes	yes	correct	task-fractional/runtype-tomspunt/F_618.jpg	209
489.816	0.72	tomspunt	looking-at-camera?	how_face	no	no	correct	task-fractional/runtype-tomspunt/F_754.jpg	210
490.85	0.453	tomspunt	looking-at-camera?	how_face	yes	yes	correct	task-fractional/runtype-tomspunt/F_129.jpg	211
491.617	0.553	tomspunt	looking-at-camera?	how_face	yes	yes	correct	task-fractional/runtype-tomspunt/F_598.jpg	212
492.484	0.569	tomspunt	looking-at-camera?	how_face	yes	yes	correct	task-fractional/runtype-tomspunt/F_128.jpg	213
493.368	1.052	tomspunt	looking-at-camera?	how_face	no	no	correct	task-fractional/runtype-tomspunt/F_582.jpg	214
494.735	0.668	tomspunt	looking-at-camera?	how_face	yes	yes	correct	task-fractional/runtype-tomspunt/F_774.jpg	215
495.719	0.651	tomspunt	looking-at-camera?	how_face	no	no	correct	task-fractional/runtype-tomspunt/F_743.jpg	216
502.879	2.101	tomspunt	self-doubt?	block_question_presentation	n/a	n/a	n/a	n/a	217
507.89	0.568	tomspunt	self-doubt?	why_face	yes	yes	correct	task-fractional/runtype-tomspunt/F_798.jpg	217
508.773	0.73	tomspunt	self-doubt?	why_face	no	no	correct	task-fractional/runtype-tomspunt/F_086.jpg	218
509.807	0.529	tomspunt	self-doubt?	why_face	yes	yes	correct	task-fractional/runtype-tomspunt/F_544.jpg	219
510.641	0.652	tomspunt	self-doubt?	why_face	yes	yes	correct	task-fractional/runtype-tomspunt/F_754.jpg	220
511.608	0.679	tomspunt	self-doubt?	why_face	yes	yes	correct	task-fractional/runtype-tomspunt/F_111.jpg	221
512.592	0.661	tomspunt	self-doubt?	why_face	yes	yes	correct	task-fractional/runtype-tomspunt/F_584.jpg	222
513.559	0.618	tomspunt	self-doubt?	why_face	no	no	correct	task-fractional/runtype-tomspunt/F_128.jpg	223
514.492	0.711	tomspunt	self-doubt?	why_face	no	no	correct	task-fractional/runtype-tomspunt/F_774.jpg	224
520.385	2.101	tomspunt	self-protection?	block_question_presentation	n/a	n/a	n/a	n/a	225
525.396	1.386	tomspunt	self-protection?	why_hand	no	yes	incorrect	task-fractional/runtype-tomspunt/H_581.jpg	225
527.097	0.706	tomspunt	self-protection?	why_hand	no	yes	incorrect	task-fractional/runtype-tomspunt/H_443.jpg	226
528.114	0.802	tomspunt	self-protection?	why_hand	no	no	correct	task-fractional/runtype-tomspunt/H_332.jpg	227
529.231	0.872	tomspunt	self-protection?	why_hand	yes	yes	correct	task-fractional/runtype-tomspunt/H_027.jpg	228
530.415	0.735	tomspunt	self-protection?	why_hand	no	no	correct	task-fractional/runtype-tomspunt/H_532.jpg	229
531.465	0.971	tomspunt	self-protection?	why_hand	yes	yes	correct	task-fractional/runtype-tomspunt/H_189.jpg	230
532.749	0.754	tomspunt	self-protection?	why_hand	no	no	correct	task-fractional/runtype-tomspunt/H_006.jpg	231
533.816	1.135	tomspunt	self-protection?	why_hand	yes	yes	correct	task-fractional/runtype-tomspunt/H_038.jpg	232
538.609	2.101	tomspunt	lifting?	block_question_presentation	n/a	n/a	n/a	n/a	233
543.62	1.068	tomspunt	lifting?	how_hand	no	yes	incorrect	task-fractional/runtype-tomspunt/H_443.jpg	233
545.004	0.885	tomspunt	lifting?	how_hand	no	no	correct	task-fractional/runtype-tomspunt/H_038.jpg	234
546.204	1.168	tomspunt	lifting?	how_hand	no	yes	incorrect	task-fractional/runtype-tomspunt/H_136.jpg	235
547.688	0.735	tomspunt	lifting?	how_hand	no	no	correct	task-fractional/runtype-tomspunt/H_012.jpg	236
548.738	0.601	tomspunt	lifting?	how_hand	yes	yes	correct	task-fractional/runtype-tomspunt/H_362.jpg	237
549.655	0.985	tomspunt	lifting?	how_hand	yes	yes	correct	task-fractional/runtype-tomspunt/H_189.jpg	238
550.956	0.935	tomspunt	lifting?	how_hand	no	yes	incorrect	task-fractional/runtype-tomspunt/H_170.jpg	239
552.206	0.964	tomspunt	lifting?	how_hand	no	no	correct	task-fractional/runtype-tomspunt/H_077.jpg	240
556.482	2.101	tomspunt	looking-to-side?	block_question_presentation	n/a	n/a	n/a	n/a	241
561.493	1.143	tomspunt	looking-to-side?	how_face	yes	yes	correct	task-fractional/runtype-tomspunt/F_716.jpg	241
562.944	1.135	tomspunt	looking-to-side?	how_face	no	no	correct	task-fractional/runtype-tomspunt/F_798.jpg	242
564.394	0.601	tomspunt	looking-to-side?	how_face	yes	yes	correct	task-fractional/runtype-tomspunt/F_760.jpg	243
565.311	1.168	tomspunt	looking-to-side?	how_face	no	yes	incorrect	task-fractional/runtype-tomspunt/F_110.jpg	244
566.795	0.642	tomspunt	looking-to-side?	how_face	yes	no	incorrect	task-fractional/runtype-tomspunt/F_779.jpg	245
567.745	0.841	tomspunt	looking-to-side?	how_face	yes	yes	correct	task-fractional/runtype-tomspunt/F_590.jpg	246
568.896	0.652	tomspunt	looking-to-side?	how_face	yes	no	incorrect	task-fractional/runtype-tomspunt/F_111.jpg	247
569.863	0.707	tomspunt	looking-to-side?	how_face	no	yes	incorrect	task-fractional/runtype-tomspunt/F_433.jpg	248
578.974	2.101	tomspunt	proud?	block_question_presentation	n/a	n/a	n/a	n/a	249
583.985	0.952	tomspunt	proud?	why_face	yes	yes	correct	task-fractional/runtype-tomspunt/F_083.jpg	249
585.252	0.885	tomspunt	proud?	why_face	yes	yes	correct	task-fractional/runtype-tomspunt/F_582.jpg	250
586.452	1.302	tomspunt	proud?	why_face	yes	yes	correct	task-fractional/runtype-tomspunt/F_618.jpg	251
588.07	0.917	tomspunt	proud?	why_face	no	no	correct	task-fractional/runtype-tomspunt/F_776.jpg	252
589.287	1.302	tomspunt	proud?	why_face	yes	yes	correct	task-fractional/runtype-tomspunt/F_598.jpg	253
590.904	1.418	tomspunt	proud?	why_face	no	no	correct	task-fractional/runtype-tomspunt/F_760.jpg	254
592.638	1.001	tomspunt	proud?	why_face	no	no	correct	task-fractional/runtype-tomspunt/F_412.jpg	255
593.955	1.318	tomspunt	proud?	why_face	yes	yes	correct	task-fractional/runtype-tomspunt/F_695.jpg	256
