onset	duration	trial_type	response_x	response_y	situation	context	modality	stim_file
4.847	54.309	narrative_presentation	n/a	n/a	Deliverance	prison	Audio	task-narratives/Narrative7Situation1.mp3
59.156	3.15	rating_feeling	758	535	Deliverance	prison	Audio	n/a
60.039	2.267	feeling_mouse_trajectory	758	535	Deliverance	prison	Audio	n/a
63.213	2.084	rating_expectation	748	567	Deliverance	prison	Audio	n/a
64.213	1.084	expectation_mouse_trajectory	748	567	Deliverance	prison	Audio	n/a
70.352	5.942	narrative_presentation	n/a	n/a	Adultery	prison	Audio	task-narratives/Narrative7Situation2.mp3
76.294	3.976	rating_feeling	758	535	Adultery	prison	Audio	n/a
77.061	3.209	feeling_mouse_trajectory	758	535	Adultery	prison	Audio	n/a
80.327	0.017	rating_expectation	748	567	Adultery	prison	Audio	n/a
80.394	-0.05	expectation_mouse_trajectory	748	567	Adultery	prison	Audio	n/a
92.411	7.441	narrative_presentation	n/a	n/a	Pursuit	prison	Audio	task-narratives/Narrative7Situation3.mp3
99.852	2.484	rating_feeling	758	535	Pursuit	prison	Audio	n/a
100.318	2.018	feeling_mouse_trajectory	758	535	Pursuit	prison	Audio	n/a
103.896	2.768	rating_expectation	748	567	Pursuit	prison	Audio	n/a
104.779	1.885	expectation_mouse_trajectory	748	567	Pursuit	prison	Audio	n/a
110.967	11.491	narrative_presentation	n/a	n/a	Conflict with a god	park	Audio	task-narratives/Narrative7Situation4.mp3
122.458	3.117	rating_feeling	758	535	Conflict with a god	park	Audio	n/a
123.841	1.733	feeling_mouse_trajectory	758	535	Conflict with a god	park	Audio	n/a
126.486	0.041	rating_expectation	748	567	Conflict with a god	park	Audio	n/a
126.753	-0.226	expectation_mouse_trajectory	748	567	Conflict with a god	park	Audio	n/a
135.567	7.987	narrative_presentation	n/a	n/a	Recovery of a lost one	park	Audio	task-narratives/Narrative7Situation5.mp3
143.554	1.667	rating_feeling	758	535	Recovery of a lost one	park	Audio	n/a
144.004	1.217	feeling_mouse_trajectory	758	535	Recovery of a lost one	park	Audio	n/a
147.58	1.484	rating_expectation	748	567	Recovery of a lost one	park	Audio	n/a
148.23	0.834	expectation_mouse_trajectory	748	567	Recovery of a lost one	park	Audio	n/a
154.666	8.777	narrative_presentation	n/a	n/a	Supplication	park	Audio	task-narratives/Narrative7Situation6.mp3
163.443	2.134	rating_feeling	758	535	Supplication	park	Audio	n/a
163.859	1.718	feeling_mouse_trajectory	758	535	Supplication	park	Audio	n/a
167.469	1.768	rating_expectation	748	567	Supplication	park	Audio	n/a
168.085	1.151	expectation_mouse_trajectory	748	567	Supplication	park	Audio	n/a
176.54	16.647	narrative_presentation	n/a	n/a	Involuntary crimes of love	hospital	Audio	task-narratives/Narrative7Situation7.mp3
193.187	2.368	rating_feeling	758	535	Involuntary crimes of love	hospital	Audio	n/a
193.77	1.784	feeling_mouse_trajectory	758	535	Involuntary crimes of love	hospital	Audio	n/a
197.213	1.451	rating_expectation	748	567	Involuntary crimes of love	hospital	Audio	n/a
197.813	0.851	expectation_mouse_trajectory	748	567	Involuntary crimes of love	hospital	Audio	n/a
203.267	8.776	narrative_presentation	n/a	n/a	An enemy loved	hospital	Audio	task-narratives/Narrative7Situation8.mp3
212.043	1.809	rating_feeling	758	535	An enemy loved	hospital	Audio	n/a
212.61	1.242	feeling_mouse_trajectory	758	535	An enemy loved	hospital	Audio	n/a
216.069	1.857	rating_expectation	748	567	An enemy loved	hospital	Audio	n/a
216.719	1.207	expectation_mouse_trajectory	748	567	An enemy loved	hospital	Audio	n/a
222.141	7.978	narrative_presentation	n/a	n/a	Ambition	hospital	Audio	task-narratives/Narrative7Situation9.mp3
230.119	3.035	rating_feeling	758	535	Ambition	hospital	Audio	n/a
231.485	1.669	feeling_mouse_trajectory	758	535	Ambition	hospital	Audio	n/a
234.147	3.935	rating_expectation	748	567	Ambition	hospital	Audio	n/a
235.614	2.468	expectation_mouse_trajectory	748	567	Ambition	hospital	Audio	n/a
243.232	15.318	narrative_presentation	n/a	n/a	Necessity of sacrificing loved ones	town	Audio	task-narratives/Narrative8Situation1.mp3
258.55	3.8	rating_feeling	758	535	Necessity of sacrificing loved ones	town	Audio	n/a
259.95	2.4	feeling_mouse_trajectory	758	535	Necessity of sacrificing loved ones	town	Audio	n/a
262.576	3.123	rating_expectation	748	567	Necessity of sacrificing loved ones	town	Audio	n/a
263.276	2.423	expectation_mouse_trajectory	748	567	Necessity of sacrificing loved ones	town	Audio	n/a
269.663	8.773	narrative_presentation	n/a	n/a	Abduction	town	Audio	task-narratives/Narrative8Situation2.mp3
278.435	2.568	rating_feeling	758	535	Abduction	town	Audio	n/a
279.318	1.685	feeling_mouse_trajectory	758	535	Abduction	town	Audio	n/a
282.461	2.334	rating_expectation	748	567	Abduction	town	Audio	n/a
283.161	1.634	expectation_mouse_trajectory	748	567	Abduction	town	Audio	n/a
290.517	22.152	narrative_presentation	n/a	n/a	Adultery	town	Audio	task-narratives/Narrative8Situation3.mp3
312.669	3.804	rating_feeling	758	535	Adultery	town	Audio	n/a
312.702	3.771	feeling_mouse_trajectory	758	535	Adultery	town	Audio	n/a
316.693	2.286	rating_expectation	748	567	Adultery	town	Audio	n/a
317.343	1.636	expectation_mouse_trajectory	748	567	Adultery	town	Audio	n/a
323.762	12.611	narrative_presentation	n/a	n/a	Obtaining	city	Audio	task-narratives/Narrative8Situation4.mp3
336.374	3.088	rating_feeling	758	535	Obtaining	city	Audio	n/a
337.34	2.122	feeling_mouse_trajectory	758	535	Obtaining	city	Audio	n/a
340.4	2.418	rating_expectation	748	567	Obtaining	city	Audio	n/a
341.016	1.801	expectation_mouse_trajectory	748	567	Obtaining	city	Audio	n/a
346.454	6.616	narrative_presentation	n/a	n/a	Supplication	city	Audio	task-narratives/Narrative8Situation5.mp3
353.07	2.473	rating_feeling	758	535	Supplication	city	Audio	n/a
353.553	1.989	feeling_mouse_trajectory	758	535	Supplication	city	Audio	n/a
357.093	1.921	rating_expectation	748	567	Supplication	city	Audio	n/a
357.56	1.454	expectation_mouse_trajectory	748	567	Supplication	city	Audio	n/a
363.145	5.974	narrative_presentation	n/a	n/a	Rivalry of kin	city	Audio	task-narratives/Narrative8Situation6.mp3
369.119	2.284	rating_feeling	758	535	Rivalry of kin	city	Audio	n/a
369.486	1.918	feeling_mouse_trajectory	758	535	Rivalry of kin	city	Audio	n/a
373.145	3.983	rating_expectation	748	567	Rivalry of kin	city	Audio	n/a
376.178	0.95	expectation_mouse_trajectory	748	567	Rivalry of kin	city	Audio	n/a
380.2	10.786	narrative_presentation	n/a	n/a	Recovery of a lost one	beach	Audio	task-narratives/Narrative8Situation7.mp3
390.986	1.734	rating_feeling	758	535	Recovery of a lost one	beach	Audio	n/a
391.602	1.117	feeling_mouse_trajectory	758	535	Recovery of a lost one	beach	Audio	n/a
395.02	1.757	rating_expectation	748	567	Recovery of a lost one	beach	Audio	n/a
395.586	1.19	expectation_mouse_trajectory	748	567	Recovery of a lost one	beach	Audio	n/a
402.092	11.28	narrative_presentation	n/a	n/a	Rivalry of superior versus inferior	beach	Audio	task-narratives/Narrative8Situation8.mp3
413.371	2.901	rating_feeling	758	535	Rivalry of superior versus inferior	beach	Audio	n/a
413.905	2.368	feeling_mouse_trajectory	758	535	Rivalry of superior versus inferior	beach	Audio	n/a
417.394	2.268	rating_expectation	748	567	Rivalry of superior versus inferior	beach	Audio	n/a
417.961	1.701	expectation_mouse_trajectory	748	567	Rivalry of superior versus inferior	beach	Audio	n/a
424.449	10.123	narrative_presentation	n/a	n/a	Slaying of kin unrecognized	beach	Audio	task-narratives/Narrative8Situation9.mp3
434.572	3.602	rating_feeling	758	535	Slaying of kin unrecognized	beach	Audio	n/a
436.156	2.018	feeling_mouse_trajectory	758	535	Slaying of kin unrecognized	beach	Audio	n/a
438.603	1.624	rating_expectation	748	567	Slaying of kin unrecognized	beach	Audio	n/a
439.119	1.108	expectation_mouse_trajectory	748	567	Slaying of kin unrecognized	beach	Audio	n/a
