onset	duration	trial_type	response_value	rating_type	expression	sex	race	age	stim_file_TODO
3.832	1.333	face	n/a	intensity	anger	female	African	old	task-faces/5Anger_Model3_1Female_3African_2Old.mp4
5.165	n/a	rating	n/a	intensity	anger	female	African	old	n/a
n/a	n/a	rating_mouse_trajectory	n/a	intensity	anger	female	African	old	n/a
7.225	1.308	face	n/a	intensity	anger	female	EA	old	task-faces/5Anger_Model3_1Female_2EA_2Old.mp4
8.533	n/a	rating	n/a	intensity	anger	female	EA	old	n/a
n/a	n/a	rating_mouse_trajectory	n/a	intensity	anger	female	EA	old	n/a
10.476	1.308	face	n/a	intensity	sad	male	WC	young	task-faces/6Sad_Model5_2Male_1WC_1Young.mp4
11.784	0.633	rating	0.286	intensity	sad	male	WC	young	n/a
12.234	0.183	rating_mouse_trajectory	0.286	intensity	sad	male	WC	young	n/a
14.727	1.308	face	n/a	intensity	anger	female	WC	young	task-faces/5Anger_Model5_1Female_1WC_1Young.mp4
16.035	0.5	rating	0.5227	intensity	anger	female	WC	young	n/a
16.469	0.067	rating_mouse_trajectory	0.5227	intensity	anger	female	WC	young	n/a
17.964	1.323	face	n/a	intensity	surprise	female	WC	young	task-faces/2Surprise_Model2_1Female_1WC_1Young.mp4
19.287	1.45	rating	0.282	intensity	surprise	female	WC	young	n/a
19.52	1.217	rating_mouse_trajectory	0.282	intensity	surprise	female	WC	young	n/a
25.228	2.045	face	n/a	intensity	pain	female	EA	old	task-faces/7Pain_Model3_1Female_2EA_2Old.mp4
27.273	0.767	rating	0.5975	intensity	pain	female	EA	old	n/a
27.773	0.267	rating_mouse_trajectory	0.5975	intensity	pain	female	EA	old	n/a
29.196	1.312	face	n/a	intensity	disgust	female	WC	old	task-faces/4Disgust_Model2_1Female_1WC_2Old.mp4
30.508	1.15	rating	0.29	intensity	disgust	female	WC	old	n/a
31.424	0.233	rating_mouse_trajectory	0.29	intensity	disgust	female	WC	old	n/a
32.426	1.3	face	n/a	intensity	happy	female	African	old	task-faces/1Happy_Model4_1Female_3African_2Old.mp4
33.725	1.383	rating	0.5166	intensity	happy	female	African	old	n/a
34.192	0.917	rating_mouse_trajectory	0.5166	intensity	happy	female	African	old	n/a
35.641	2.036	face	n/a	intensity	pain	male	African	young	task-faces/7Pain_Model4_2Male_3African_1Young.mp4
37.677	1.033	rating	0.3386	intensity	pain	male	African	young	n/a
38.127	0.583	rating_mouse_trajectory	0.3386	intensity	pain	male	African	young	n/a
39.592	1.302	face	n/a	intensity	happy	male	WC	young	task-faces/1Happy_Model2_2Male_1WC_1Young.mp4
40.895	0.567	rating	0.7108	intensity	happy	male	WC	young	n/a
41.195	0.267	rating_mouse_trajectory	0.7108	intensity	happy	male	WC	young	n/a
44.803	1.311	face	n/a	intensity	surprise	male	EA	young	task-faces/2Surprise_Model2_2Male_2EA_1Young.mp4
46.113	0.867	rating	0.1889	intensity	surprise	male	EA	young	n/a
46.747	0.233	rating_mouse_trajectory	0.1889	intensity	surprise	male	EA	young	n/a
49.043	1.305	face	n/a	intensity	surprise	male	EA	old	task-faces/2Surprise_Model1_2Male_2EA_2Old.mp4
50.348	1.45	rating	0.1687	intensity	surprise	male	EA	old	n/a
50.732	1.067	rating_mouse_trajectory	0.1687	intensity	surprise	male	EA	old	n/a
54.273	1.31	face	n/a	intensity	happy	male	African	young	task-faces/1Happy_Model5_2Male_3African_1Young.mp4
55.584	0.55	rating	0.7006	intensity	happy	male	African	young	n/a
55.934	0.2	rating_mouse_trajectory	0.7006	intensity	happy	male	African	young	n/a
58.508	2.044	face	n/a	intensity	pleasure	female	WC	old	task-faces/8Pleasure_Model1_1Female_1WC_2Old.mp4
60.552	1.467	rating	0.288	intensity	pleasure	female	WC	old	n/a
60.969	1.05	rating_mouse_trajectory	0.288	intensity	pleasure	female	WC	old	n/a
63.459	2.045	face	n/a	intensity	pleasure	male	EA	young	task-faces/8Pleasure_Model4_2Male_2EA_1Young.mp4
65.504	0.667	rating	0.2799	intensity	pleasure	male	EA	young	n/a
65.921	0.25	rating_mouse_trajectory	0.2799	intensity	pleasure	male	EA	young	n/a
68.41	2.046	face	n/a	intensity	pain	female	WC	old	task-faces/7Pain_Model5_1Female_1WC_2Old.mp4
70.456	1.4	rating	0.7209	intensity	pain	female	WC	old	n/a
70.622	1.233	rating_mouse_trajectory	0.7209	intensity	pain	female	WC	old	n/a
73.376	2.032	face	n/a	intensity	pain	female	EA	young	task-faces/7Pain_Model4_1Female_2EA_1Young.mp4
75.408	0.6	rating	0.1181	intensity	pain	female	EA	young	n/a
75.874	0.133	rating_mouse_trajectory	0.1181	intensity	pain	female	EA	young	n/a
78.326	2.033	face	n/a	intensity	pain	female	African	old	task-faces/7Pain_Model3_1Female_3African_2Old.mp4
80.359	1.133	rating	0.1687	intensity	pain	female	African	old	n/a
80.759	0.733	rating_mouse_trajectory	0.1687	intensity	pain	female	African	old	n/a
85.276	1.303	face	n/a	intensity	sad	female	EA	young	task-faces/6Sad_Model3_1Female_2EA_1Young.mp4
86.578	0.6	rating	0.2577	intensity	sad	female	EA	young	n/a
87.095	0.083	rating_mouse_trajectory	0.2577	intensity	sad	female	EA	young	n/a
88.501	1.312	face	n/a	intensity	anger	male	WC	young	task-faces/5Anger_Model4_2Male_1WC_1Young.mp4
89.813	0.6	rating	0.5631	intensity	anger	male	WC	young	n/a
90.346	0.067	rating_mouse_trajectory	0.5631	intensity	anger	male	WC	young	n/a
92.743	2.039	face	n/a	intensity	pain	male	WC	old	task-faces/7Pain_Model1_2Male_1WC_2Old.mp4
94.782	0.483	rating	0.6177	intensity	pain	male	WC	old	n/a
95.182	0.083	rating_mouse_trajectory	0.6177	intensity	pain	male	WC	old	n/a
96.705	1.311	face	n/a	intensity	fear	female	WC	young	task-faces/3Fear_Model2_1Female_1WC_1Young.mp4
98.016	1.867	rating	0.4074	intensity	fear	female	WC	young	n/a
99.399	0.483	rating_mouse_trajectory	0.4074	intensity	fear	female	WC	young	n/a
100.94	2.044	face	n/a	intensity	pain	male	EA	old	task-faces/7Pain_Model1_2Male_2EA_2Old.mp4
102.985	0.567	rating	0.3345	intensity	pain	male	EA	old	n/a
103.451	0.1	rating_mouse_trajectory	0.3345	intensity	pain	male	EA	old	n/a
105.893	1.31	face	n/a	intensity	sad	male	African	old	task-faces/6Sad_Model2_2Male_3African_2Old.mp4
107.203	1.6	rating	0.1019	intensity	sad	male	African	old	n/a
107.703	1.1	rating_mouse_trajectory	0.1019	intensity	sad	male	African	old	n/a
110.109	1.312	face	n/a	intensity	surprise	female	African	old	task-faces/2Surprise_Model1_1Female_3African_2Old.mp4
111.421	1.433	rating	0.3811	intensity	surprise	female	African	old	n/a
111.804	1.05	rating_mouse_trajectory	0.3811	intensity	surprise	female	African	old	n/a
113.342	1.314	face	n/a	intensity	anger	male	EA	old	task-faces/5Anger_Model3_2Male_2EA_2Old.mp4
114.656	1.033	rating	0.1849	intensity	anger	male	EA	old	n/a
115.089	0.6	rating_mouse_trajectory	0.1849	intensity	anger	male	EA	old	n/a
116.576	1.314	face	n/a	intensity	fear	male	WC	old	task-faces/3Fear_Model1_2Male_1WC_2Old.mp4
117.89	0.883	rating	0.375	intensity	fear	male	WC	old	n/a
118.257	0.517	rating_mouse_trajectory	0.375	intensity	fear	male	WC	old	n/a
119.808	2.05	face	n/a	intensity	pleasure	male	African	old	task-faces/8Pleasure_Model2_2Male_3African_2Old.mp4
121.858	0.15	rating	0.5995	intensity	pleasure	male	African	old	n/a
121.908	0.1	rating_mouse_trajectory	0.5995	intensity	pleasure	male	African	old	n/a
124.783	1.31	face	n/a	intensity	surprise	male	WC	young	task-faces/2Surprise_Model3_2Male_1WC_1Young.mp4
126.093	0.7	rating	0.3811	intensity	surprise	male	WC	young	n/a
126.26	0.533	rating_mouse_trajectory	0.3811	intensity	surprise	male	WC	young	n/a
129.01	1.302	face	n/a	intensity	surprise	male	African	young	task-faces/2Surprise_Model4_2Male_3African_1Young.mp4
130.311	0.85	rating	0.3851	intensity	surprise	male	African	young	n/a
131.078	0.083	rating_mouse_trajectory	0.3851	intensity	surprise	male	African	young	n/a
133.219	1.311	face	n/a	intensity	happy	female	WC	old	task-faces/1Happy_Model5_1Female_1WC_2Old.mp4
134.53	0.7	rating	0.3568	intensity	happy	female	WC	old	n/a
135.146	0.083	rating_mouse_trajectory	0.3568	intensity	happy	female	WC	old	n/a
136.453	1.312	face	n/a	intensity	disgust	female	EA	old	task-faces/4Disgust_Model3_1Female_2EA_2Old.mp4
137.764	1.417	rating	0.373	intensity	disgust	female	EA	old	n/a
138.814	0.367	rating_mouse_trajectory	0.373	intensity	disgust	female	EA	old	n/a
139.688	2.045	face	n/a	intensity	pleasure	female	EA	young	task-faces/8Pleasure_Model2_1Female_2EA_1Young.mp4
141.732	0.65	rating	0.3184	intensity	pleasure	female	EA	young	n/a
142.249	0.133	rating_mouse_trajectory	0.3184	intensity	pleasure	female	EA	young	n/a
144.642	2.042	face	n/a	intensity	pain	male	EA	young	task-faces/7Pain_Model3_2Male_2EA_1Young.mp4
146.684	0.717	rating	0.4215	intensity	pain	male	EA	young	n/a
147.368	0.033	rating_mouse_trajectory	0.4215	intensity	pain	male	EA	young	n/a
148.592	1.31	face	n/a	intensity	fear	female	EA	old	task-faces/3Fear_Model2_1Female_2EA_2Old.mp4
149.902	0.55	rating	0.379	intensity	fear	female	EA	old	n/a
150.402	0.05	rating_mouse_trajectory	0.379	intensity	fear	female	EA	old	n/a
151.808	1.312	face	n/a	intensity	disgust	male	African	young	task-faces/4Disgust_Model2_2Male_3African_1Young.mp4
153.12	0.783	rating	0.6663	intensity	disgust	male	African	young	n/a
153.587	0.317	rating_mouse_trajectory	0.6663	intensity	disgust	male	African	young	n/a
157.026	1.312	face	n/a	intensity	anger	male	African	old	task-faces/5Anger_Model5_2Male_3African_2Old.mp4
158.339	1.017	rating	0.6076	intensity	anger	male	African	old	n/a
159.305	0.05	rating_mouse_trajectory	0.6076	intensity	anger	male	African	old	n/a
162.26	2.047	face	n/a	intensity	pain	female	African	young	task-faces/7Pain_Model3_1Female_3African_1Young.mp4
164.307	1.333	rating	0.3103	intensity	pain	female	African	young	n/a
164.907	0.733	rating_mouse_trajectory	0.3103	intensity	pain	female	African	young	n/a
169.227	1.299	face	n/a	intensity	happy	male	WC	old	task-faces/1Happy_Model1_2Male_1WC_2Old.mp4
170.526	0.867	rating	0.4519	intensity	happy	male	WC	old	n/a
171.393	0.0	rating_mouse_trajectory	0.4519	intensity	happy	male	WC	old	n/a
173.434	1.311	face	n/a	intensity	surprise	male	WC	old	task-faces/2Surprise_Model5_2Male_1WC_2Old.mp4
174.745	1.383	rating	0.3224	intensity	surprise	male	WC	old	n/a
175.695	0.433	rating_mouse_trajectory	0.3224	intensity	surprise	male	WC	old	n/a
177.66	1.303	face	n/a	intensity	sad	male	EA	old	task-faces/6Sad_Model2_2Male_2EA_2Old.mp4
178.963	1.567	rating	0.1667	intensity	sad	male	EA	old	n/a
179.846	0.683	rating_mouse_trajectory	0.1667	intensity	sad	male	EA	old	n/a
180.886	1.311	face	n/a	intensity	sad	female	WC	young	task-faces/6Sad_Model5_1Female_1WC_1Young.mp4
182.197	1.3	rating	0.0959	intensity	sad	female	WC	young	n/a
182.614	0.883	rating_mouse_trajectory	0.0959	intensity	sad	female	WC	young	n/a
185.121	1.311	face	n/a	intensity	disgust	male	EA	young	task-faces/4Disgust_Model2_2Male_2EA_1Young.mp4
186.432	1.033	rating	0.2294	intensity	disgust	male	EA	young	n/a
186.549	0.917	rating_mouse_trajectory	0.2294	intensity	disgust	male	EA	young	n/a
188.355	1.312	face	n/a	intensity	sad	male	African	young	task-faces/6Sad_Model2_2Male_3African_1Young.mp4
189.667	n/a	rating	n/a	intensity	sad	male	African	young	n/a
n/a	n/a	rating_mouse_trajectory	n/a	intensity	sad	male	African	young	n/a
193.575	1.31	face	n/a	intensity	sad	male	WC	old	task-faces/6Sad_Model1_2Male_1WC_2Old.mp4
194.886	0.967	rating	0.1222	intensity	sad	male	WC	old	n/a
195.736	0.117	rating_mouse_trajectory	0.1222	intensity	sad	male	WC	old	n/a
198.792	2.046	face	n/a	intensity	pleasure	male	WC	old	task-faces/8Pleasure_Model2_2Male_1WC_2Old.mp4
200.838	0.75	rating	0.555	intensity	pleasure	male	WC	old	n/a
201.538	0.05	rating_mouse_trajectory	0.555	intensity	pleasure	male	WC	old	n/a
203.744	2.046	face	n/a	intensity	pleasure	male	African	young	task-faces/8Pleasure_Model2_2Male_3African_1Young.mp4
205.79	0.767	rating	0.6056	intensity	pleasure	male	African	young	n/a
206.29	0.267	rating_mouse_trajectory	0.6056	intensity	pleasure	male	African	young	n/a
208.713	1.311	face	n/a	intensity	disgust	female	African	old	task-faces/4Disgust_Model3_1Female_3African_2Old.mp4
210.025	1.533	rating	0.5449	intensity	disgust	female	African	old	n/a
210.525	1.033	rating_mouse_trajectory	0.5449	intensity	disgust	female	African	old	n/a
212.943	1.3	face	n/a	intensity	fear	male	EA	young	task-faces/3Fear_Model1_2Male_2EA_1Young.mp4
214.243	1.567	rating	0.0939	intensity	fear	male	EA	young	n/a
214.809	1.0	rating_mouse_trajectory	0.0939	intensity	fear	male	EA	young	n/a
217.159	1.302	face	n/a	intensity	surprise	female	WC	old	task-faces/2Surprise_Model3_1Female_1WC_2Old.mp4
218.461	0.617	rating	0.3447	intensity	surprise	female	WC	old	n/a
218.928	0.15	rating_mouse_trajectory	0.3447	intensity	surprise	female	WC	old	n/a
221.376	1.303	face	n/a	intensity	happy	male	EA	old	task-faces/1Happy_Model1_2Male_2EA_2Old.mp4
222.679	1.05	rating	0.2496	intensity	happy	male	EA	old	n/a
223.213	0.517	rating_mouse_trajectory	0.2496	intensity	happy	male	EA	old	n/a
225.604	1.31	face	n/a	intensity	anger	male	African	young	task-faces/5Anger_Model1_2Male_3African_1Young.mp4
226.914	0.7	rating	0.3649	intensity	anger	male	African	young	n/a
227.564	0.05	rating_mouse_trajectory	0.3649	intensity	anger	male	African	young	n/a
229.838	1.311	face	n/a	intensity	fear	female	WC	old	task-faces/3Fear_Model3_1Female_1WC_2Old.mp4
231.149	0.6	rating	0.3487	intensity	fear	female	WC	old	n/a
231.599	0.15	rating_mouse_trajectory	0.3487	intensity	fear	female	WC	old	n/a
233.076	1.308	face	n/a	intensity	disgust	female	African	young	task-faces/4Disgust_Model4_1Female_3African_1Young.mp4
234.384	0.667	rating	0.3588	intensity	disgust	female	African	young	n/a
234.85	0.2	rating_mouse_trajectory	0.3588	intensity	disgust	female	African	young	n/a
236.307	1.311	face	n/a	intensity	surprise	female	African	young	task-faces/2Surprise_Model4_1Female_3African_1Young.mp4
237.618	1.35	rating	0.3224	intensity	surprise	female	African	young	n/a
238.151	0.817	rating_mouse_trajectory	0.3224	intensity	surprise	female	African	young	n/a
241.525	1.311	face	n/a	intensity	fear	female	EA	young	task-faces/3Fear_Model2_1Female_2EA_1Young.mp4
242.837	0.667	rating	0.2456	intensity	fear	female	EA	young	n/a
243.32	0.183	rating_mouse_trajectory	0.2456	intensity	fear	female	EA	young	n/a
244.761	1.31	face	n/a	intensity	sad	female	African	young	task-faces/6Sad_Model5_1Female_3African_1Young.mp4
246.071	0.783	rating	0.3022	intensity	sad	female	African	young	n/a
246.621	0.233	rating_mouse_trajectory	0.3022	intensity	sad	female	African	young	n/a
251.996	1.312	face	n/a	intensity	anger	female	EA	young	task-faces/5Anger_Model1_1Female_2EA_1Young.mp4
253.307	1.433	rating	0.6218	intensity	anger	female	EA	young	n/a
253.907	0.833	rating_mouse_trajectory	0.6218	intensity	anger	female	EA	young	n/a
255.225	1.3	face	n/a	intensity	happy	male	African	old	task-faces/1Happy_Model3_2Male_3African_2Old.mp4
256.525	0.783	rating	0.5166	intensity	happy	male	African	old	n/a
257.275	0.033	rating_mouse_trajectory	0.5166	intensity	happy	male	African	old	n/a
259.443	1.3	face	n/a	intensity	fear	female	African	old	task-faces/3Fear_Model2_1Female_3African_2Old.mp4
260.743	1.317	rating	0.464	intensity	fear	female	African	old	n/a
261.06	1.0	rating_mouse_trajectory	0.464	intensity	fear	female	African	old	n/a
263.66	2.035	face	n/a	intensity	pleasure	male	EA	old	task-faces/8Pleasure_Model4_2Male_2EA_2Old.mp4
265.695	0.517	rating	0.7047	intensity	pleasure	male	EA	old	n/a
266.129	0.083	rating_mouse_trajectory	0.7047	intensity	pleasure	male	EA	old	n/a
268.626	1.304	face	n/a	intensity	happy	female	EA	old	task-faces/1Happy_Model5_1Female_2EA_2Old.mp4
269.93	0.567	rating	0.3993	intensity	happy	female	EA	old	n/a
270.447	0.05	rating_mouse_trajectory	0.3993	intensity	happy	female	EA	old	n/a
271.841	1.307	face	n/a	intensity	happy	female	WC	young	task-faces/1Happy_Model2_1Female_1WC_1Young.mp4
273.148	0.45	rating	0.3811	intensity	happy	female	WC	young	n/a
273.548	0.05	rating_mouse_trajectory	0.3811	intensity	happy	female	WC	young	n/a
276.072	1.311	face	n/a	intensity	happy	male	EA	young	task-faces/1Happy_Model2_2Male_2EA_1Young.mp4
277.383	0.483	rating	0.3224	intensity	happy	male	EA	young	n/a
277.783	0.083	rating_mouse_trajectory	0.3224	intensity	happy	male	EA	young	n/a
279.291	1.309	face	n/a	intensity	sad	female	EA	old	task-faces/6Sad_Model1_1Female_2EA_2Old.mp4
280.601	0.883	rating	0.2132	intensity	sad	female	EA	old	n/a
281.334	0.15	rating_mouse_trajectory	0.2132	intensity	sad	female	EA	old	n/a
283.509	2.044	face	n/a	intensity	pleasure	female	African	old	task-faces/8Pleasure_Model4_1Female_3African_2Old.mp4
285.553	1.217	rating	0.5712	intensity	pleasure	female	African	old	n/a
285.969	0.8	rating_mouse_trajectory	0.5712	intensity	pleasure	female	African	old	n/a
288.477	2.045	face	n/a	intensity	pain	male	African	old	task-faces/7Pain_Model4_2Male_3African_2Old.mp4
290.521	0.767	rating	0.5611	intensity	pain	male	African	old	n/a
291.205	0.083	rating_mouse_trajectory	0.5611	intensity	pain	male	African	old	n/a
292.442	2.047	face	n/a	intensity	pain	male	WC	young	task-faces/7Pain_Model5_2Male_1WC_1Young.mp4
294.489	0.883	rating	0.6642	intensity	pain	male	WC	young	n/a
294.906	0.467	rating_mouse_trajectory	0.6642	intensity	pain	male	WC	young	n/a
298.41	1.298	face	n/a	intensity	anger	female	WC	old	task-faces/5Anger_Model1_1Female_1WC_2Old.mp4
299.708	0.683	rating	0.7654	intensity	anger	female	WC	old	n/a
299.825	0.567	rating_mouse_trajectory	0.7654	intensity	anger	female	WC	old	n/a
302.626	1.317	face	n/a	intensity	anger	male	WC	old	task-faces/5Anger_Model3_2Male_1WC_2Old.mp4
303.943	0.667	rating	0.6885	intensity	anger	male	WC	old	n/a
304.36	0.25	rating_mouse_trajectory	0.6885	intensity	anger	male	WC	old	n/a
306.85	1.311	face	n/a	intensity	disgust	male	EA	old	task-faces/4Disgust_Model4_2Male_2EA_2Old.mp4
308.161	0.683	rating	0.5611	intensity	disgust	male	EA	old	n/a
308.778	0.067	rating_mouse_trajectory	0.5611	intensity	disgust	male	EA	old	n/a
310.084	1.311	face	n/a	intensity	fear	male	African	old	task-faces/3Fear_Model4_2Male_3African_2Old.mp4
311.396	1.8	rating	0.6218	intensity	fear	male	African	old	n/a
312.146	1.05	rating_mouse_trajectory	0.6218	intensity	fear	male	African	old	n/a
313.309	1.305	face	n/a	intensity	anger	male	EA	young	task-faces/5Anger_Model3_2Male_2EA_1Young.mp4
314.614	0.75	rating	0.1646	intensity	anger	male	EA	young	n/a
315.18	0.183	rating_mouse_trajectory	0.1646	intensity	anger	male	EA	young	n/a
317.526	1.306	face	n/a	intensity	fear	male	African	young	task-faces/3Fear_Model1_2Male_3African_1Young.mp4
318.832	0.733	rating	0.2294	intensity	fear	male	African	young	n/a
319.532	0.033	rating_mouse_trajectory	0.2294	intensity	fear	male	African	young	n/a
321.756	2.045	face	n/a	intensity	pleasure	male	WC	young	task-faces/8Pleasure_Model5_2Male_1WC_1Young.mp4
323.8	1.867	rating	0.2273	intensity	pleasure	male	WC	young	n/a
325.234	0.433	rating_mouse_trajectory	0.2273	intensity	pleasure	male	WC	young	n/a
326.726	1.309	face	n/a	intensity	sad	female	WC	old	task-faces/6Sad_Model1_1Female_1WC_2Old.mp4
328.035	1.45	rating	0.0655	intensity	sad	female	WC	old	n/a
328.669	0.817	rating_mouse_trajectory	0.0655	intensity	sad	female	WC	old	n/a
329.958	1.311	face	n/a	intensity	sad	female	African	old	task-faces/6Sad_Model4_1Female_3African_2Old.mp4
331.27	1.733	rating	0.0858	intensity	sad	female	African	old	n/a
331.703	1.3	rating_mouse_trajectory	0.0858	intensity	sad	female	African	old	n/a
335.176	1.312	face	n/a	intensity	disgust	male	WC	old	task-faces/4Disgust_Model3_2Male_1WC_2Old.mp4
336.488	0.867	rating	0.3022	intensity	disgust	male	WC	old	n/a
337.138	0.217	rating_mouse_trajectory	0.3022	intensity	disgust	male	WC	old	n/a
339.409	2.047	face	n/a	intensity	pleasure	female	African	young	task-faces/8Pleasure_Model5_1Female_3African_1Young.mp4
341.457	1.867	rating	0.6744	intensity	pleasure	female	African	young	n/a
341.857	1.467	rating_mouse_trajectory	0.6744	intensity	pleasure	female	African	young	n/a
345.377	2.049	face	n/a	intensity	pleasure	female	WC	young	task-faces/8Pleasure_Model1_1Female_1WC_1Young.mp4
347.426	0.85	rating	0.3588	intensity	pleasure	female	WC	young	n/a
348.242	0.033	rating_mouse_trajectory	0.3588	intensity	pleasure	female	WC	young	n/a
350.343	2.035	face	n/a	intensity	pleasure	female	EA	old	task-faces/8Pleasure_Model3_1Female_2EA_2Old.mp4
352.378	1.167	rating	0.3608	intensity	pleasure	female	EA	old	n/a
352.744	0.8	rating_mouse_trajectory	0.3608	intensity	pleasure	female	EA	old	n/a
355.294	2.036	face	n/a	intensity	pain	female	WC	young	task-faces/7Pain_Model2_1Female_1WC_1Young.mp4
357.329	0.467	rating	0.5975	intensity	pain	female	WC	young	n/a
357.546	0.25	rating_mouse_trajectory	0.5975	intensity	pain	female	WC	young	n/a
361.259	1.306	face	n/a	intensity	surprise	female	EA	old	task-faces/2Surprise_Model4_1Female_2EA_2Old.mp4
362.565	0.483	rating	0.3204	intensity	surprise	female	EA	old	n/a
362.998	0.05	rating_mouse_trajectory	0.3204	intensity	surprise	female	EA	old	n/a
364.492	1.307	face	n/a	intensity	happy	female	EA	young	task-faces/1Happy_Model4_1Female_2EA_1Young.mp4
365.799	0.917	rating	0.4296	intensity	happy	female	EA	young	n/a
366.016	0.7	rating_mouse_trajectory	0.4296	intensity	happy	female	EA	young	n/a
367.725	1.309	face	n/a	intensity	fear	female	African	young	task-faces/3Fear_Model5_1Female_3African_1Young.mp4
369.034	1.15	rating	0.5813	intensity	fear	female	African	young	n/a
369.084	1.1	rating_mouse_trajectory	0.5813	intensity	fear	female	African	young	n/a
372.942	1.31	face	n/a	intensity	disgust	male	African	old	task-faces/4Disgust_Model1_2Male_3African_2Old.mp4
374.252	0.917	rating	0.5793	intensity	disgust	male	African	old	n/a
374.952	0.217	rating_mouse_trajectory	0.5793	intensity	disgust	male	African	old	n/a
377.176	1.311	face	n/a	intensity	surprise	male	African	old	task-faces/2Surprise_Model3_2Male_3African_2Old.mp4
378.487	0.967	rating	0.6865	intensity	surprise	male	African	old	n/a
378.971	0.483	rating_mouse_trajectory	0.6865	intensity	surprise	male	African	old	n/a
381.393	1.312	face	n/a	intensity	fear	male	WC	young	task-faces/3Fear_Model5_2Male_1WC_1Young.mp4
382.706	0.95	rating	0.6258	intensity	fear	male	WC	young	n/a
383.539	0.117	rating_mouse_trajectory	0.6258	intensity	fear	male	WC	young	n/a
387.626	1.315	face	n/a	intensity	disgust	male	WC	young	task-faces/4Disgust_Model2_2Male_1WC_1Young.mp4
388.941	1.267	rating	0.6784	intensity	disgust	male	WC	young	n/a
389.541	0.667	rating_mouse_trajectory	0.6784	intensity	disgust	male	WC	young	n/a
390.859	1.3	face	n/a	intensity	anger	female	African	young	task-faces/5Anger_Model2_1Female_3African_1Young.mp4
392.159	0.967	rating	0.642	intensity	anger	female	African	young	n/a
392.709	0.417	rating_mouse_trajectory	0.642	intensity	anger	female	African	young	n/a
396.076	1.302	face	n/a	intensity	surprise	female	EA	young	task-faces/2Surprise_Model3_1Female_2EA_1Young.mp4
397.378	1.75	rating	0.3507	intensity	surprise	female	EA	young	n/a
399.061	0.067	rating_mouse_trajectory	0.3507	intensity	surprise	female	EA	young	n/a
400.302	1.311	face	n/a	intensity	fear	male	EA	old	task-faces/3Fear_Model2_2Male_2EA_2Old.mp4
401.613	1.417	rating	0.5631	intensity	fear	male	EA	old	n/a
401.996	1.033	rating_mouse_trajectory	0.5631	intensity	fear	male	EA	old	n/a
405.536	1.312	face	n/a	intensity	disgust	female	WC	young	task-faces/4Disgust_Model5_1Female_1WC_1Young.mp4
406.848	0.667	rating	0.379	intensity	disgust	female	WC	young	n/a
407.331	0.183	rating_mouse_trajectory	0.379	intensity	disgust	female	WC	young	n/a
409.771	1.311	face	n/a	intensity	disgust	female	EA	young	task-faces/4Disgust_Model5_1Female_2EA_1Young.mp4
411.083	1.8	rating	0.3932	intensity	disgust	female	EA	young	n/a
411.899	0.983	rating_mouse_trajectory	0.3932	intensity	disgust	female	EA	young	n/a
413.006	1.312	face	n/a	intensity	sad	male	EA	young	task-faces/6Sad_Model4_2Male_2EA_1Young.mp4
414.317	0.75	rating	0.5692	intensity	sad	male	EA	young	n/a
414.917	0.15	rating_mouse_trajectory	0.5692	intensity	sad	male	EA	young	n/a
416.223	1.312	face	n/a	intensity	happy	female	African	young	task-faces/1Happy_Model4_1Female_3African_1Young.mp4
417.535	0.8	rating	0.5773	intensity	happy	female	African	young	n/a
418.252	0.083	rating_mouse_trajectory	0.5773	intensity	happy	female	African	young	n/a
