onset	duration	subtask_type	event_type	response_accuracy	cue_location	target_location	participant_response	trial_index
6.066	0.2	posner	invalid_cue	correct	right	n/a	n/a	1
6.283	0.495	posner	target_response	correct	right	left	left	1
9.368	0.2	posner	invalid_cue	correct	right	n/a	n/a	2
9.568	0.452	posner	target_response	correct	right	left	left	2
14.753	0.2	posner	invalid_cue	correct	right	n/a	n/a	3
14.953	0.654	posner	target_response	correct	right	left	left	3
18.021	0.2	posner	valid_cue	correct	left	n/a	n/a	4
18.221	0.538	posner	target_response	correct	left	left	left	4
24.09	0.2	posner	invalid_cue	correct	left	n/a	n/a	5
24.29	0.572	posner	target_response	correct	left	right	right	5
31.576	0.2	posner	invalid_cue	correct	right	n/a	n/a	6
31.776	0.571	posner	target_response	correct	right	left	left	6
35.244	0.2	posner	valid_cue	correct	left	n/a	n/a	7
35.444	0.432	posner	target_response	correct	left	left	left	7
38.612	0.2	posner	valid_cue	correct	right	n/a	n/a	8
38.812	0.508	posner	target_response	correct	right	right	right	8
44.981	0.2	posner	valid_cue	correct	left	n/a	n/a	9
45.181	0.506	posner	target_response	correct	left	left	left	9
48.149	0.2	posner	valid_cue	correct	left	n/a	n/a	10
48.349	0.512	posner	target_response	correct	left	left	left	10
57.819	0.2	posner	invalid_cue	correct	left	n/a	n/a	11
58.019	0.642	posner	target_response	correct	left	right	right	11
60.887	0.2	posner	invalid_cue	correct	left	n/a	n/a	12
61.087	0.429	posner	target_response	correct	left	right	right	12
64.155	0.2	posner	valid_cue	correct	left	n/a	n/a	13
64.355	0.565	posner	target_response	correct	left	left	left	13
67.222	0.2	posner	valid_cue	correct	right	n/a	n/a	14
67.423	0.423	posner	target_response	correct	right	right	right	14
74.892	0.2	posner	invalid_cue	correct	right	n/a	n/a	15
75.092	0.499	posner	target_response	correct	right	left	left	15
78.56	0.2	posner	invalid_cue	correct	left	n/a	n/a	16
78.76	0.487	posner	target_response	correct	left	right	right	16
81.628	0.2	posner	valid_cue	correct	left	n/a	n/a	17
81.828	0.429	posner	target_response	correct	left	left	left	17
87.097	0.2	posner	valid_cue	correct	right	n/a	n/a	18
87.297	0.405	posner	target_response	correct	right	right	right	18
96.767	0.2	posner	invalid_cue	correct	right	n/a	n/a	19
96.967	0.514	posner	target_response	correct	right	left	left	19
100.235	0.2	posner	invalid_cue	correct	left	n/a	n/a	20
100.435	0.443	posner	target_response	correct	left	right	right	20
104.003	0.2	posner	valid_cue	correct	right	n/a	n/a	21
104.203	0.371	posner	target_response	correct	right	right	right	21
107.671	0.2	posner	invalid_cue	correct	left	n/a	n/a	22
107.871	0.477	posner	target_response	correct	left	right	right	22
110.939	0.2	posner	invalid_cue	correct	left	n/a	n/a	23
111.139	0.42	posner	target_response	correct	left	right	right	23
114.807	0.2	posner	valid_cue	correct	right	n/a	n/a	24
115.007	0.501	posner	target_response	correct	right	right	right	24
121.576	0.2	posner	valid_cue	correct	left	n/a	n/a	25
121.776	0.39	posner	target_response	correct	left	left	left	25
125.144	0.2	posner	valid_cue	correct	left	n/a	n/a	26
125.344	0.401	posner	target_response	correct	left	left	left	26
130.213	0.2	posner	valid_cue	correct	left	n/a	n/a	27
130.413	0.507	posner	target_response	correct	left	left	left	27
134.281	0.2	posner	invalid_cue	correct	right	n/a	n/a	28
134.481	0.475	posner	target_response	correct	right	left	left	28
138.049	0.2	posner	valid_cue	correct	right	n/a	n/a	29
138.249	0.491	posner	target_response	correct	right	right	right	29
141.417	0.2	posner	invalid_cue	correct	right	n/a	n/a	30
141.617	0.531	posner	target_response	correct	right	left	left	30
148.786	0.2	posner	valid_cue	correct	left	n/a	n/a	31
148.986	0.519	posner	target_response	correct	left	left	left	31
154.155	0.2	posner	invalid_cue	correct	left	n/a	n/a	32
154.355	0.486	posner	target_response	correct	left	right	right	32
161.624	0.2	posner	invalid_cue	correct	right	n/a	n/a	33
161.824	0.523	posner	target_response	correct	right	left	left	33
165.192	0.2	posner	invalid_cue	correct	right	n/a	n/a	34
165.392	0.518	posner	target_response	correct	right	left	left	34
168.16	0.2	posner	valid_cue	correct	left	n/a	n/a	35
168.36	0.408	posner	target_response	correct	left	left	left	35
173.329	0.2	posner	invalid_cue	correct	right	n/a	n/a	36
173.529	0.511	posner	target_response	correct	right	left	left	36
176.697	0.2	posner	invalid_cue	correct	left	n/a	n/a	37
176.897	0.522	posner	target_response	correct	left	right	right	37
182.766	0.2	posner	invalid_cue	correct	right	n/a	n/a	38
182.966	0.45	posner	target_response	correct	right	left	left	38
189.235	0.2	posner	invalid_cue	correct	left	n/a	n/a	39
189.435	0.519	posner	target_response	correct	left	right	right	39
192.503	0.2	posner	valid_cue	correct	right	n/a	n/a	40
192.703	0.449	posner	target_response	correct	right	right	right	40
196.671	0.2	posner	valid_cue	correct	left	n/a	n/a	41
196.871	0.496	posner	target_response	correct	left	left	left	41
203.94	0.2	posner	valid_cue	correct	left	n/a	n/a	42
204.14	0.462	posner	target_response	correct	left	left	left	42
208.709	0.2	posner	valid_cue	correct	left	n/a	n/a	43
208.909	0.407	posner	target_response	correct	left	left	left	43
212.177	0.2	posner	invalid_cue	correct	left	n/a	n/a	44
212.377	0.555	posner	target_response	correct	left	right	right	44
215.745	0.2	posner	valid_cue	correct	left	n/a	n/a	45
215.945	0.434	posner	target_response	correct	left	left	left	45
225.415	0.2	posner	invalid_cue	correct	left	n/a	n/a	46
225.615	0.512	posner	target_response	correct	left	right	right	46
230.783	0.2	posner	valid_cue	correct	right	n/a	n/a	47
230.984	0.406	posner	target_response	correct	right	right	right	47
234.552	0.2	posner	valid_cue	correct	right	n/a	n/a	48
234.752	0.366	posner	target_response	correct	right	right	right	48
238.62	0.2	posner	invalid_cue	correct	right	n/a	n/a	49
238.82	0.451	posner	target_response	correct	right	left	left	49
242.388	0.2	posner	valid_cue	correct	left	n/a	n/a	50
242.588	0.451	posner	target_response	correct	left	left	left	50
246.356	0.2	posner	invalid_cue	correct	left	n/a	n/a	51
246.556	0.474	posner	target_response	correct	left	right	right	51
251.725	0.2	posner	valid_cue	correct	right	n/a	n/a	52
251.925	0.378	posner	target_response	correct	right	right	right	52
255.493	0.2	posner	invalid_cue	correct	left	n/a	n/a	53
255.693	0.442	posner	target_response	correct	left	right	right	53
259.361	0.2	posner	valid_cue	correct	right	n/a	n/a	54
259.561	0.347	posner	target_response	correct	right	right	right	54
266.43	0.2	posner	valid_cue	correct	right	n/a	n/a	55
266.63	0.359	posner	target_response	correct	right	right	right	55
273.9	0.2	posner	invalid_cue	correct	right	n/a	n/a	56
274.1	0.538	posner	target_response	correct	right	left	left	56
276.967	0.2	posner	valid_cue	correct	right	n/a	n/a	57
277.167	0.396	posner	target_response	correct	right	right	right	57
280.935	0.2	posner	invalid_cue	correct	left	n/a	n/a	58
281.136	0.47	posner	target_response	correct	left	right	right	58
288.405	0.2	posner	valid_cue	correct	right	n/a	n/a	59
288.605	0.437	posner	target_response	correct	right	right	right	59
295.874	0.2	posner	invalid_cue	correct	left	n/a	n/a	60
296.074	0.496	posner	target_response	correct	left	right	right	60
299.042	0.2	posner	invalid_cue	correct	right	n/a	n/a	61
299.242	0.579	posner	target_response	correct	right	left	left	61
302.61	0.2	posner	valid_cue	correct	left	n/a	n/a	62
302.81	0.443	posner	target_response	correct	left	left	left	62
305.678	0.2	posner	invalid_cue	correct	right	n/a	n/a	63
305.878	0.511	posner	target_response	correct	right	left	left	63
308.946	0.2	posner	invalid_cue	correct	right	n/a	n/a	64
309.146	0.536	posner	target_response	correct	right	left	left	64
316.415	0.2	posner	invalid_cue	correct	right	n/a	n/a	65
316.615	0.518	posner	target_response	correct	right	left	left	65
320.484	0.2	posner	valid_cue	correct	left	n/a	n/a	66
320.684	0.658	posner	target_response	correct	left	left	left	66
323.551	0.2	posner	invalid_cue	correct	left	n/a	n/a	67
323.751	0.556	posner	target_response	correct	left	right	right	67
327.319	0.2	posner	valid_cue	correct	right	n/a	n/a	68
327.52	0.422	posner	target_response	correct	right	right	right	68
330.787	0.2	posner	invalid_cue	correct	right	n/a	n/a	69
330.987	0.433	posner	target_response	correct	right	left	left	69
334.055	0.2	posner	invalid_cue	correct	right	n/a	n/a	70
334.255	0.464	posner	target_response	correct	right	left	left	70
340.524	0.2	posner	valid_cue	correct	left	n/a	n/a	71
340.724	0.504	posner	target_response	correct	left	left	left	71
347.994	0.2	posner	invalid_cue	correct	left	n/a	n/a	72
348.194	0.459	posner	target_response	correct	left	right	right	72
353.362	0.2	posner	invalid_cue	correct	left	n/a	n/a	73
353.563	0.469	posner	target_response	correct	left	right	right	73
356.93	0.2	posner	invalid_cue	correct	right	n/a	n/a	74
357.131	0.433	posner	target_response	correct	right	left	left	74
359.898	0.2	posner	invalid_cue	correct	right	n/a	n/a	75
360.098	0.426	posner	target_response	correct	right	left	left	75
363.266	0.2	posner	invalid_cue	correct	left	n/a	n/a	76
363.466	0.429	posner	target_response	correct	left	right	right	76
368.535	0.2	posner	invalid_cue	correct	right	n/a	n/a	77
368.735	0.467	posner	target_response	correct	right	left	left	77
376.004	0.2	posner	invalid_cue	correct	left	n/a	n/a	78
376.204	0.413	posner	target_response	correct	left	right	right	78
385.675	0.2	posner	valid_cue	correct	left	n/a	n/a	79
385.875	0.638	posner	target_response	correct	left	left	left	79
388.642	0.2	posner	valid_cue	correct	left	n/a	n/a	80
388.842	0.392	posner	target_response	correct	left	left	left	80
395.912	0.2	posner	valid_cue	correct	right	n/a	n/a	81
396.112	0.527	posner	target_response	correct	right	right	right	81
403.381	0.2	posner	valid_cue	correct	right	n/a	n/a	82
403.581	0.42	posner	target_response	correct	right	right	right	82
407.149	0.2	posner	invalid_cue	correct	left	n/a	n/a	83
407.349	0.422	posner	target_response	correct	left	right	right	83
410.217	0.2	posner	valid_cue	correct	right	n/a	n/a	84
410.417	0.307	posner	target_response	correct	right	right	right	84
419.887	0.2	posner	valid_cue	correct	left	n/a	n/a	85
420.087	0.406	posner	target_response	correct	left	left	left	85
424.456	0.2	posner	invalid_cue	correct	left	n/a	n/a	86
424.656	0.431	posner	target_response	correct	left	right	right	86
429.824	0.2	posner	invalid_cue	correct	right	n/a	n/a	87
430.024	0.482	posner	target_response	correct	right	left	left	87
432.792	0.2	posner	invalid_cue	correct	left	n/a	n/a	88
432.992	0.436	posner	target_response	correct	left	right	right	88
436.06	0.2	posner	valid_cue	correct	left	n/a	n/a	89
436.26	0.454	posner	target_response	correct	left	left	left	89
442.529	0.2	posner	valid_cue	correct	right	n/a	n/a	90
442.729	0.481	posner	target_response	correct	right	right	right	90
449.999	0.2	posner	invalid_cue	correct	left	n/a	n/a	91
450.199	0.459	posner	target_response	correct	left	right	right	91
457.468	0.2	posner	valid_cue	correct	left	n/a	n/a	92
457.668	0.381	posner	target_response	correct	left	left	left	92
460.436	0.2	posner	valid_cue	correct	left	n/a	n/a	93
460.636	0.352	posner	target_response	correct	left	left	left	93
463.704	0.2	posner	invalid_cue	correct	right	n/a	n/a	94
463.904	0.469	posner	target_response	correct	right	left	left	94
466.972	0.2	posner	invalid_cue	correct	left	n/a	n/a	95
467.172	0.429	posner	target_response	correct	left	right	right	95
470.74	0.2	posner	invalid_cue	correct	left	n/a	n/a	96
470.94	0.431	posner	target_response	correct	left	right	right	96
474.108	0.2	posner	valid_cue	correct	right	n/a	n/a	97
474.308	0.537	posner	target_response	correct	right	right	right	97
477.475	0.2	posner	valid_cue	correct	right	n/a	n/a	98
477.676	0.366	posner	target_response	correct	right	right	right	98
487.146	0.2	posner	valid_cue	correct	right	n/a	n/a	99
487.346	0.465	posner	target_response	correct	right	right	right	99
490.514	0.2	posner	valid_cue	correct	right	n/a	n/a	100
490.714	0.397	posner	target_response	correct	right	right	right	100
493.782	0.2	posner	valid_cue	correct	right	n/a	n/a	101
493.982	0.362	posner	target_response	correct	right	right	right	101
497.45	0.2	posner	invalid_cue	correct	right	n/a	n/a	102
497.65	0.447	posner	target_response	correct	right	left	left	102
504.219	0.2	posner	valid_cue	correct	left	n/a	n/a	103
504.419	0.426	posner	target_response	correct	left	left	left	103
510.688	0.2	posner	invalid_cue	correct	left	n/a	n/a	104
510.888	0.443	posner	target_response	correct	left	right	right	104
517.157	0.2	posner	invalid_cue	correct	right	n/a	n/a	105
517.357	0.551	posner	target_response	correct	right	left	left	105
523.926	0.2	posner	invalid_cue	correct	right	n/a	n/a	106
524.126	0.422	posner	target_response	correct	right	left	left	106
531.396	0.2	posner	valid_cue	correct	right	n/a	n/a	107
531.596	0.562	posner	target_response	correct	right	right	right	107
537.665	0.2	posner	invalid_cue	correct	left	n/a	n/a	108
537.865	0.439	posner	target_response	correct	left	right	right	108
542.733	0.2	posner	invalid_cue	correct	right	n/a	n/a	109
542.933	0.495	posner	target_response	correct	right	left	left	109
546.701	0.2	posner	valid_cue	correct	right	n/a	n/a	110
546.901	0.484	posner	target_response	correct	right	right	right	110
550.069	0.2	posner	invalid_cue	correct	right	n/a	n/a	111
550.269	0.434	posner	target_response	correct	right	left	left	111
556.738	0.2	posner	valid_cue	correct	left	n/a	n/a	112
556.938	0.367	posner	target_response	correct	left	left	left	112
564.208	0.2	posner	invalid_cue	correct	left	n/a	n/a	113
564.408	0.392	posner	target_response	correct	left	right	right	113
571.777	0.2	posner	invalid_cue	correct	left	n/a	n/a	114
571.977	0.434	posner	target_response	correct	left	right	right	114
575.245	0.2	posner	invalid_cue	correct	right	n/a	n/a	115
575.445	0.446	posner	target_response	correct	right	left	left	115
581.614	0.2	posner	invalid_cue	correct	right	n/a	n/a	116
581.814	0.459	posner	target_response	correct	right	left	left	116
584.882	0.2	posner	valid_cue	correct	left	n/a	n/a	117
585.082	0.37	posner	target_response	correct	left	left	left	117
587.85	0.2	posner	invalid_cue	correct	left	n/a	n/a	118
588.05	0.423	posner	target_response	correct	left	right	right	118
591.718	0.2	posner	invalid_cue	correct	right	n/a	n/a	119
591.918	0.45	posner	target_response	correct	right	left	left	119
599.188	0.2	posner	valid_cue	correct	right	n/a	n/a	120
599.388	0.407	posner	target_response	correct	right	right	right	120
