onset	duration	run_type	trial_type	trial_index	cue	stimulusintensity	rating_value	rating_glmslabel	rating_value_fillna	rating_glmslabel_fillna	rating_mouseonset	rating_mousedur	stim_file	pain_onset_ttl1	pain_onset_ttl2	pain_onset_ttl3	pain_onset_ttl4	pain_stimulus_delivery_success	cognitive_correct_response	cognitive_participant_response	cognitive_response_accuracy
3.88	1.0	vicarious	cue	1	high_cue	n/a	n/a	n/a	n/a	n/a	n/a	n/a	task-social/cue/runtype-vicarious/sch/h017.png	n/a	n/a	n/a	n/a	n/a	n/a	n/a	n/a
5.69	1.43	vicarious	expectrating	1	high_cue	n/a	90.69	Very Strong	90.69	Very Strong	0.43	1.0	task-social/cue/runtype-vicarious/sch/h017.png	n/a	n/a	n/a	n/a	n/a	n/a	n/a	n/a
19.58	5.0	vicarious	stimulus	1	high_cue	med_stim	n/a	n/a	n/a	n/a	n/a	n/a	task-social/stim/runtype-vicarious/jl047t1aiunaff_M.mp4	n/a	n/a	n/a	n/a	n/a	n/a	n/a	n/a
30.29	1.74	vicarious	outcomerating	1	high_cue	med_stim	28.72	Moderate	28.72	Moderate	0.43	1.0	task-social/outcomerating/task-vicarious_scale.png	n/a	n/a	n/a	n/a	n/a	n/a	n/a	n/a
36.19	0.98	vicarious	cue	2	low_cue	n/a	n/a	n/a	n/a	n/a	n/a	n/a	task-social/cue/runtype-vicarious/scl/l041.png	n/a	n/a	n/a	n/a	n/a	n/a	n/a	n/a
38.69	1.79	vicarious	expectrating	2	low_cue	n/a	9.0	Weak	9.0	Weak	0.4	1.39	task-social/cue/runtype-vicarious/scl/l041.png	n/a	n/a	n/a	n/a	n/a	n/a	n/a	n/a
45.57	5.0	vicarious	stimulus	2	low_cue	med_stim	n/a	n/a	n/a	n/a	n/a	n/a	task-social/stim/runtype-vicarious/tv095t2afaff_M.mp4	n/a	n/a	n/a	n/a	n/a	n/a	n/a	n/a
56.3	2.33	vicarious	outcomerating	2	low_cue	med_stim	30.64	Strong	30.64	Strong	0.4	1.39	task-social/outcomerating/task-vicarious_scale.png	n/a	n/a	n/a	n/a	n/a	n/a	n/a	n/a
63.58	0.99	vicarious	cue	3	high_cue	n/a	n/a	n/a	n/a	n/a	n/a	n/a	task-social/cue/runtype-vicarious/sch/h053.png	n/a	n/a	n/a	n/a	n/a	n/a	n/a	n/a
66.08	1.72	vicarious	expectrating	3	high_cue	n/a	86.73	Very Strong	86.73	Very Strong	0.18	1.53	task-social/cue/runtype-vicarious/sch/h053.png	n/a	n/a	n/a	n/a	n/a	n/a	n/a	n/a
77.77	5.0	vicarious	stimulus	3	high_cue	low_stim	n/a	n/a	n/a	n/a	n/a	n/a	task-social/stim/runtype-vicarious/jy115t1aaunaff_L.mp4	n/a	n/a	n/a	n/a	n/a	n/a	n/a	n/a
90.89	2.27	vicarious	outcomerating	3	high_cue	low_stim	2.53	Barely detectable	2.53	Barely detectable	0.18	1.53	task-social/outcomerating/task-vicarious_scale.png	n/a	n/a	n/a	n/a	n/a	n/a	n/a	n/a
103.48	0.99	vicarious	cue	4	low_cue	n/a	n/a	n/a	n/a	n/a	n/a	n/a	task-social/cue/runtype-vicarious/scl/l037.png	n/a	n/a	n/a	n/a	n/a	n/a	n/a	n/a
105.98	1.68	vicarious	expectrating	4	low_cue	n/a	2.3	Barely detectable	2.3	Barely detectable	0.37	1.32	task-social/cue/runtype-vicarious/scl/l037.png	n/a	n/a	n/a	n/a	n/a	n/a	n/a	n/a
118.87	5.0	vicarious	stimulus	4	low_cue	med_stim	n/a	n/a	n/a	n/a	n/a	n/a	task-social/stim/runtype-vicarious/ak064t1aiaff_M.mp4	n/a	n/a	n/a	n/a	n/a	n/a	n/a	n/a
131.79	1.6	vicarious	outcomerating	4	low_cue	med_stim	43.05	Strong	43.05	Strong	0.37	1.32	task-social/outcomerating/task-vicarious_scale.png	n/a	n/a	n/a	n/a	n/a	n/a	n/a	n/a
138.98	0.99	vicarious	cue	5	high_cue	n/a	n/a	n/a	n/a	n/a	n/a	n/a	task-social/cue/runtype-vicarious/sch/h001.png	n/a	n/a	n/a	n/a	n/a	n/a	n/a	n/a
142.9	1.5	vicarious	expectrating	5	high_cue	n/a	57.65	Strong	57.65	Strong	0.45	1.05	task-social/cue/runtype-vicarious/sch/h001.png	n/a	n/a	n/a	n/a	n/a	n/a	n/a	n/a
157.47	5.0	vicarious	stimulus	5	high_cue	high_stim	n/a	n/a	n/a	n/a	n/a	n/a	task-social/stim/runtype-vicarious/jk103t1aaaff_H.mp4	n/a	n/a	n/a	n/a	n/a	n/a	n/a	n/a
170.29	1.47	vicarious	outcomerating	5	high_cue	high_stim	107.05	Strongest sensation of any kind	107.05	Strongest sensation of any kind	0.45	1.05	task-social/outcomerating/task-vicarious_scale.png	n/a	n/a	n/a	n/a	n/a	n/a	n/a	n/a
190.58	0.99	vicarious	cue	6	low_cue	n/a	n/a	n/a	n/a	n/a	n/a	n/a	task-social/cue/runtype-vicarious/scl/l004.png	n/a	n/a	n/a	n/a	n/a	n/a	n/a	n/a
192.98	2.65	vicarious	expectrating	6	low_cue	n/a	9.5	Weak	9.5	Weak	0.45	2.2	task-social/cue/runtype-vicarious/scl/l004.png	n/a	n/a	n/a	n/a	n/a	n/a	n/a	n/a
203.47	5.0	vicarious	stimulus	6	low_cue	low_stim	n/a	n/a	n/a	n/a	n/a	n/a	task-social/stim/runtype-vicarious/aa048t2aaunaff_L.mp4	n/a	n/a	n/a	n/a	n/a	n/a	n/a	n/a
212.09	2.32	vicarious	outcomerating	6	low_cue	low_stim	1.38	Barely detectable	1.38	Barely detectable	0.45	2.2	task-social/outcomerating/task-vicarious_scale.png	n/a	n/a	n/a	n/a	n/a	n/a	n/a	n/a
219.19	0.98	vicarious	cue	7	low_cue	n/a	n/a	n/a	n/a	n/a	n/a	n/a	task-social/cue/runtype-vicarious/scl/l009.png	n/a	n/a	n/a	n/a	n/a	n/a	n/a	n/a
220.99	2.4	vicarious	expectrating	7	low_cue	n/a	21.93	Moderate	21.93	Moderate	0.48	1.92	task-social/cue/runtype-vicarious/scl/l009.png	n/a	n/a	n/a	n/a	n/a	n/a	n/a	n/a
231.37	5.0	vicarious	stimulus	7	low_cue	high_stim	n/a	n/a	n/a	n/a	n/a	n/a	task-social/stim/runtype-vicarious/mg066t1aaaff_H.mp4	n/a	n/a	n/a	n/a	n/a	n/a	n/a	n/a
243.5	1.1	vicarious	outcomerating	7	low_cue	high_stim	35.94	Strong	35.94	Strong	0.48	1.92	task-social/outcomerating/task-vicarious_scale.png	n/a	n/a	n/a	n/a	n/a	n/a	n/a	n/a
252.59	0.98	vicarious	cue	8	high_cue	n/a	n/a	n/a	n/a	n/a	n/a	n/a	task-social/cue/runtype-vicarious/sch/h011.png	n/a	n/a	n/a	n/a	n/a	n/a	n/a	n/a
254.19	1.91	vicarious	expectrating	8	high_cue	n/a	91.85	Very Strong	91.85	Very Strong	0.87	1.04	task-social/cue/runtype-vicarious/sch/h011.png	n/a	n/a	n/a	n/a	n/a	n/a	n/a	n/a
263.57	5.0	vicarious	stimulus	8	high_cue	med_stim	n/a	n/a	n/a	n/a	n/a	n/a	task-social/stim/runtype-vicarious/ib109t1afaff_M.mp4	n/a	n/a	n/a	n/a	n/a	n/a	n/a	n/a
273.5	2.35	vicarious	outcomerating	8	high_cue	med_stim	2.99	Barely detectable	2.99	Barely detectable	0.87	1.04	task-social/outcomerating/task-vicarious_scale.png	n/a	n/a	n/a	n/a	n/a	n/a	n/a	n/a
281.68	0.99	vicarious	cue	9	high_cue	n/a	n/a	n/a	n/a	n/a	n/a	n/a	task-social/cue/runtype-vicarious/sch/h033.png	n/a	n/a	n/a	n/a	n/a	n/a	n/a	n/a
283.28	2.35	vicarious	expectrating	9	high_cue	n/a	6.24	Weak	6.24	Weak	0.55	1.8	task-social/cue/runtype-vicarious/sch/h033.png	n/a	n/a	n/a	n/a	n/a	n/a	n/a	n/a
290.17	5.0	vicarious	stimulus	9	high_cue	low_stim	n/a	n/a	n/a	n/a	n/a	n/a	task-social/stim/runtype-vicarious/ak064t1afunaff_L.mp4	n/a	n/a	n/a	n/a	n/a	n/a	n/a	n/a
307.09	2.44	vicarious	outcomerating	9	high_cue	low_stim	0.46	No sensation	0.46	No sensation	0.55	1.8	task-social/outcomerating/task-vicarious_scale.png	n/a	n/a	n/a	n/a	n/a	n/a	n/a	n/a
312.18	1.0	vicarious	cue	10	low_cue	n/a	n/a	n/a	n/a	n/a	n/a	n/a	task-social/cue/runtype-vicarious/scl/l029.png	n/a	n/a	n/a	n/a	n/a	n/a	n/a	n/a
316.1	1.4	vicarious	expectrating	10	low_cue	n/a	3.69	Weak	3.69	Weak	0.33	1.07	task-social/cue/runtype-vicarious/scl/l029.png	n/a	n/a	n/a	n/a	n/a	n/a	n/a	n/a
330.67	5.0	vicarious	stimulus	10	low_cue	high_stim	n/a	n/a	n/a	n/a	n/a	n/a	task-social/stim/runtype-vicarious/jy115t2aaaff_H.mp4	n/a	n/a	n/a	n/a	n/a	n/a	n/a	n/a
341.99	1.29	vicarious	outcomerating	10	low_cue	high_stim	12.13	Moderate	12.13	Moderate	0.33	1.07	task-social/outcomerating/task-vicarious_scale.png	n/a	n/a	n/a	n/a	n/a	n/a	n/a	n/a
348.79	0.98	vicarious	cue	11	high_cue	n/a	n/a	n/a	n/a	n/a	n/a	n/a	task-social/cue/runtype-vicarious/sch/h021.png	n/a	n/a	n/a	n/a	n/a	n/a	n/a	n/a
350.49	1.57	vicarious	expectrating	11	high_cue	n/a	47.22	Strong	47.22	Strong	0.62	0.95	task-social/cue/runtype-vicarious/sch/h021.png	n/a	n/a	n/a	n/a	n/a	n/a	n/a	n/a
357.17	5.0	vicarious	stimulus	11	high_cue	high_stim	n/a	n/a	n/a	n/a	n/a	n/a	task-social/stim/runtype-vicarious/ak064t1aaaff_H.mp4	n/a	n/a	n/a	n/a	n/a	n/a	n/a	n/a
368.3	1.5	vicarious	outcomerating	11	high_cue	high_stim	66.37	Very Strong	66.37	Very Strong	0.62	0.95	task-social/outcomerating/task-vicarious_scale.png	n/a	n/a	n/a	n/a	n/a	n/a	n/a	n/a
375.58	0.99	vicarious	cue	12	low_cue	n/a	n/a	n/a	n/a	n/a	n/a	n/a	task-social/cue/runtype-vicarious/scl/l010.png	n/a	n/a	n/a	n/a	n/a	n/a	n/a	n/a
379.49	1.85	vicarious	expectrating	12	low_cue	n/a	4.23	Weak	4.23	Weak	0.77	1.08	task-social/cue/runtype-vicarious/scl/l010.png	n/a	n/a	n/a	n/a	n/a	n/a	n/a	n/a
387.17	5.0	vicarious	stimulus	12	low_cue	low_stim	n/a	n/a	n/a	n/a	n/a	n/a	task-social/stim/runtype-vicarious/tv095t2aeunaff_L.mp4	n/a	n/a	n/a	n/a	n/a	n/a	n/a	n/a
395.29	2.44	vicarious	outcomerating	12	low_cue	low_stim	0.7	No sensation	0.7	No sensation	0.77	1.08	task-social/outcomerating/task-vicarious_scale.png	n/a	n/a	n/a	n/a	n/a	n/a	n/a	n/a
