onset	duration	subtask_type	event_type	value	response_accuracy	stim_file	participant_response	reaction_time
7.976	1.034	memory	dummy	study_dummy	n/a	task-memory/obj031book.png	n/a	n/a
10.026	1.034	memory	dummy	study_dummy	n/a	task-memory/obj038broom.png	n/a	n/a
12.094	1.017	memory	dummy	study_dummy	n/a	task-memory/obj102finger.png	n/a	n/a
14.145	1.017	memory	study	study	n/a	task-memory/obj005ant.png	n/a	n/a
16.195	1.017	memory	study	study	n/a	task-memory/obj294tank.png	n/a	n/a
18.246	1.017	memory	study	study	n/a	task-memory/obj017barbecue.png	n/a	n/a
20.28	1.017	memory	study	study	n/a	task-memory/obj284spoon.png	n/a	n/a
22.314	1.017	memory	study	study	n/a	task-memory/obj283spider.png	n/a	n/a
24.348	1.017	memory	study	study	n/a	task-memory/obj056cheese.png	n/a	n/a
26.383	1.017	memory	study	study	n/a	task-memory/obj011backpack.png	n/a	n/a
28.417	1.017	memory	study	study	n/a	task-memory/obj320umbrella.png	n/a	n/a
30.451	1.017	memory	study	study	n/a	task-memory/obj304tire.png	n/a	n/a
32.485	1.017	memory	study	study	n/a	task-memory/obj163leaf.png	n/a	n/a
34.519	1.017	memory	study	study	n/a	task-memory/obj110football.png	n/a	n/a
36.553	1.017	memory	study	study	n/a	task-memory/obj115funnel.png	n/a	n/a
38.587	1.017	memory	study	study	n/a	task-memory/obj013balloon.png	n/a	n/a
40.621	1.017	memory	study	study	n/a	task-memory/obj175mailbox.png	n/a	n/a
42.655	1.017	memory	study	study	n/a	task-memory/obj059chicken.png	n/a	n/a
44.689	1.017	memory	study	study	n/a	task-memory/obj281spaghetti.png	n/a	n/a
46.723	1.017	memory	study	study	n/a	task-memory/obj105flag.png	n/a	n/a
48.758	1.034	memory	study	study	n/a	task-memory/obj157knife.png	n/a	n/a
50.808	1.034	memory	study	study	n/a	task-memory/obj030bone.png	n/a	n/a
52.859	1.017	memory	study	study	n/a	task-memory/obj155king.png	n/a	n/a
54.91	1.017	memory	dummy	study_dummy	n/a	task-memory/obj312tree.png	n/a	n/a
56.944	1.017	memory	dummy	study_dummy	n/a	task-memory/obj316turkey.png	n/a	n/a
58.995	1.017	memory	dummy	study_dummy	n/a	task-memory/obj322unicycle.png	n/a	n/a
71.249	25.0	memory	distraction_math	math	n/a	n/a	n/a	n/a
99.326	25.0	memory	distraction_math	math	n/a	n/a	n/a	n/a
127.387	25.0	memory	distraction_math	math	n/a	n/a	n/a	n/a
155.447	25.0	memory	distraction_math	math	n/a	n/a	n/a	n/a
189.293	1.509	memory	test	test_new	incorrect	task-memory/obj116genie.png	old	n/a
192.244	1.679	memory	test	test_new	correct	task-memory/obj034bowl.png	new	n/a
195.329	1.323	memory	test	test_old	correct	task-memory/obj157knife.png	old	n/a
197.897	1.023	memory	test	test_new	correct	task-memory/obj237radio.png	new	n/a
200.781	1.073	memory	test	test_new	correct	task-memory/obj341window.png	new	n/a
203.599	1.138	memory	test	test_old	correct	task-memory/obj105flag.png	old	n/a
206.45	0.72	memory	test	test_old	correct	task-memory/obj059chicken.png	old	n/a
209.451	1.375	memory	test	test_new	correct	task-memory/obj049cane.png	new	n/a
212.169	2.0	memory	test	test_old	incorrect	task-memory/obj155king.png	n/a	n/a
215.136	1.295	memory	test	test_old	correct	task-memory/obj294tank.png	old	n/a
217.721	0.674	memory	test	test_old	correct	task-memory/obj163leaf.png	old	n/a
220.388	1.18	memory	test	test_new	correct	task-memory/obj097eye.png	new	n/a
223.189	0.753	memory	test	test_old	correct	task-memory/obj030bone.png	old	n/a
225.74	1.629	memory	test	test_new	correct	task-memory/obj235rabbit.png	new	n/a
228.775	0.904	memory	test	test_old	correct	task-memory/obj304tire.png	old	n/a
231.526	1.295	memory	test	test_new	correct	task-memory/obj064clock.png	new	n/a
234.46	0.801	memory	test	test_old	correct	task-memory/obj110football.png	old	n/a
237.395	1.244	memory	test	test_new	incorrect	task-memory/obj227plug.png	old	n/a
240.229	1.043	memory	test	test_new	correct	task-memory/obj236raccoon.png	new	n/a
242.83	1.261	memory	test	test_new	incorrect	task-memory/obj196nose.png	old	n/a
245.364	0.758	memory	test	test_new	correct	task-memory/obj118giraffe.png	new	n/a
248.249	1.263	memory	test	test_new	correct	task-memory/obj189mouse.png	new	n/a
250.95	0.732	memory	test	test_old	correct	task-memory/obj011backpack.png	old	n/a
253.501	1.202	memory	test	test_old	correct	task-memory/obj281spaghetti.png	old	n/a
256.102	1.28	memory	test	test_old	correct	task-memory/obj056cheese.png	old	n/a
258.936	2.0	memory	test	test_new	correct	task-memory/obj192nail.png	n/a	n/a
261.854	1.293	memory	test	test_new	correct	task-memory/obj295teapot.png	new	n/a
264.421	0.661	memory	test	test_old	correct	task-memory/obj320umbrella.png	old	n/a
267.356	1.363	memory	test	test_old	correct	task-memory/obj283spider.png	old	n/a
270.207	0.716	memory	test	test_old	correct	task-memory/obj013balloon.png	old	n/a
272.791	1.044	memory	test	test_old	incorrect	task-memory/obj017barbecue.png	new	n/a
275.325	0.773	memory	test	test_old	correct	task-memory/obj284spoon.png	old	n/a
278.126	0.969	memory	test	test_new	correct	task-memory/obj043cage.png	new	n/a
280.794	1.221	memory	test	test_new	correct	task-memory/obj003alligator.png	new	n/a
283.679	1.144	memory	test	test_new	correct	task-memory/obj271skis.png	new	n/a
286.546	0.878	memory	test	test_old	correct	task-memory/obj005ant.png	old	n/a
289.231	1.022	memory	test	test_new	correct	task-memory/obj183mirror.png	new	n/a
291.965	0.76	memory	test	test_old	correct	task-memory/obj175mailbox.png	old	n/a
294.916	0.924	memory	test	test_new	correct	task-memory/obj121globe.png	new	n/a
297.75	1.073	memory	test	test_old	correct	task-memory/obj115funnel.png	old	n/a
308.488	1.017	memory	dummy	study_dummy	n/a	task-memory/obj042cactus.png	n/a	n/a
310.522	1.017	memory	dummy	study_dummy	n/a	task-memory/obj084dolphin.png	n/a	n/a
312.556	1.017	memory	dummy	study_dummy	n/a	task-memory/obj108flute.png	n/a	n/a
314.59	1.017	memory	study	study	n/a	task-memory/obj083dog.png	n/a	n/a
316.624	1.017	memory	study	study	n/a	task-memory/obj142hook.png	n/a	n/a
318.658	1.034	memory	study	study	n/a	task-memory/obj180medal.png	n/a	n/a
320.709	1.034	memory	study	study	n/a	task-memory/obj025binoculars.png	n/a	n/a
322.76	1.017	memory	study	study	n/a	task-memory/obj169lips.png	n/a	n/a
324.794	1.017	memory	study	study	n/a	task-memory/obj161lamp.png	n/a	n/a
326.845	1.017	memory	study	study	n/a	task-memory/obj250rope.png	n/a	n/a
328.895	1.017	memory	study	study	n/a	task-memory/obj226plate.png	n/a	n/a
330.929	1.017	memory	study	study	n/a	task-memory/obj263seahorse.png	n/a	n/a
332.964	1.017	memory	study	study	n/a	task-memory/obj268sink.png	n/a	n/a
334.998	1.017	memory	study	study	n/a	task-memory/obj002acorn.png	n/a	n/a
337.032	1.017	memory	study	study	n/a	task-memory/obj078dentist.png	n/a	n/a
339.066	1.017	memory	study	study	n/a	task-memory/obj289submarine.png	n/a	n/a
341.1	1.017	memory	study	study	n/a	task-memory/obj061church.png	n/a	n/a
343.134	1.017	memory	study	study	n/a	task-memory/obj319typewriter.png	n/a	n/a
345.168	1.017	memory	study	study	n/a	task-memory/obj039bus.png	n/a	n/a
347.202	1.017	memory	study	study	n/a	task-memory/obj107flower.png	n/a	n/a
349.236	1.017	memory	study	study	n/a	task-memory/obj022bell.png	n/a	n/a
351.27	1.017	memory	study	study	n/a	task-memory/obj333whale.png	n/a	n/a
353.304	1.017	memory	study	study	n/a	task-memory/obj086door.png	n/a	n/a
355.339	1.017	memory	dummy	study_dummy	n/a	task-memory/obj230priest.png	n/a	n/a
357.373	1.017	memory	dummy	study_dummy	n/a	task-memory/obj238rain.png	n/a	n/a
359.407	1.017	memory	dummy	study_dummy	n/a	task-memory/obj260scissors.png	n/a	n/a
371.578	25.0	memory	distraction_math	math	n/a	n/a	n/a	n/a
399.655	25.0	memory	distraction_math	math	n/a	n/a	n/a	n/a
427.716	25.0	memory	distraction_math	math	n/a	n/a	n/a	n/a
455.776	25.0	memory	distraction_math	math	n/a	n/a	n/a	n/a
489.622	1.964	memory	test	test_new	correct	task-memory/obj141hoof.png	new	n/a
493.04	1.531	memory	test	test_new	correct	task-memory/obj331watermelon.png	new	n/a
495.941	1.066	memory	test	test_new	correct	task-memory/obj095envelope.png	new	n/a
498.825	0.973	memory	test	test_old	correct	task-memory/obj169lips.png	old	n/a
501.743	0.81	memory	test	test_old	correct	task-memory/obj039bus.png	old	n/a
504.778	1.159	memory	test	test_new	correct	task-memory/obj253saddle.png	new	n/a
507.612	0.75	memory	test	test_old	correct	task-memory/obj083dog.png	old	n/a
510.246	0.711	memory	test	test_old	correct	task-memory/obj161lamp.png	old	n/a
513.147	1.157	memory	test	test_new	incorrect	task-memory/obj018barrel.png	old	n/a
516.182	0.732	memory	test	test_new	correct	task-memory/obj206panda.png	new	n/a
519.133	0.802	memory	test	test_old	correct	task-memory/obj250rope.png	old	n/a
521.851	0.682	memory	test	test_old	correct	task-memory/obj226plate.png	old	n/a
524.585	0.866	memory	test	test_old	correct	task-memory/obj078dentist.png	old	n/a
527.536	1.057	memory	test	test_new	correct	task-memory/obj068cork.png	new	n/a
530.371	1.589	memory	test	test_new	incorrect	task-memory/obj213pen.png	old	n/a
533.222	0.751	memory	test	test_old	correct	task-memory/obj319typewriter.png	old	n/a
535.939	1.328	memory	test	test_old	correct	task-memory/obj025binoculars.png	old	n/a
538.49	0.966	memory	test	test_new	correct	task-memory/obj200orange.png	new	n/a
541.325	0.994	memory	test	test_new	correct	task-memory/obj150jar.png	new	n/a
544.059	0.923	memory	test	test_old	correct	task-memory/obj263seahorse.png	old	n/a
546.827	0.921	memory	test	test_new	incorrect	task-memory/obj098fan.png	old	n/a
549.711	0.742	memory	test	test_old	correct	task-memory/obj107flower.png	old	n/a
552.695	1.374	memory	test	test_new	correct	task-memory/obj259scarf.png	new	n/a
555.613	0.696	memory	test	test_old	correct	task-memory/obj061church.png	old	n/a
558.198	0.67	memory	test	test_old	correct	task-memory/obj333whale.png	old	n/a
560.799	1.459	memory	test	test_new	correct	task-memory/obj075crown.png	new	n/a
563.349	0.954	memory	test	test_new	correct	task-memory/obj279sock.png	new	n/a
566.017	0.867	memory	test	test_old	correct	task-memory/obj002acorn.png	old	n/a
569.035	1.589	memory	test	test_new	correct	task-memory/obj048candle.png	new	n/a
571.703	1.32	memory	test	test_new	correct	task-memory/obj044cake.png	new	n/a
574.637	0.826	memory	test	test_new	correct	task-memory/obj164lemon.png	new	n/a
577.188	0.758	memory	test	test_old	correct	task-memory/obj180medal.png	old	n/a
579.906	1.243	memory	test	test_old	correct	task-memory/obj289submarine.png	old	n/a
582.59	1.59	memory	test	test_old	correct	task-memory/obj022bell.png	old	n/a
585.291	0.955	memory	test	test_old	incorrect	task-memory/obj142hook.png	new	n/a
588.042	1.197	memory	test	test_new	correct	task-memory/obj082doctor.png	new	n/a
590.776	1.561	memory	test	test_new	correct	task-memory/obj165leopard.png	new	n/a
593.677	1.336	memory	test	test_new	correct	task-memory/obj001accordion.png	new	n/a
596.262	0.872	memory	test	test_old	correct	task-memory/obj086door.png	old	n/a
599.23	0.869	memory	test	test_old	correct	task-memory/obj268sink.png	old	n/a
