onset	duration	run_type	trial_type	trial_index	cue	stimulusintensity	rating_value	rating_glmslabel	rating_value_fillna	rating_glmslabel_fillna	rating_mouseonset	rating_mousedur	stim_file	pain_onset_ttl1	pain_onset_ttl2	pain_onset_ttl3	pain_onset_ttl4	pain_stimulus_delivery_success	cognitive_correct_response	cognitive_participant_response	cognitive_response_accuracy
8.0	0.99	vicarious	cue	1	low_cue	n/a	n/a	n/a	n/a	n/a	n/a	n/a	task-social/cue/runtype-vicarious/scl/l044.png	n/a	n/a	n/a	n/a	n/a	n/a	n/a	n/a
11.23	2.37	vicarious	expectrating	1	low_cue	n/a	44.34	Strong	44.34	Strong	0.12	2.25	task-social/cue/runtype-vicarious/scl/l044.png	n/a	n/a	n/a	n/a	n/a	n/a	n/a	n/a
21.29	5.0	vicarious	stimulus	1	low_cue	med_stim	n/a	n/a	n/a	n/a	n/a	n/a	task-social/stim/runtype-vicarious/jh043t2aeunaff_M.mp4	n/a	n/a	n/a	n/a	n/a	n/a	n/a	n/a
33.41	2.3	vicarious	outcomerating	1	low_cue	med_stim	36.04	Strong	36.04	Strong	0.12	2.25	task-social/outcomerating/task-vicarious_scale.png	n/a	n/a	n/a	n/a	n/a	n/a	n/a	n/a
40.69	0.99	vicarious	cue	2	high_cue	n/a	n/a	n/a	n/a	n/a	n/a	n/a	task-social/cue/runtype-vicarious/sch/h032.png	n/a	n/a	n/a	n/a	n/a	n/a	n/a	n/a
43.61	2.15	vicarious	expectrating	2	high_cue	n/a	84.96	Very Strong	84.96	Very Strong	0.13	2.02	task-social/cue/runtype-vicarious/sch/h032.png	n/a	n/a	n/a	n/a	n/a	n/a	n/a	n/a
53.69	5.0	vicarious	stimulus	2	high_cue	low_stim	n/a	n/a	n/a	n/a	n/a	n/a	task-social/stim/runtype-vicarious/jh043t2aaunaff_L.mp4	n/a	n/a	n/a	n/a	n/a	n/a	n/a	n/a
61.6	n/a	vicarious	outcomerating	2	high_cue	low_stim	n/a	n/a	35.65	Strong	0.13	2.02	task-social/outcomerating/task-vicarious_scale.png	n/a	n/a	n/a	n/a	n/a	n/a	n/a	n/a
70.8	0.98	vicarious	cue	3	high_cue	n/a	n/a	n/a	n/a	n/a	n/a	n/a	task-social/cue/runtype-vicarious/sch/h015.png	n/a	n/a	n/a	n/a	n/a	n/a	n/a	n/a
73.71	2.25	vicarious	expectrating	3	high_cue	n/a	43.37	Strong	43.37	Strong	0.48	1.77	task-social/cue/runtype-vicarious/sch/h015.png	n/a	n/a	n/a	n/a	n/a	n/a	n/a	n/a
90.89	5.0	vicarious	stimulus	3	high_cue	high_stim	n/a	n/a	n/a	n/a	n/a	n/a	task-social/stim/runtype-vicarious/vw121t1aaaff_H.mp4	n/a	n/a	n/a	n/a	n/a	n/a	n/a	n/a
102.9	3.2	vicarious	outcomerating	3	high_cue	high_stim	77.02	Very Strong	77.02	Very Strong	0.48	1.77	task-social/outcomerating/task-vicarious_scale.png	n/a	n/a	n/a	n/a	n/a	n/a	n/a	n/a
108.8	0.98	vicarious	cue	4	low_cue	n/a	n/a	n/a	n/a	n/a	n/a	n/a	task-social/cue/runtype-vicarious/scl/l036.png	n/a	n/a	n/a	n/a	n/a	n/a	n/a	n/a
111.6	n/a	vicarious	expectrating	4	low_cue	n/a	n/a	n/a	9.91	Weak	0.97	3.13	task-social/cue/runtype-vicarious/scl/l036.png	n/a	n/a	n/a	n/a	n/a	n/a	n/a	n/a
119.29	5.0	vicarious	stimulus	4	low_cue	med_stim	n/a	n/a	n/a	n/a	n/a	n/a	task-social/stim/runtype-vicarious/vw121t1aiaff_M.mp4	n/a	n/a	n/a	n/a	n/a	n/a	n/a	n/a
126.81	1.78	vicarious	outcomerating	4	low_cue	med_stim	42.88	Strong	42.88	Strong	0.97	3.13	task-social/outcomerating/task-vicarious_scale.png	n/a	n/a	n/a	n/a	n/a	n/a	n/a	n/a
134.1	0.99	vicarious	cue	5	high_cue	n/a	n/a	n/a	n/a	n/a	n/a	n/a	task-social/cue/runtype-vicarious/sch/h022.png	n/a	n/a	n/a	n/a	n/a	n/a	n/a	n/a
135.7	2.09	vicarious	expectrating	5	high_cue	n/a	74.02	Very Strong	74.02	Very Strong	0.7	1.39	task-social/cue/runtype-vicarious/sch/h022.png	n/a	n/a	n/a	n/a	n/a	n/a	n/a	n/a
145.79	5.0	vicarious	stimulus	5	high_cue	low_stim	n/a	n/a	n/a	n/a	n/a	n/a	task-social/stim/runtype-vicarious/hs107t2aeunaff_L.mp4	n/a	n/a	n/a	n/a	n/a	n/a	n/a	n/a
153.4	3.87	vicarious	outcomerating	5	high_cue	low_stim	21.63	Moderate	21.63	Moderate	0.7	1.39	task-social/outcomerating/task-vicarious_scale.png	n/a	n/a	n/a	n/a	n/a	n/a	n/a	n/a
164.59	0.99	vicarious	cue	6	low_cue	n/a	n/a	n/a	n/a	n/a	n/a	n/a	task-social/cue/runtype-vicarious/scl/l052.png	n/a	n/a	n/a	n/a	n/a	n/a	n/a	n/a
166.91	3.07	vicarious	expectrating	6	low_cue	n/a	15.32	Moderate	15.32	Moderate	0.37	2.7	task-social/cue/runtype-vicarious/scl/l052.png	n/a	n/a	n/a	n/a	n/a	n/a	n/a	n/a
173.89	5.0	vicarious	stimulus	6	low_cue	high_stim	n/a	n/a	n/a	n/a	n/a	n/a	task-social/stim/runtype-vicarious/hs107t1afaff_H.mp4	n/a	n/a	n/a	n/a	n/a	n/a	n/a	n/a
189.7	n/a	vicarious	outcomerating	6	low_cue	high_stim	n/a	n/a	19.03	Moderate	0.37	2.7	task-social/outcomerating/task-vicarious_scale.png	n/a	n/a	n/a	n/a	n/a	n/a	n/a	n/a
197.0	0.98	vicarious	cue	7	low_cue	n/a	n/a	n/a	n/a	n/a	n/a	n/a	task-social/cue/runtype-vicarious/scl/l013.png	n/a	n/a	n/a	n/a	n/a	n/a	n/a	n/a
199.0	1.38	vicarious	expectrating	7	low_cue	n/a	13.36	Moderate	13.36	Moderate	0.5	0.88	task-social/cue/runtype-vicarious/scl/l013.png	n/a	n/a	n/a	n/a	n/a	n/a	n/a	n/a
208.49	5.0	vicarious	stimulus	7	low_cue	low_stim	n/a	n/a	n/a	n/a	n/a	n/a	task-social/stim/runtype-vicarious/dn124t1aaunaff_L.mp4	n/a	n/a	n/a	n/a	n/a	n/a	n/a	n/a
220.71	n/a	vicarious	outcomerating	7	low_cue	low_stim	n/a	n/a	26.67	Moderate	0.5	0.88	task-social/outcomerating/task-vicarious_scale.png	n/a	n/a	n/a	n/a	n/a	n/a	n/a	n/a
225.5	0.99	vicarious	cue	8	high_cue	n/a	n/a	n/a	n/a	n/a	n/a	n/a	task-social/cue/runtype-vicarious/sch/h010.png	n/a	n/a	n/a	n/a	n/a	n/a	n/a	n/a
227.9	1.77	vicarious	expectrating	8	high_cue	n/a	69.82	Very Strong	69.82	Very Strong	0.63	1.14	task-social/cue/runtype-vicarious/sch/h010.png	n/a	n/a	n/a	n/a	n/a	n/a	n/a	n/a
237.39	5.0	vicarious	stimulus	8	high_cue	med_stim	n/a	n/a	n/a	n/a	n/a	n/a	task-social/stim/runtype-vicarious/ak064t1aiaff_M.mp4	n/a	n/a	n/a	n/a	n/a	n/a	n/a	n/a
247.5	2.75	vicarious	outcomerating	8	high_cue	med_stim	13.48	Moderate	13.48	Moderate	0.63	1.14	task-social/outcomerating/task-vicarious_scale.png	n/a	n/a	n/a	n/a	n/a	n/a	n/a	n/a
255.09	0.99	vicarious	cue	9	low_cue	n/a	n/a	n/a	n/a	n/a	n/a	n/a	task-social/cue/runtype-vicarious/scl/l025.png	n/a	n/a	n/a	n/a	n/a	n/a	n/a	n/a
257.11	n/a	vicarious	expectrating	9	low_cue	n/a	n/a	n/a	4.63	Weak	0.05	3.72	task-social/cue/runtype-vicarious/scl/l025.png	n/a	n/a	n/a	n/a	n/a	n/a	n/a	n/a
264.79	5.0	vicarious	stimulus	9	low_cue	high_stim	n/a	n/a	n/a	n/a	n/a	n/a	task-social/stim/runtype-vicarious/jh043t2aeaff_H.mp4	n/a	n/a	n/a	n/a	n/a	n/a	n/a	n/a
278.3	3.11	vicarious	outcomerating	9	low_cue	high_stim	34.99	Strong	34.99	Strong	0.05	3.72	task-social/outcomerating/task-vicarious_scale.png	n/a	n/a	n/a	n/a	n/a	n/a	n/a	n/a
288.6	0.98	vicarious	cue	10	high_cue	n/a	n/a	n/a	n/a	n/a	n/a	n/a	task-social/cue/runtype-vicarious/sch/h033.png	n/a	n/a	n/a	n/a	n/a	n/a	n/a	n/a
291.5	2.03	vicarious	expectrating	10	high_cue	n/a	58.36	Strong	58.36	Strong	0.05	1.98	task-social/cue/runtype-vicarious/sch/h033.png	n/a	n/a	n/a	n/a	n/a	n/a	n/a	n/a
301.69	5.0	vicarious	stimulus	10	high_cue	med_stim	n/a	n/a	n/a	n/a	n/a	n/a	task-social/stim/runtype-vicarious/hs107t2aaaff_M.mp4	n/a	n/a	n/a	n/a	n/a	n/a	n/a	n/a
311.91	3.25	vicarious	outcomerating	10	high_cue	med_stim	38.66	Strong	38.66	Strong	0.05	1.98	task-social/outcomerating/task-vicarious_scale.png	n/a	n/a	n/a	n/a	n/a	n/a	n/a	n/a
319.2	0.99	vicarious	cue	11	low_cue	n/a	n/a	n/a	n/a	n/a	n/a	n/a	task-social/cue/runtype-vicarious/scl/l005.png	n/a	n/a	n/a	n/a	n/a	n/a	n/a	n/a
322.0	2.04	vicarious	expectrating	11	low_cue	n/a	11.61	Moderate	11.61	Moderate	0.58	1.46	task-social/cue/runtype-vicarious/scl/l005.png	n/a	n/a	n/a	n/a	n/a	n/a	n/a	n/a
332.19	5.0	vicarious	stimulus	11	low_cue	low_stim	n/a	n/a	n/a	n/a	n/a	n/a	task-social/stim/runtype-vicarious/kz120t2aaunaff_L.mp4	n/a	n/a	n/a	n/a	n/a	n/a	n/a	n/a
348.01	n/a	vicarious	outcomerating	11	low_cue	low_stim	n/a	n/a	9.69	Weak	0.58	1.46	task-social/outcomerating/task-vicarious_scale.png	n/a	n/a	n/a	n/a	n/a	n/a	n/a	n/a
362.5	0.99	vicarious	cue	12	high_cue	n/a	n/a	n/a	n/a	n/a	n/a	n/a	task-social/cue/runtype-vicarious/sch/h044.png	n/a	n/a	n/a	n/a	n/a	n/a	n/a	n/a
364.9	1.54	vicarious	expectrating	12	high_cue	n/a	37.48	Strong	37.48	Strong	0.05	1.49	task-social/cue/runtype-vicarious/sch/h044.png	n/a	n/a	n/a	n/a	n/a	n/a	n/a	n/a
381.59	5.0	vicarious	stimulus	12	high_cue	high_stim	n/a	n/a	n/a	n/a	n/a	n/a	task-social/stim/runtype-vicarious/jh123t1aeaff_H.mp4	n/a	n/a	n/a	n/a	n/a	n/a	n/a	n/a
394.81	1.4	vicarious	outcomerating	12	high_cue	high_stim	22.02	Moderate	22.02	Moderate	0.05	1.49	task-social/outcomerating/task-vicarious_scale.png	n/a	n/a	n/a	n/a	n/a	n/a	n/a	n/a
