onset	duration	subtask_type	question	event_type	participant_response	normative_response	response_accuracy	stim_file
5.0277698040008545	1.335910081863403	tomspunt	reaching?	how_hand	yes	yes	correct	task-tomspunt/H_007.jpg
6.678380012512207	1.385089874267578	tomspunt	reaching?	how_hand	no	no	correct	task-tomspunt/H_532.jpg
8.37900996208191	1.270129919052124	tomspunt	reaching?	how_hand	yes	yes	correct	task-tomspunt/H_474.jpg
9.962939977645874	0.968979835510254	tomspunt	reaching?	how_hand	no	no	correct	task-tomspunt/H_438.jpg
11.246749877929688	0.970440149307251	tomspunt	reaching?	how_hand	yes	yes	correct	task-tomspunt/H_364.jpg
12.53056001663208	0.918219804763794	tomspunt	reaching?	how_hand	yes	yes	correct	task-tomspunt/H_006.jpg
13.764359951019289	1.0981600284576416	tomspunt	reaching?	how_hand	yes	yes	correct	task-tomspunt/H_003.jpg
15.16487979888916	0.9975800514221193	tomspunt	reaching?	how_hand	no	no	correct	task-tomspunt/H_132.jpg
22.55096983909607	1.7802000045776367	tomspunt	healthy?	why_hand	yes	yes	correct	task-tomspunt/H_627.jpg
24.60172986984253	n/a	tomspunt	healthy?	why_hand	n/a	yes	incorrect	task-tomspunt/H_438.jpg
26.635819911956787	0.9682900905609132	tomspunt	healthy?	why_hand	yes	yes	correct	task-tomspunt/H_364.jpg
27.919639825820923	1.5422401428222656	tomspunt	healthy?	why_hand	no	no	correct	task-tomspunt/H_130.jpg
29.77032995223999	0.875499963760376	tomspunt	healthy?	why_hand	yes	yes	correct	task-tomspunt/H_362.jpg
30.954099893569943	1.058579921722412	tomspunt	healthy?	why_hand	no	no	correct	task-tomspunt/H_007.jpg
32.321280002593994	0.7242398262023926	tomspunt	healthy?	why_hand	yes	yes	correct	task-tomspunt/H_167.jpg
33.355000019073486	1.3849198818206787	tomspunt	healthy?	why_hand	no	no	correct	task-tomspunt/H_019.jpg
41.65808987617493	0.7211000919342041	tomspunt	admiring?	why_face	yes	yes	correct	task-tomspunt/F_779.jpg
42.69180989265442	0.820310115814209	tomspunt	admiring?	why_face	yes	yes	correct	task-tomspunt/F_593.jpg
43.82556986808777	0.9203100204467772	tomspunt	admiring?	why_face	no	no	correct	task-tomspunt/F_110.jpg
45.05936002731323	0.8361499309539795	tomspunt	admiring?	why_face	yes	yes	correct	task-tomspunt/F_590.jpg
46.209789991378784	0.9526498317718506	tomspunt	admiring?	why_face	no	no	correct	task-tomspunt/F_692.jpg
47.4769299030304	0.7014601230621338	tomspunt	admiring?	why_face	yes	yes	correct	task-tomspunt/F_759.jpg
48.49396991729736	0.7686400413513184	tomspunt	admiring?	why_face	yes	yes	correct	task-tomspunt/F_648.jpg
49.577709913253784	0.8012299537658691	tomspunt	admiring?	why_face	no	no	correct	task-tomspunt/F_129.jpg
60.63182997703552	0.6513199806213379	tomspunt	smiling?	how_face	yes	yes	correct	task-tomspunt/F_139.jpg
61.59886002540589	0.7519698143005371	tomspunt	smiling?	how_face	no	no	correct	task-tomspunt/F_712.jpg
62.66592979431152	0.8015401363372803	tomspunt	smiling?	how_face	yes	yes	correct	task-tomspunt/F_695.jpg
63.78301000595093	0.801339864730835	tomspunt	smiling?	how_face	no	no	correct	task-tomspunt/F_758.jpg
64.90008997917175	0.6185598373413086	tomspunt	smiling?	how_face	yes	yes	correct	task-tomspunt/F_083.jpg
65.83377981185913	0.6350300312042236	tomspunt	smiling?	how_face	yes	yes	correct	task-tomspunt/F_759.jpg
66.78412985801697	0.6012401580810547	tomspunt	smiling?	how_face	no	no	correct	task-tomspunt/F_412.jpg
67.7011399269104	0.7019798755645752	tomspunt	smiling?	how_face	yes	yes	correct	task-tomspunt/F_593.jpg
78.15504002571106	0.9400999546051024	tomspunt	lifting?	how_hand	yes	yes	correct	task-tomspunt/H_136.jpg
79.40549993515015	1.0070998668670654	tomspunt	lifting?	how_hand	no	no	correct	task-tomspunt/H_038.jpg
80.72265982627869	1.2898600101470947	tomspunt	lifting?	how_hand	yes	yes	correct	task-tomspunt/H_189.jpg
82.32325983047485	1.0391600131988523	tomspunt	lifting?	how_hand	no	no	correct	task-tomspunt/H_077.jpg
83.67375993728638	1.1385300159454346	tomspunt	lifting?	how_hand	yes	yes	correct	task-tomspunt/H_443.jpg
85.12430000305176	0.888049840927124	tomspunt	lifting?	how_hand	no	no	correct	task-tomspunt/H_012.jpg
86.32474994659424	0.6872298717498779	tomspunt	lifting?	how_hand	yes	yes	correct	task-tomspunt/H_362.jpg
87.325119972229	1.3181798458099363	tomspunt	lifting?	how_hand	no	yes	incorrect	task-tomspunt/H_170.jpg
100.63008999824524	1.2849597930908203	tomspunt	helping?	why_hand	yes	yes	correct	task-tomspunt/H_077.jpg
102.23067998886108	0.9651598930358888	tomspunt	helping?	why_hand	yes	yes	correct	task-tomspunt/H_349.jpg
103.4978199005127	0.9181599617004396	tomspunt	helping?	why_hand	yes	yes	correct	task-tomspunt/H_474.jpg
104.73160982131958	0.8688399791717529	tomspunt	helping?	why_hand	no	yes	incorrect	task-tomspunt/H_024.jpg
105.91539001464844	0.9680697917938232	tomspunt	helping?	why_hand	no	no	correct	task-tomspunt/H_012.jpg
107.19919991493224	1.2681798934936523	tomspunt	helping?	why_hand	no	no	correct	task-tomspunt/H_159.jpg
108.78312993049622	0.984760046005249	tomspunt	helping?	why_hand	yes	yes	correct	task-tomspunt/H_111.jpg
110.08360981941225	1.0122301578521729	tomspunt	helping?	why_hand	no	no	correct	task-tomspunt/H_091.jpg
118.50341987609865	0.9017300605773926	tomspunt	proud?	why_face	yes	yes	correct	task-tomspunt/F_598.jpg
119.72053980827332	0.8513600826263428	tomspunt	proud?	why_face	no	no	correct	task-tomspunt/F_760.jpg
120.88763999938963	0.9517698287963868	tomspunt	proud?	why_face	yes	yes	correct	task-tomspunt/F_582.jpg
122.15477991104126	0.8903999328613281	tomspunt	proud?	why_face	no	no	correct	task-tomspunt/F_412.jpg
123.35522985458374	0.8572299480438232	tomspunt	proud?	why_face	yes	yes	correct	task-tomspunt/F_083.jpg
124.5223298072815	1.0520901679992676	tomspunt	proud?	why_face	no	no	correct	task-tomspunt/F_776.jpg
125.88949990272522	1.0515000820159912	tomspunt	proud?	why_face	yes	yes	correct	task-tomspunt/F_618.jpg
127.25668001174928	1.205169916152954	tomspunt	proud?	why_face	yes	yes	correct	task-tomspunt/F_695.jpg
136.04328989982605	0.81892991065979	tomspunt	looking to side?	how_face	yes	yes	correct	task-tomspunt/F_590.jpg
137.1770498752594	0.6853799819946289	tomspunt	looking to side?	how_face	yes	yes	correct	task-tomspunt/F_433.jpg
138.17741990089417	0.6517200469970703	tomspunt	looking to side?	how_face	yes	yes	correct	task-tomspunt/F_716.jpg
139.14444994926453	0.8181600570678711	tomspunt	looking to side?	how_face	yes	no	incorrect	task-tomspunt/F_779.jpg
140.26152992248535	1.1183700561523438	tomspunt	looking to side?	how_face	yes	yes	correct	task-tomspunt/F_760.jpg
141.69539999961853	0.984649896621704	tomspunt	looking to side?	how_face	no	no	correct	task-tomspunt/F_111.jpg
142.99587988853455	1.218679904937744	tomspunt	looking to side?	how_face	yes	yes	correct	task-tomspunt/F_110.jpg
144.52978992462158	1.034719944000244	tomspunt	looking to side?	how_face	no	no	correct	task-tomspunt/F_798.jpg
155.15041995048523	0.8287298679351807	tomspunt	argument?	why_face	yes	yes	correct	task-tomspunt/F_716.jpg
156.28416991233826	0.944390058517456	tomspunt	argument?	why_face	no	no	correct	task-tomspunt/F_139.jpg
157.53463983535767	0.8018500804901123	tomspunt	argument?	why_face	yes	yes	correct	task-tomspunt/F_712.jpg
158.6517198085785	0.8686501979827881	tomspunt	argument?	why_face	no	no	correct	task-tomspunt/F_433.jpg
159.83550000190735	0.7853598594665527	tomspunt	argument?	why_face	yes	yes	correct	task-tomspunt/F_403.jpg
160.93590998649597	1.185499906539917	tomspunt	argument?	why_face	no	no	correct	task-tomspunt/F_844.jpg
162.4364697933197	0.8762800693511963	tomspunt	argument?	why_face	yes	yes	correct	task-tomspunt/F_743.jpg
163.62023997306824	0.9685299396514891	tomspunt	argument?	why_face	yes	yes	correct	task-tomspunt/F_758.jpg
172.9903998374939	0.6721501350402832	tomspunt	open mouth?	how_face	yes	yes	correct	task-tomspunt/F_844.jpg
173.97409987449646	0.5686500072479248	tomspunt	open mouth?	how_face	yes	yes	correct	task-tomspunt/F_776.jpg
174.8577699661255	0.871229887008667	tomspunt	open mouth?	how_face	no	no	correct	task-tomspunt/F_544.jpg
176.04153990745544	0.6874599456787109	tomspunt	open mouth?	how_face	yes	yes	correct	task-tomspunt/F_692.jpg
177.0419099330902	0.8366498947143555	tomspunt	open mouth?	how_face	no	no	correct	task-tomspunt/F_584.jpg
178.19233989715576	0.6028099060058594	tomspunt	open mouth?	how_face	yes	yes	correct	task-tomspunt/F_403.jpg
179.1093499660492	0.6019699573516846	tomspunt	open mouth?	how_face	yes	yes	correct	task-tomspunt/F_086.jpg
180.02635979652405	0.6527302265167236	tomspunt	open mouth?	how_face	no	no	correct	task-tomspunt/F_648.jpg
190.8804099559784	0.851719856262207	tomspunt	pressing button?	how_hand	yes	yes	correct	task-tomspunt/H_019.jpg
192.04750990867615	0.8514299392700195	tomspunt	pressing button?	how_hand	no	no	correct	task-tomspunt/H_024.jpg
193.2146098613739	0.7854499816894531	tomspunt	pressing button?	how_hand	no	no	correct	task-tomspunt/H_130.jpg
194.31501984596252	0.7181999683380127	tomspunt	pressing button?	how_hand	yes	yes	correct	task-tomspunt/H_502.jpg
195.348739862442	0.9013800621032716	tomspunt	pressing button?	how_hand	no	no	correct	task-tomspunt/H_261.jpg
196.5658597946167	0.6460402011871338	tomspunt	pressing button?	how_hand	yes	yes	correct	task-tomspunt/H_332.jpg
197.5162198543549	0.7130000591278076	tomspunt	pressing button?	how_hand	yes	yes	correct	task-tomspunt/H_126.jpg
198.53325986862183	0.7619400024414062	tomspunt	pressing button?	how_hand	yes	yes	correct	task-tomspunt/H_483.jpg
208.67037987709045	1.1915199756622314	tomspunt	competing?	why_hand	yes	yes	correct	task-tomspunt/H_261.jpg
210.17093992233276	0.7513999938964844	tomspunt	competing?	why_hand	no	no	correct	task-tomspunt/H_483.jpg
211.23799991607663	0.6740601062774658	tomspunt	competing?	why_hand	yes	yes	correct	task-tomspunt/H_132.jpg
212.2216999530792	0.8069698810577393	tomspunt	competing?	why_hand	no	no	correct	task-tomspunt/H_126.jpg
213.33877992630005	0.8736000061035156	tomspunt	competing?	why_hand	yes	yes	correct	task-tomspunt/H_136.jpg
214.52255988121033	1.0347599983215332	tomspunt	competing?	why_hand	no	no	correct	task-tomspunt/H_502.jpg
215.87305998802185	0.6554698944091797	tomspunt	competing?	why_hand	yes	yes	correct	task-tomspunt/H_003.jpg
216.84008979797363	0.618300199508667	tomspunt	competing?	why_hand	yes	yes	correct	task-tomspunt/H_170.jpg
226.74377989768985	0.7520201206207275	tomspunt	self-doubt?	why_face	yes	yes	correct	task-tomspunt/F_544.jpg
227.81084990501404	1.101870059967041	tomspunt	self-doubt?	why_face	no	no	correct	task-tomspunt/F_086.jpg
229.2280399799347	0.8853399753570557	tomspunt	self-doubt?	why_face	yes	yes	correct	task-tomspunt/F_798.jpg
230.42848992347717	0.6678500175476074	tomspunt	self-doubt?	why_face	yes	yes	correct	task-tomspunt/F_111.jpg
231.41218996047976	0.768090009689331	tomspunt	self-doubt?	why_face	no	no	correct	task-tomspunt/F_774.jpg
232.49592995643616	1.316930055618286	tomspunt	self-doubt?	why_face	yes	yes	correct	task-tomspunt/F_754.jpg
234.11319994926453	0.9824099540710448	tomspunt	self-doubt?	why_face	no	no	correct	task-tomspunt/F_128.jpg
235.3970098495483	1.518320083618164	tomspunt	self-doubt?	why_face	no	yes	incorrect	task-tomspunt/F_584.jpg
245.80088996887207	0.7277498245239258	tomspunt	looking at camera?	how_face	yes	yes	correct	task-tomspunt/F_128.jpg
246.83460998535156	0.6180799007415771	tomspunt	looking at camera?	how_face	yes	yes	correct	task-tomspunt/F_618.jpg
247.76828980445865	0.6681702136993408	tomspunt	looking at camera?	how_face	yes	yes	correct	task-tomspunt/F_598.jpg
248.7519898414612	0.6682600975036621	tomspunt	looking at camera?	how_face	no	no	correct	task-tomspunt/F_743.jpg
249.73568987846377	0.717980146408081	tomspunt	looking at camera?	how_face	yes	yes	correct	task-tomspunt/F_774.jpg
250.76940989494324	0.8513801097869873	tomspunt	looking at camera?	how_face	no	no	correct	task-tomspunt/F_582.jpg
251.936509847641	0.8924901485443115	tomspunt	looking at camera?	how_face	no	no	correct	task-tomspunt/F_754.jpg
253.13695979118347	0.901400089263916	tomspunt	looking at camera?	how_face	yes	yes	correct	task-tomspunt/F_129.jpg
264.5912299156189	1.0377299785614014	tomspunt	both hands?	how_hand	yes	yes	correct	task-tomspunt/H_167.jpg
265.9417300224304	1.204009771347046	tomspunt	both hands?	how_hand	no	no	correct	task-tomspunt/H_091.jpg
267.4589698314667	1.1529200077056885	tomspunt	both hands?	how_hand	no	no	correct	task-tomspunt/H_627.jpg
268.92617988586426	1.1364500522613523	tomspunt	both hands?	how_hand	yes	yes	correct	task-tomspunt/H_027.jpg
270.37671995162964	0.885469913482666	tomspunt	both hands?	how_hand	yes	yes	correct	task-tomspunt/H_111.jpg
271.5771698951721	1.0680201053619385	tomspunt	both hands?	how_hand	no	no	correct	task-tomspunt/H_159.jpg
272.96101999282837	1.0017600059509275	tomspunt	both hands?	how_hand	yes	yes	correct	task-tomspunt/H_581.jpg
274.2781798839569	0.8012299537658691	tomspunt	both hands?	how_hand	yes	yes	correct	task-tomspunt/H_349.jpg
283.3648998737335	1.0855000019073486	tomspunt	self-protection?	why_hand	yes	yes	correct	task-tomspunt/H_443.jpg
284.765419960022	1.2519898414611816	tomspunt	self-protection?	why_hand	no	no	correct	task-tomspunt/H_006.jpg
286.3326699733734	1.2021198272705078	tomspunt	self-protection?	why_hand	no	yes	incorrect	task-tomspunt/H_581.jpg
287.8499000072479	1.6127099990844729	tomspunt	self-protection?	why_hand	no	no	correct	task-tomspunt/H_532.jpg
289.76728987693787	1.2855000495910645	tomspunt	self-protection?	why_hand	yes	yes	correct	task-tomspunt/H_027.jpg
291.3678798675537	0.8353500366210938	tomspunt	self-protection?	why_hand	yes	yes	correct	task-tomspunt/H_038.jpg
292.51830983161926	1.051480054855347	tomspunt	self-protection?	why_hand	no	no	correct	task-tomspunt/H_332.jpg
293.8854899406433	1.085510015487671	tomspunt	self-protection?	why_hand	yes	yes	correct	task-tomspunt/H_189.jpg
304.85624980926514	1.2557401657104492	tomspunt	smiling?	how_face	no	yes	incorrect	task-tomspunt/F_759.jpg
306.4234998226166	0.8217401504516602	tomspunt	smiling?	how_face	no	no	correct	task-tomspunt/F_412.jpg
307.5572500228882	0.6716799736022949	tomspunt	smiling?	how_face	yes	yes	correct	task-tomspunt/F_593.jpg
308.54094982147217	0.8216001987457275	tomspunt	smiling?	how_face	no	no	correct	task-tomspunt/F_712.jpg
309.6747097969055	0.7371799945831299	tomspunt	smiling?	how_face	yes	yes	correct	task-tomspunt/F_695.jpg
310.7250998020172	0.8874502182006836	tomspunt	smiling?	how_face	yes	yes	correct	task-tomspunt/F_139.jpg
311.92554998397827	0.5704398155212402	tomspunt	smiling?	how_face	yes	yes	correct	task-tomspunt/F_083.jpg
312.8092098236084	0.70343017578125	tomspunt	smiling?	how_face	no	no	correct	task-tomspunt/F_758.jpg
322.64620995521545	0.70169997215271	tomspunt	admiring?	why_face	yes	yes	correct	task-tomspunt/F_593.jpg
323.66325998306274	0.7013099193572998	tomspunt	admiring?	why_face	no	no	correct	task-tomspunt/F_129.jpg
324.68031001091003	1.1014299392700195	tomspunt	admiring?	why_face	yes	yes	correct	task-tomspunt/F_759.jpg
326.0974998474121	0.8852100372314453	tomspunt	admiring?	why_face	no	no	correct	task-tomspunt/F_692.jpg
327.2979497909546	0.7180001735687256	tomspunt	admiring?	why_face	yes	yes	correct	task-tomspunt/F_779.jpg
328.3316698074341	0.7847402095794678	tomspunt	admiring?	why_face	yes	yes	correct	task-tomspunt/F_590.jpg
329.4320797920227	0.6634500026702881	tomspunt	admiring?	why_face	yes	yes	correct	task-tomspunt/F_648.jpg
330.39909982681274	0.8854501247406006	tomspunt	admiring?	why_face	no	no	correct	task-tomspunt/F_110.jpg
340.5362198352814	0.5349900722503662	tomspunt	competing?	why_hand	yes	yes	correct	task-tomspunt/H_261.jpg
341.3865399360657	0.5428800582885742	tomspunt	competing?	why_hand	yes	yes	correct	task-tomspunt/H_170.jpg
342.23685002326965	1.0417098999023438	tomspunt	competing?	why_hand	no	no	correct	task-tomspunt/H_483.jpg
343.5873599052429	0.541179895401001	tomspunt	competing?	why_hand	yes	yes	correct	task-tomspunt/H_132.jpg
344.4376699924469	0.7743198871612549	tomspunt	competing?	why_hand	yes	yes	correct	task-tomspunt/H_136.jpg
345.5214099884033	0.59132981300354	tomspunt	competing?	why_hand	yes	yes	correct	task-tomspunt/H_003.jpg
346.421749830246	0.5738101005554199	tomspunt	competing?	why_hand	no	no	correct	task-tomspunt/H_126.jpg
347.3054099082947	0.6568601131439209	tomspunt	competing?	why_hand	no	no	correct	task-tomspunt/H_502.jpg
362.01089000701904	0.7345798015594482	tomspunt	reaching?	how_hand	yes	yes	correct	task-tomspunt/H_003.jpg
363.06129002571106	0.6683697700500488	tomspunt	reaching?	how_hand	yes	yes	correct	task-tomspunt/H_364.jpg
364.0449798107147	0.8849701881408691	tomspunt	reaching?	how_hand	no	no	correct	task-tomspunt/H_532.jpg
365.2454299926758	0.7517199516296387	tomspunt	reaching?	how_hand	yes	yes	correct	task-tomspunt/H_006.jpg
366.3125	0.952049970626831	tomspunt	reaching?	how_hand	no	no	correct	task-tomspunt/H_438.jpg
367.5796399116516	1.1680901050567627	tomspunt	reaching?	how_hand	yes	yes	correct	task-tomspunt/H_007.jpg
369.0635199546814	0.8323400020599365	tomspunt	reaching?	how_hand	yes	yes	correct	task-tomspunt/H_474.jpg
370.19727993011475	0.9352800846099854	tomspunt	reaching?	how_hand	no	no	correct	task-tomspunt/H_132.jpg
379.850879907608	0.5611600875854492	tomspunt	open mouth?	how_face	yes	yes	correct	task-tomspunt/F_403.jpg
380.71786999702454	0.7687399387359619	tomspunt	open mouth?	how_face	no	no	correct	task-tomspunt/F_648.jpg
381.80160999298096	0.6606698036193848	tomspunt	open mouth?	how_face	yes	yes	correct	task-tomspunt/F_776.jpg
382.768630027771	0.6936798095703125	tomspunt	open mouth?	how_face	no	no	correct	task-tomspunt/F_584.jpg
383.7690098285675	0.6265401840209961	tomspunt	open mouth?	how_face	yes	yes	correct	task-tomspunt/F_844.jpg
384.70268988609314	0.6429100036621094	tomspunt	open mouth?	how_face	yes	yes	correct	task-tomspunt/F_692.jpg
385.653039932251	0.5759899616241455	tomspunt	open mouth?	how_face	yes	yes	correct	task-tomspunt/F_086.jpg
386.53671002388	0.8180398941040039	tomspunt	open mouth?	how_face	no	no	correct	task-tomspunt/F_544.jpg
398.5245099067688	0.8379900455474854	tomspunt	argument?	why_face	yes	yes	correct	task-tomspunt/F_403.jpg
399.6749398708343	0.8204901218414307	tomspunt	argument?	why_face	no	no	correct	task-tomspunt/F_844.jpg
400.8086998462677	0.7703299522399902	tomspunt	argument?	why_face	yes	yes	correct	task-tomspunt/F_712.jpg
401.8924298286438	0.7528500556945801	tomspunt	argument?	why_face	yes	yes	correct	task-tomspunt/F_758.jpg
402.959499835968	0.9362800121307372	tomspunt	argument?	why_face	no	no	correct	task-tomspunt/F_433.jpg
404.2099599838257	1.002509832382202	tomspunt	argument?	why_face	yes	yes	correct	task-tomspunt/F_716.jpg
405.5271198749542	0.8351800441741943	tomspunt	argument?	why_face	no	no	correct	task-tomspunt/F_139.jpg
406.6775498390198	0.8017101287841797	tomspunt	argument?	why_face	yes	yes	correct	task-tomspunt/F_743.jpg
416.74796986579895	1.2020199298858645	tomspunt	helping?	why_hand	no	yes	incorrect	task-tomspunt/H_024.jpg
418.2652099132538	0.7350099086761475	tomspunt	helping?	why_hand	yes	yes	correct	task-tomspunt/H_349.jpg
419.3155999183655	0.9347200393676758	tomspunt	helping?	why_hand	yes	yes	correct	task-tomspunt/H_077.jpg
420.56605982780457	0.0184500217437744	tomspunt	helping?	why_hand	yes	yes	correct	task-tomspunt/H_474.jpg
420.8995199203491	1.6018600463867188	tomspunt	helping?	why_hand	no	no	correct	task-tomspunt/H_091.jpg
422.8169000148773	1.5789799690246582	tomspunt	helping?	why_hand	no	no	correct	task-tomspunt/H_159.jpg
424.70093989372253	0.7352900505065918	tomspunt	helping?	why_hand	yes	yes	correct	task-tomspunt/H_111.jpg
425.75132989883423	1.034749984741211	tomspunt	helping?	why_hand	no	no	correct	task-tomspunt/H_012.jpg
434.82137989997864	0.7910699844360352	tomspunt	both hands?	how_hand	yes	yes	correct	task-tomspunt/H_111.jpg
435.92178988456726	0.7234899997711182	tomspunt	both hands?	how_hand	yes	yes	correct	task-tomspunt/H_027.jpg
436.9555099010467	0.7353301048278809	tomspunt	both hands?	how_hand	no	no	correct	task-tomspunt/H_091.jpg
438.0058999061585	0.7901101112365723	tomspunt	both hands?	how_hand	yes	yes	correct	task-tomspunt/H_167.jpg
439.106309890747	0.8721799850463867	tomspunt	both hands?	how_hand	yes	yes	correct	task-tomspunt/H_581.jpg
440.29008984565735	0.7718300819396973	tomspunt	both hands?	how_hand	no	no	correct	task-tomspunt/H_159.jpg
441.37381982803345	0.7387499809265137	tomspunt	both hands?	how_hand	yes	yes	correct	task-tomspunt/H_349.jpg
442.42420983314514	0.7210400104522705	tomspunt	both hands?	how_hand	no	no	correct	task-tomspunt/H_627.jpg
452.3279099464417	1.0513200759887695	tomspunt	healthy?	why_hand	yes	yes	correct	task-tomspunt/H_438.jpg
453.6950798034668	0.8350200653076172	tomspunt	healthy?	why_hand	yes	yes	correct	task-tomspunt/H_364.jpg
454.8455100059509	0.7018599510192871	tomspunt	healthy?	why_hand	yes	yes	correct	task-tomspunt/H_362.jpg
455.8625597953797	0.8346102237701416	tomspunt	healthy?	why_hand	no	no	correct	task-tomspunt/H_019.jpg
457.01298999786377	0.6347098350524902	tomspunt	healthy?	why_hand	yes	yes	correct	task-tomspunt/H_167.jpg
457.963339805603	0.7353100776672363	tomspunt	healthy?	why_hand	no	no	correct	task-tomspunt/H_007.jpg
459.0137298107147	1.0521299839019775	tomspunt	healthy?	why_hand	yes	yes	correct	task-tomspunt/H_627.jpg
460.3809099197388	0.8347799777984619	tomspunt	healthy?	why_hand	no	no	correct	task-tomspunt/H_130.jpg
471.3850100040436	0.7013299465179443	tomspunt	pressing button?	how_hand	yes	yes	correct	task-tomspunt/H_126.jpg
472.4020597934723	0.6679701805114746	tomspunt	pressing button?	how_hand	no	no	correct	task-tomspunt/H_130.jpg
473.38575983047485	0.7927801609039307	tomspunt	pressing button?	how_hand	yes	yes	correct	task-tomspunt/H_483.jpg
474.4861698150635	0.7424101829528809	tomspunt	pressing button?	how_hand	no	no	correct	task-tomspunt/H_024.jpg
475.5365598201752	0.8753700256347656	tomspunt	pressing button?	how_hand	yes	yes	correct	task-tomspunt/H_332.jpg
476.720340013504	0.5846397876739502	tomspunt	pressing button?	how_hand	yes	yes	correct	task-tomspunt/H_019.jpg
477.6206698417664	0.9014401435852052	tomspunt	pressing button?	how_hand	no	no	correct	task-tomspunt/H_261.jpg
478.8377900123596	0.5907700061798096	tomspunt	pressing button?	how_hand	yes	yes	correct	task-tomspunt/H_502.jpg
488.92488980293274	0.7871401309967041	tomspunt	looking at camera?	how_face	yes	yes	correct	task-tomspunt/F_618.jpg
490.02530002593994	0.7703099250793457	tomspunt	looking at camera?	how_face	no	no	correct	task-tomspunt/F_754.jpg
491.1090400218963	0.6028997898101807	tomspunt	looking at camera?	how_face	yes	yes	correct	task-tomspunt/F_129.jpg
492.0260398387909	0.8364901542663574	tomspunt	looking at camera?	how_face	yes	yes	correct	task-tomspunt/F_598.jpg
493.1764698028565	0.6358602046966553	tomspunt	looking at camera?	how_face	yes	yes	correct	task-tomspunt/F_128.jpg
494.1268298625946	1.1687901020050049	tomspunt	looking at camera?	how_face	no	no	correct	task-tomspunt/F_582.jpg
495.6107199192047	0.6182899475097656	tomspunt	looking at camera?	how_face	yes	yes	correct	task-tomspunt/F_774.jpg
496.54439997673035	1.1016898155212402	tomspunt	looking at camera?	how_face	no	no	correct	task-tomspunt/F_743.jpg
507.88195991516113	1.0799100399017334	tomspunt	self-doubt?	why_face	yes	yes	correct	task-tomspunt/F_798.jpg
509.2658100128174	0.918409824371338	tomspunt	self-doubt?	why_face	no	no	correct	task-tomspunt/F_086.jpg
510.49959993362427	0.6853199005126953	tomspunt	self-doubt?	why_face	yes	yes	correct	task-tomspunt/F_544.jpg
511.49996995925903	1.2688698768615725	tomspunt	self-doubt?	why_face	yes	yes	correct	task-tomspunt/F_754.jpg
513.083899974823	0.0181100368499755	tomspunt	self-doubt?	why_face	yes	yes	correct	task-tomspunt/F_111.jpg
513.417359828949	1.8160700798034668	tomspunt	self-doubt?	why_face	no	yes	incorrect	task-tomspunt/F_584.jpg
515.4514498710632	1.1447701454162598	tomspunt	self-doubt?	why_face	no	no	correct	task-tomspunt/F_128.jpg
516.9019899368286	0.6853499412536621	tomspunt	self-doubt?	why_face	no	no	correct	task-tomspunt/F_774.jpg
525.4051599502563	1.384929895401001	tomspunt	self-protection?	why_hand	no	yes	incorrect	task-tomspunt/H_581.jpg
527.105789899826	0.9396600723266602	tomspunt	self-protection?	why_hand	yes	yes	correct	task-tomspunt/H_443.jpg
528.3562598228455	1.684990167617798	tomspunt	self-protection?	why_hand	no	no	correct	task-tomspunt/H_332.jpg
530.3570098876953	0.6890900135040283	tomspunt	self-protection?	why_hand	yes	yes	correct	task-tomspunt/H_027.jpg
531.3573799133301	0.9347798824310304	tomspunt	self-protection?	why_hand	no	no	correct	task-tomspunt/H_532.jpg
532.6078498363495	0.6881799697875977	tomspunt	self-protection?	why_hand	yes	yes	correct	task-tomspunt/H_189.jpg
533.6082198619843	0.8519699573516846	tomspunt	self-protection?	why_hand	no	no	correct	task-tomspunt/H_006.jpg
534.775319814682	0.8514699935913086	tomspunt	self-protection?	why_hand	yes	yes	correct	task-tomspunt/H_038.jpg
543.6286199092865	0.8180398941040039	tomspunt	lifting?	how_hand	yes	yes	correct	task-tomspunt/H_443.jpg
544.7623798847198	1.068120002746582	tomspunt	lifting?	how_hand	no	no	correct	task-tomspunt/H_038.jpg
546.1462299823761	0.9519200325012208	tomspunt	lifting?	how_hand	yes	yes	correct	task-tomspunt/H_136.jpg
547.4133698940277	0.818850040435791	tomspunt	lifting?	how_hand	no	no	correct	task-tomspunt/H_012.jpg
548.5471198558807	0.6512999534606934	tomspunt	lifting?	how_hand	yes	yes	correct	task-tomspunt/H_362.jpg
549.5141499042511	0.7013199329376221	tomspunt	lifting?	how_hand	yes	yes	correct	task-tomspunt/H_189.jpg
550.5311999320984	1.201590061187744	tomspunt	lifting?	how_hand	no	yes	incorrect	task-tomspunt/H_170.jpg
552.0484299659729	1.1347999572753906	tomspunt	lifting?	how_hand	no	no	correct	task-tomspunt/H_077.jpg
561.5019500255585	0.801379919052124	tomspunt	looking to side?	how_face	yes	yes	correct	task-tomspunt/F_716.jpg
562.6190400123596	0.8101298809051514	tomspunt	looking to side?	how_face	no	no	correct	task-tomspunt/F_798.jpg
563.7361199855804	0.676649808883667	tomspunt	looking to side?	how_face	yes	yes	correct	task-tomspunt/F_760.jpg
564.719820022583	0.884929895401001	tomspunt	looking to side?	how_face	yes	yes	correct	task-tomspunt/F_110.jpg
565.9202699661255	1.6689300537109375	tomspunt	looking to side?	how_face	yes	no	incorrect	task-tomspunt/F_779.jpg
567.9043397903442	0.0248301029205322	tomspunt	looking to side?	how_face	yes	yes	correct	task-tomspunt/F_590.jpg
568.2377998828888	1.7247200012207031	tomspunt	looking to side?	how_face	no	no	correct	task-tomspunt/F_111.jpg
570.271889925003	0.6857399940490723	tomspunt	looking to side?	how_face	yes	yes	correct	task-tomspunt/F_433.jpg
583.9769999980927	0.7014398574829102	tomspunt	proud?	why_face	yes	yes	correct	task-tomspunt/F_083.jpg
584.9940500259399	0.7684798240661621	tomspunt	proud?	why_face	yes	yes	correct	task-tomspunt/F_582.jpg
586.0777900218964	1.0350098609924316	tomspunt	proud?	why_face	yes	yes	correct	task-tomspunt/F_618.jpg
587.4282898902893	1.2021899223327637	tomspunt	proud?	why_face	no	no	correct	task-tomspunt/F_776.jpg
588.9455199241638	1.2848799228668213	tomspunt	proud?	why_face	yes	yes	correct	task-tomspunt/F_598.jpg
590.54611992836	1.068120002746582	tomspunt	proud?	why_face	no	no	correct	task-tomspunt/F_760.jpg
591.9299700260162	0.9513897895812988	tomspunt	proud?	why_face	no	no	correct	task-tomspunt/F_412.jpg
593.1971099376678	0.865149974822998	tomspunt	proud?	why_face	yes	yes	correct	task-tomspunt/F_695.jpg
0.0669433975219724	2.05076503753662	tomspunt	reaching?	block_question_presentation	n/a		n/a	
0.0669433975219724	0.3	tomspunt	reaching?	block_question_presentation	n/a		n/a	
17.5401260757446	2.10078406333923	tomspunt	healthy?	block_question_presentation	n/a		n/a	
17.5401260757446	0.3	tomspunt	healthy?	block_question_presentation	n/a		n/a	
36.6472508811951	2.10078430175781	tomspunt	admiring?	block_question_presentation	n/a		n/a	
36.6472508811951	0.3	tomspunt	admiring?	block_question_presentation	n/a		n/a	
55.6209943199158	2.10078382492065	tomspunt	smiling?	block_question_presentation	n/a		n/a	
55.6209943199158	0.3	tomspunt	smiling?	block_question_presentation	n/a		n/a	
73.1441948318481	2.10078477859497	tomspunt	lifting?	block_question_presentation	n/a		n/a	
73.1441948318481	0.3	tomspunt	lifting?	block_question_presentation	n/a		n/a	
95.6192436122894	2.10078406333923	tomspunt	helping?	block_question_presentation	n/a		n/a	
95.6192436122894	0.3	tomspunt	helping?	block_question_presentation	n/a		n/a	
113.509247770309	2.08411145210266	tomspunt	proud?	block_question_presentation	n/a		n/a	
113.509247770309	0.3	tomspunt	proud?	block_question_presentation	n/a		n/a	
131.032449474335	2.10078382492065	tomspunt	looking to side?	block_question_presentation	n/a		n/a	
131.032449474335	0.3	tomspunt	looking to side?	block_question_presentation	n/a		n/a	
150.139575233459	2.10078358650208	tomspunt	argument?	block_question_presentation	n/a		n/a	
150.139575233459	0.3	tomspunt	argument?	block_question_presentation	n/a		n/a	
167.979562034607	2.1007833480835	tomspunt	open mouth?	block_question_presentation	n/a		n/a	
167.979562034607	0.3	tomspunt	open mouth?	block_question_presentation	n/a		n/a	
185.86956738472	2.10078310966492	tomspunt	pressing button?	block_question_presentation	n/a		n/a	
185.86956738472	0.3	tomspunt	pressing button?	block_question_presentation	n/a		n/a	
203.65953420639	2.10078382492065	tomspunt	competing?	block_question_presentation	n/a		n/a	
203.65953420639	0.3	tomspunt	competing?	block_question_presentation	n/a		n/a	
221.732941141129	2.10078310966492	tomspunt	self-doubt?	block_question_presentation	n/a		n/a	
221.732941141129	0.3	tomspunt	self-doubt?	block_question_presentation	n/a		n/a	
240.790046920776	2.10078406333923	tomspunt	looking at camera?	block_question_presentation	n/a		n/a	
240.790046920776	0.3	tomspunt	looking at camera?	block_question_presentation	n/a		n/a	
259.580388298035	2.0841109752655	tomspunt	both hands?	block_question_presentation	n/a		n/a	
259.580388298035	0.3	tomspunt	both hands?	block_question_presentation	n/a		n/a	
278.370729675293	2.08410906791687	tomspunt	self-protection?	block_question_presentation	n/a		n/a	
278.370729675293	0.3	tomspunt	self-protection?	block_question_presentation	n/a		n/a	
299.845404615402	2.10078287124634	tomspunt	smiling?	block_question_presentation	n/a		n/a	
299.845404615402	0.3	tomspunt	smiling?	block_question_presentation	n/a		n/a	
317.635372152329	2.10078310966492	tomspunt	admiring?	block_question_presentation	n/a		n/a	
317.635372152329	0.3	tomspunt	admiring?	block_question_presentation	n/a		n/a	
335.525376310349	2.10078382492065	tomspunt	competing?	block_question_presentation	n/a		n/a	
335.525376310349	0.3	tomspunt	competing?	block_question_presentation	n/a		n/a	
357.000052442551	2.1007833480835	tomspunt	reaching?	block_question_presentation	n/a		n/a	
357.000052442551	0.3	tomspunt	reaching?	block_question_presentation	n/a		n/a	
374.840037813187	2.10078358650208	tomspunt	open mouth?	block_question_presentation	n/a		n/a	
374.840037813187	0.3	tomspunt	open mouth?	block_question_presentation	n/a		n/a	
393.513668289185	2.10078263282776	tomspunt	argument?	block_question_presentation	n/a		n/a	
393.513668289185	0.3	tomspunt	argument?	block_question_presentation	n/a		n/a	
411.737131586075	2.10078358650208	tomspunt	helping?	block_question_presentation	n/a		n/a	
411.737131586075	0.3	tomspunt	helping?	block_question_presentation	n/a		n/a	
429.810537567139	2.10078358650208	tomspunt	both hands?	block_question_presentation	n/a		n/a	
429.810537567139	0.3	tomspunt	both hands?	block_question_presentation	n/a		n/a	
447.333739271164	2.08411002159119	tomspunt	healthy?	block_question_presentation	n/a		n/a	
447.333739271164	0.3	tomspunt	healthy?	block_question_presentation	n/a		n/a	
466.37417339325	2.1007833480835	tomspunt	pressing button?	block_question_presentation	n/a		n/a	
466.37417339325	0.3	tomspunt	pressing button?	block_question_presentation	n/a		n/a	
483.914047470093	2.10078382492065	tomspunt	looking at camera?	block_question_presentation	n/a		n/a	
483.914047470093	0.3	tomspunt	looking at camera?	block_question_presentation	n/a		n/a	
502.871118059158	2.10078263282776	tomspunt	self-doubt?	block_question_presentation	n/a		n/a	
502.871118059158	0.3	tomspunt	self-doubt?	block_question_presentation	n/a		n/a	
520.394318571091	2.10078430175781	tomspunt	self-protection?	block_question_presentation	n/a		n/a	
520.394318571091	0.3	tomspunt	self-protection?	block_question_presentation	n/a		n/a	
538.617781152725	2.10078310966492	tomspunt	lifting?	block_question_presentation	n/a		n/a	
538.617781152725	0.3	tomspunt	lifting?	block_question_presentation	n/a		n/a	
556.491113176346	2.10078310966492	tomspunt	looking to side?	block_question_presentation	n/a		n/a	
556.491113176346	0.3	tomspunt	looking to side?	block_question_presentation	n/a		n/a	
578.966160764694	2.10078310966492	tomspunt	proud?	block_question_presentation	n/a		n/a	
578.966160764694	0.3	tomspunt	proud?	block_question_presentation	n/a		n/a	
