onset	duration	trial_type	response_x	response_y	situation	context	modality	stim_file
8.84	32.166	narrative_presentation	n/a	n/a	Slaying of kin unrecognized	town	Text	task-narratives/Narrative3Situation1.txt
41.006	2.335	rating_feeling	555	418	Slaying of kin unrecognized	town	Text	n/a
41.956	1.385	feeling_mouse_trajectory	555	418	Slaying of kin unrecognized	town	Text	n/a
45.065	1.309	rating_expectation	669	450	Slaying of kin unrecognized	town	Text	n/a
45.398	0.975	expectation_mouse_trajectory	669	450	Slaying of kin unrecognized	town	Text	n/a
53.156	17.095	narrative_presentation	n/a	n/a	Erroneous judgement	town	Text	task-narratives/Narrative3Situation2.txt
70.251	3.702	rating_feeling	555	418	Erroneous judgement	town	Text	n/a
71.267	2.685	feeling_mouse_trajectory	555	418	Erroneous judgement	town	Text	n/a
74.267	1.868	rating_expectation	669	450	Erroneous judgement	town	Text	n/a
74.801	1.335	expectation_mouse_trajectory	669	450	Erroneous judgement	town	Text	n/a
80.333	10.392	narrative_presentation	n/a	n/a	Revolt	town	Text	task-narratives/Narrative3Situation3.txt
90.725	2.542	rating_feeling	555	418	Revolt	town	Text	n/a
91.542	1.725	feeling_mouse_trajectory	555	418	Revolt	town	Text	n/a
94.741	2.423	rating_expectation	669	450	Revolt	town	Text	n/a
94.808	2.357	expectation_mouse_trajectory	669	450	Revolt	town	Text	n/a
99.824	28.148	narrative_presentation	n/a	n/a	The enigma	city	Text	task-narratives/Narrative3Situation4.txt
127.972	2.368	rating_feeling	555	418	The enigma	city	Text	n/a
128.788	1.552	feeling_mouse_trajectory	555	418	The enigma	city	Text	n/a
131.988	1.884	rating_expectation	669	450	The enigma	city	Text	n/a
132.405	1.468	expectation_mouse_trajectory	669	450	The enigma	city	Text	n/a
139.088	15.081	narrative_presentation	n/a	n/a	Deliverance	city	Text	task-narratives/Narrative3Situation5.txt
154.169	2.402	rating_feeling	555	418	Deliverance	city	Text	n/a
155.352	1.218	feeling_mouse_trajectory	555	418	Deliverance	city	Text	n/a
158.198	1.584	rating_expectation	669	450	Deliverance	city	Text	n/a
158.581	1.201	expectation_mouse_trajectory	669	450	Deliverance	city	Text	n/a
165.265	15.076	narrative_presentation	n/a	n/a	Remorse	city	Text	task-narratives/Narrative3Situation6.txt
180.341	3.242	rating_feeling	555	418	Remorse	city	Text	n/a
182.341	1.242	feeling_mouse_trajectory	555	418	Remorse	city	Text	n/a
184.364	2.007	rating_expectation	669	450	Remorse	city	Text	n/a
184.964	1.407	expectation_mouse_trajectory	669	450	Remorse	city	Text	n/a
192.458	36.85	narrative_presentation	n/a	n/a	Loss of loved one	forest	Text	task-narratives/Narrative3Situation7.txt
229.308	3.573	rating_feeling	555	418	Loss of loved one	forest	Text	n/a
230.191	2.69	feeling_mouse_trajectory	555	418	Loss of loved one	forest	Text	n/a
233.33	2.338	rating_expectation	669	450	Loss of loved one	forest	Text	n/a
233.78	1.888	expectation_mouse_trajectory	669	450	Loss of loved one	forest	Text	n/a
239.426	9.706	narrative_presentation	n/a	n/a	All sacrificed for passion	forest	Text	task-narratives/Narrative3Situation8.txt
249.132	2.352	rating_feeling	555	418	All sacrificed for passion	forest	Text	n/a
250.049	1.435	feeling_mouse_trajectory	555	418	All sacrificed for passion	forest	Text	n/a
253.15	2.135	rating_expectation	669	450	All sacrificed for passion	forest	Text	n/a
253.6	1.685	expectation_mouse_trajectory	669	450	All sacrificed for passion	forest	Text	n/a
258.216	27.483	narrative_presentation	n/a	n/a	Discovery of dishonour of loved one	forest	Text	task-narratives/Narrative3Situation9.txt
285.699	2.569	rating_feeling	555	418	Discovery of dishonour of loved one	forest	Text	n/a
286.549	1.719	feeling_mouse_trajectory	555	418	Discovery of dishonour of loved one	forest	Text	n/a
289.73	1.501	rating_expectation	669	450	Discovery of dishonour of loved one	forest	Text	n/a
289.764	1.468	expectation_mouse_trajectory	669	450	Discovery of dishonour of loved one	forest	Text	n/a
295.813	22.446	narrative_presentation	n/a	n/a	Conflict with a god	swamp	Text	task-narratives/Narrative4Situation1.txt
318.259	1.69	rating_feeling	555	418	Conflict with a god	swamp	Text	n/a
319.042	0.907	feeling_mouse_trajectory	555	418	Conflict with a god	swamp	Text	n/a
322.281	1.405	rating_expectation	669	450	Conflict with a god	swamp	Text	n/a
322.647	1.039	expectation_mouse_trajectory	669	450	Conflict with a god	swamp	Text	n/a
331.377	24.796	narrative_presentation	n/a	n/a	Adultery	swamp	Text	task-narratives/Narrative4Situation2.txt
356.173	2.159	rating_feeling	555	418	Adultery	swamp	Text	n/a
356.856	1.476	feeling_mouse_trajectory	555	418	Adultery	swamp	Text	n/a
360.19	1.808	rating_expectation	669	450	Adultery	swamp	Text	n/a
360.557	1.441	expectation_mouse_trajectory	669	450	Adultery	swamp	Text	n/a
366.273	21.111	narrative_presentation	n/a	n/a	Slaying of kin unrecognized	swamp	Text	task-narratives/Narrative4Situation3.txt
387.384	2.618	rating_feeling	555	418	Slaying of kin unrecognized	swamp	Text	n/a
388.234	1.768	feeling_mouse_trajectory	555	418	Slaying of kin unrecognized	swamp	Text	n/a
391.402	1.634	rating_expectation	669	450	Slaying of kin unrecognized	swamp	Text	n/a
391.818	1.218	expectation_mouse_trajectory	669	450	Slaying of kin unrecognized	swamp	Text	n/a
396.468	21.114	narrative_presentation	n/a	n/a	Fatal imprudence	hospital	Text	task-narratives/Narrative4Situation4.txt
417.582	3.02	rating_feeling	555	418	Fatal imprudence	hospital	Text	n/a
418.582	2.02	feeling_mouse_trajectory	555	418	Fatal imprudence	hospital	Text	n/a
421.614	3.068	rating_expectation	669	450	Fatal imprudence	hospital	Text	n/a
422.781	1.902	expectation_mouse_trajectory	669	450	Fatal imprudence	hospital	Text	n/a
426.679	25.796	narrative_presentation	n/a	n/a	Erroneous judgement	hospital	Text	task-narratives/Narrative4Situation5.txt
452.475	3.983	rating_feeling	555	418	Erroneous judgement	hospital	Text	n/a
453.392	3.067	feeling_mouse_trajectory	555	418	Erroneous judgement	hospital	Text	n/a
456.497	0.539	rating_expectation	669	450	Erroneous judgement	hospital	Text	n/a
457.064	-0.028	expectation_mouse_trajectory	669	450	Erroneous judgement	hospital	Text	n/a
461.592	23.445	narrative_presentation	n/a	n/a	Necessity of sacrificing loved ones	hospital	Text	task-narratives/Narrative4Situation6.txt
485.037	1.751	rating_feeling	555	418	Necessity of sacrificing loved ones	hospital	Text	n/a
485.504	1.284	feeling_mouse_trajectory	555	418	Necessity of sacrificing loved ones	hospital	Text	n/a
489.055	1.56	rating_expectation	669	450	Necessity of sacrificing loved ones	hospital	Text	n/a
489.438	1.177	expectation_mouse_trajectory	669	450	Necessity of sacrificing loved ones	hospital	Text	n/a
494.121	19.095	narrative_presentation	n/a	n/a	Recovery of a lost one	prison	Text	task-narratives/Narrative4Situation7.txt
513.215	3.969	rating_feeling	555	418	Recovery of a lost one	prison	Text	n/a
513.949	3.235	feeling_mouse_trajectory	555	418	Recovery of a lost one	prison	Text	n/a
517.232	0.017	rating_expectation	669	450	Recovery of a lost one	prison	Text	n/a
517.315	-0.066	expectation_mouse_trajectory	669	450	Recovery of a lost one	prison	Text	n/a
522.298	38.535	narrative_presentation	n/a	n/a	Crimes of love	prison	Text	task-narratives/Narrative4Situation8.txt
560.833	2.034	rating_feeling	555	418	Crimes of love	prison	Text	n/a
561.599	1.268	feeling_mouse_trajectory	555	418	Crimes of love	prison	Text	n/a
564.849	1.852	rating_expectation	669	450	Crimes of love	prison	Text	n/a
565.333	1.368	expectation_mouse_trajectory	669	450	Crimes of love	prison	Text	n/a
573.917	12.391	narrative_presentation	n/a	n/a	Abduction	prison	Text	task-narratives/Narrative4Situation9.txt
586.308	2.274	rating_feeling	555	418	Abduction	prison	Text	n/a
587.242	1.34	feeling_mouse_trajectory	555	418	Abduction	prison	Text	n/a
590.331	2.139	rating_expectation	669	450	Abduction	prison	Text	n/a
590.664	1.805	expectation_mouse_trajectory	669	450	Abduction	prison	Text	n/a
