onset	duration	run_type	trial_type	trial_index	cue	stimulusintensity	rating_value	rating_glmslabel	rating_value_fillna	rating_glmslabel_fillna	rating_mouseonset	rating_mousedur	stim_file	pain_onset_ttl1	pain_onset_ttl2	pain_onset_ttl3	pain_onset_ttl4	pain_stimulus_delivery_success	cognitive_correct_response	cognitive_participant_response	cognitive_response_accuracy
14.22	0.98	pain	cue	1	low_cue	n/a	n/a	n/a	n/a	n/a	n/a	n/a	task-social/cue/runtype-pain/scl/l034.png	n/a	n/a	n/a	n/a	n/a	n/a	n/a	n/a
16.07	3.17	pain	expectrating	1	low_cue	n/a	80.5	Very Strong	80.5	Very Strong	0.83	2.33	task-social/cue/runtype-pain/scl/l034.png	n/a	n/a	n/a	n/a	n/a	n/a	n/a	n/a
20.7	11.91	pain	stimulus	1	low_cue	low_stim	n/a	n/a	n/a	n/a	n/a	n/a	n/a	20.7	24.2	29.2	32.6	success	n/a	n/a	n/a
35.31	3.6	pain	outcomerating	1	low_cue	low_stim	75.5	Very Strong	75.5	Very Strong	0.83	2.33	task-social/outcomerating/task-pain_scale.png	n/a	n/a	n/a	n/a	success	n/a	n/a	n/a
40.61	1.0	pain	cue	2	low_cue	n/a	n/a	n/a	n/a	n/a	n/a	n/a	task-social/cue/runtype-pain/scl/l003.png	n/a	n/a	n/a	n/a	n/a	n/a	n/a	n/a
43.61	2.67	pain	expectrating	2	low_cue	n/a	92.53	Very Strong	92.53	Very Strong	0.73	1.93	task-social/cue/runtype-pain/scl/l003.png	n/a	n/a	n/a	n/a	n/a	n/a	n/a	n/a
48.24	12.369999999999997	pain	stimulus	2	low_cue	med_stim	n/a	n/a	n/a	n/a	n/a	n/a	n/a	48.24	52.0	57.0	60.61	success	n/a	n/a	n/a
63.72	3.38	pain	outcomerating	2	low_cue	med_stim	79.59	Very Strong	79.59	Very Strong	0.73	1.93	task-social/outcomerating/task-pain_scale.png	n/a	n/a	n/a	n/a	success	n/a	n/a	n/a
72.2	1.0	pain	cue	3	high_cue	n/a	n/a	n/a	n/a	n/a	n/a	n/a	task-social/cue/runtype-pain/sch/h040.png	n/a	n/a	n/a	n/a	n/a	n/a	n/a	n/a
75.22	1.94	pain	expectrating	3	high_cue	n/a	91.43	Very Strong	91.43	Very Strong	0.47	1.47	task-social/cue/runtype-pain/sch/h040.png	n/a	n/a	n/a	n/a	n/a	n/a	n/a	n/a
84.15	12.36999999999999	pain	stimulus	3	high_cue	med_stim	n/a	n/a	n/a	n/a	n/a	n/a	n/a	84.15	87.91	92.91	96.52	success	n/a	n/a	n/a
95.91	3.92	pain	outcomerating	3	high_cue	med_stim	86.77	Very Strong	86.77	Very Strong	0.47	1.47	task-social/outcomerating/task-pain_scale.png	n/a	n/a	n/a	n/a	success	n/a	n/a	n/a
109.0	1.0	pain	cue	4	low_cue	n/a	n/a	n/a	n/a	n/a	n/a	n/a	task-social/cue/runtype-pain/scl/l049.png	n/a	n/a	n/a	n/a	n/a	n/a	n/a	n/a
110.92	3.32	pain	expectrating	4	low_cue	n/a	91.4	Very Strong	91.4	Very Strong	1.3	2.02	task-social/cue/runtype-pain/scl/l049.png	n/a	n/a	n/a	n/a	n/a	n/a	n/a	n/a
118.33	12.820000000000007	pain	stimulus	4	low_cue	high_stim	n/a	n/a	n/a	n/a	n/a	n/a	n/a	118.33	122.34	127.34	131.15	success	n/a	n/a	n/a
130.51	2.43	pain	outcomerating	4	low_cue	high_stim	97.84	Very Strong	97.84	Very Strong	1.3	2.02	task-social/outcomerating/task-pain_scale.png	n/a	n/a	n/a	n/a	success	n/a	n/a	n/a
145.12	1.0	pain	cue	5	high_cue	n/a	n/a	n/a	n/a	n/a	n/a	n/a	task-social/cue/runtype-pain/sch/h047.png	n/a	n/a	n/a	n/a	n/a	n/a	n/a	n/a
146.82	3.47	pain	expectrating	5	high_cue	n/a	112.88	Strongest sensation of any kind	112.88	Strongest sensation of any kind	0.83	2.63	task-social/cue/runtype-pain/sch/h047.png	n/a	n/a	n/a	n/a	n/a	n/a	n/a	n/a
153.35	12.360000000000014	pain	stimulus	5	high_cue	med_stim	n/a	n/a	n/a	n/a	n/a	n/a	n/a	153.35	157.11	162.11	165.72	success	n/a	n/a	n/a
166.51	3.29	pain	outcomerating	5	high_cue	med_stim	80.54	Very Strong	80.54	Very Strong	0.83	2.63	task-social/outcomerating/task-pain_scale.png	n/a	n/a	n/a	n/a	success	n/a	n/a	n/a
171.41	1.0	pain	cue	6	low_cue	n/a	n/a	n/a	n/a	n/a	n/a	n/a	task-social/cue/runtype-pain/scl/l004.png	n/a	n/a	n/a	n/a	n/a	n/a	n/a	n/a
174.51	2.42	pain	expectrating	6	low_cue	n/a	86.9	Very Strong	86.9	Very Strong	0.83	1.58	task-social/cue/runtype-pain/scl/l004.png	n/a	n/a	n/a	n/a	n/a	n/a	n/a	n/a
180.73	12.820000000000022	pain	stimulus	6	low_cue	high_stim	n/a	n/a	n/a	n/a	n/a	n/a	n/a	180.73	184.74	189.74	193.55	success	n/a	n/a	n/a
194.52	2.31	pain	outcomerating	6	low_cue	high_stim	101.36	Strongest sensation of any kind	101.36	Strongest sensation of any kind	0.83	1.58	task-social/outcomerating/task-pain_scale.png	n/a	n/a	n/a	n/a	success	n/a	n/a	n/a
199.8	1.0	pain	cue	7	low_cue	n/a	n/a	n/a	n/a	n/a	n/a	n/a	task-social/cue/runtype-pain/scl/l038.png	n/a	n/a	n/a	n/a	n/a	n/a	n/a	n/a
202.8	2.84	pain	expectrating	7	low_cue	n/a	99.77	Strongest sensation of any kind	99.77	Strongest sensation of any kind	0.7	2.14	task-social/cue/runtype-pain/scl/l038.png	n/a	n/a	n/a	n/a	n/a	n/a	n/a	n/a
216.23	11.900000000000006	pain	stimulus	7	low_cue	low_stim	n/a	n/a	n/a	n/a	n/a	n/a	n/a	216.23	219.73	224.73	228.13	success	n/a	n/a	n/a
231.11	2.6	pain	outcomerating	7	low_cue	low_stim	79.86	Very Strong	79.86	Very Strong	0.7	2.14	task-social/outcomerating/task-pain_scale.png	n/a	n/a	n/a	n/a	success	n/a	n/a	n/a
236.82	0.98	pain	cue	8	high_cue	n/a	n/a	n/a	n/a	n/a	n/a	n/a	task-social/cue/runtype-pain/sch/h015.png	n/a	n/a	n/a	n/a	n/a	n/a	n/a	n/a
238.52	2.72	pain	expectrating	8	high_cue	n/a	93.92	Very Strong	93.92	Very Strong	1.05	1.67	task-social/cue/runtype-pain/sch/h015.png	n/a	n/a	n/a	n/a	n/a	n/a	n/a	n/a
243.32	12.829999999999984	pain	stimulus	8	high_cue	high_stim	n/a	n/a	n/a	n/a	n/a	n/a	n/a	243.32	247.33	252.33	256.14	success	n/a	n/a	n/a
255.51	3.42	pain	outcomerating	8	high_cue	high_stim	102.98	Strongest sensation of any kind	102.98	Strongest sensation of any kind	1.05	1.67	task-social/outcomerating/task-pain_scale.png	n/a	n/a	n/a	n/a	success	n/a	n/a	n/a
264.21	1.0	pain	cue	9	high_cue	n/a	n/a	n/a	n/a	n/a	n/a	n/a	task-social/cue/runtype-pain/sch/h039.png	n/a	n/a	n/a	n/a	n/a	n/a	n/a	n/a
267.21	2.62	pain	expectrating	9	high_cue	n/a	103.42	Strongest sensation of any kind	103.42	Strongest sensation of any kind	0.95	1.67	task-social/cue/runtype-pain/sch/h039.png	n/a	n/a	n/a	n/a	n/a	n/a	n/a	n/a
277.54	12.819999999999993	pain	stimulus	9	high_cue	high_stim	n/a	n/a	n/a	n/a	n/a	n/a	n/a	277.54	281.55	286.55	290.36	success	n/a	n/a	n/a
290.52	3.59	pain	outcomerating	9	high_cue	high_stim	88.59	Very Strong	88.59	Very Strong	0.95	1.67	task-social/outcomerating/task-pain_scale.png	n/a	n/a	n/a	n/a	success	n/a	n/a	n/a
298.41	1.0	pain	cue	10	high_cue	n/a	n/a	n/a	n/a	n/a	n/a	n/a	task-social/cue/runtype-pain/sch/h028.png	n/a	n/a	n/a	n/a	n/a	n/a	n/a	n/a
301.21	1.89	pain	expectrating	10	high_cue	n/a	120.66	Strongest sensation of any kind	120.66	Strongest sensation of any kind	0.52	1.37	task-social/cue/runtype-pain/sch/h028.png	n/a	n/a	n/a	n/a	n/a	n/a	n/a	n/a
319.96	11.900000000000034	pain	stimulus	10	high_cue	low_stim	n/a	n/a	n/a	n/a	n/a	n/a	n/a	319.96	323.46	328.46	331.86	success	n/a	n/a	n/a
331.12	3.59	pain	outcomerating	10	high_cue	low_stim	54.14	Strong	54.14	Strong	0.52	1.37	task-social/outcomerating/task-pain_scale.png	n/a	n/a	n/a	n/a	success	n/a	n/a	n/a
336.0	1.0	pain	cue	11	high_cue	n/a	n/a	n/a	n/a	n/a	n/a	n/a	task-social/cue/runtype-pain/sch/h009.png	n/a	n/a	n/a	n/a	n/a	n/a	n/a	n/a
338.9	2.84	pain	expectrating	11	high_cue	n/a	98.75	Strongest sensation of any kind	98.75	Strongest sensation of any kind	0.83	2.01	task-social/cue/runtype-pain/sch/h009.png	n/a	n/a	n/a	n/a	n/a	n/a	n/a	n/a
343.75	11.899999999999977	pain	stimulus	11	high_cue	low_stim	n/a	n/a	n/a	n/a	n/a	n/a	n/a	343.75	347.25	352.25	355.65	success	n/a	n/a	n/a
359.41	1.95	pain	outcomerating	11	high_cue	low_stim	64.87	Very Strong	64.87	Very Strong	0.83	2.01	task-social/outcomerating/task-pain_scale.png	n/a	n/a	n/a	n/a	success	n/a	n/a	n/a
367.01	0.98	pain	cue	12	low_cue	n/a	n/a	n/a	n/a	n/a	n/a	n/a	task-social/cue/runtype-pain/scl/l007.png	n/a	n/a	n/a	n/a	n/a	n/a	n/a	n/a
368.92	1.97	pain	expectrating	12	low_cue	n/a	98.39	Strongest sensation of any kind	98.39	Strongest sensation of any kind	0.77	1.2	task-social/cue/runtype-pain/scl/l007.png	n/a	n/a	n/a	n/a	n/a	n/a	n/a	n/a
380.52	12.370000000000005	pain	stimulus	12	low_cue	med_stim	n/a	n/a	n/a	n/a	n/a	n/a	n/a	380.52	384.28	389.28	392.89	success	n/a	n/a	n/a
394.51	2.72	pain	outcomerating	12	low_cue	med_stim	87.47	Very Strong	87.47	Very Strong	0.77	1.2	task-social/outcomerating/task-pain_scale.png	n/a	n/a	n/a	n/a	success	n/a	n/a	n/a
