onset	duration	run_type	trial_type	trial_index	cue	stimulusintensity	rating_value	rating_glmslabel	rating_value_fillna	rating_glmslabel_fillna	rating_mouseonset	rating_mousedur	stim_file	pain_onset_ttl1	pain_onset_ttl2	pain_onset_ttl3	pain_onset_ttl4	pain_stimulus_delivery_success	cognitive_correct_response	cognitive_participant_response	cognitive_response_accuracy
3.39	0.98	cognitive	cue	1	low_cue	n/a	n/a	n/a	n/a	n/a	n/a	n/a	n/a	n/a	n/a	n/a	n/a	n/a	n/a	n/a	n/a
6.11	n/a	cognitive	expectrating	1	low_cue	n/a	n/a	n/a	34.59	Strong	0.63	3.63	task-social/cue/runtype-cognitive/scl/l019.png	n/a	n/a	n/a	n/a	n/a	n/a	n/a	n/a
18.5	5.0	cognitive	stimulus	1	low_cue	high_stim	n/a	n/a	n/a	n/a	n/a	n/a	task-social/stim/runtype-cognitive/47_150.jpg	n/a	n/a	n/a	n/a	n/a	same	same	True
32.58	3.27	cognitive	outcomerating	1	low_cue	high_stim	27.8	Moderate	27.8	Moderate	0.82	2.46	task-social/outcomerating/task-cognitive_scale.png	n/a	n/a	n/a	n/a	n/a	n/a	n/a	n/a
41.59	0.98	cognitive	cue	2	high_cue	n/a	n/a	n/a	n/a	n/a	n/a	n/a	n/a	n/a	n/a	n/a	n/a	n/a	n/a	n/a	n/a
44.69	2.47	cognitive	expectrating	2	high_cue	n/a	65.5	Very Strong	65.5	Very Strong	0.72	1.75	task-social/cue/runtype-cognitive/sch/h046.png	n/a	n/a	n/a	n/a	n/a	n/a	n/a	n/a
55.19	5.0	cognitive	stimulus	2	high_cue	med_stim	n/a	n/a	n/a	n/a	n/a	n/a	task-social/stim/runtype-cognitive/44_100.jpg	n/a	n/a	n/a	n/a	n/a	same	same	True
69.28	3.47	cognitive	outcomerating	2	high_cue	med_stim	30.88	Strong	30.88	Strong	1.07	2.4	task-social/outcomerating/task-cognitive_scale.png	n/a	n/a	n/a	n/a	n/a	n/a	n/a	n/a
78.38	0.98	cognitive	cue	3	low_cue	n/a	n/a	n/a	n/a	n/a	n/a	n/a	n/a	n/a	n/a	n/a	n/a	n/a	n/a	n/a	n/a
81.49	2.97	cognitive	expectrating	3	low_cue	n/a	18.51	Moderate	18.51	Moderate	0.73	2.24	task-social/cue/runtype-cognitive/scl/l022.png	n/a	n/a	n/a	n/a	n/a	n/a	n/a	n/a
87.99	5.0	cognitive	stimulus	3	low_cue	low_stim	n/a	n/a	n/a	n/a	n/a	n/a	task-social/stim/runtype-cognitive/10_50.jpg	n/a	n/a	n/a	n/a	n/a	same	diff	False
97.79	3.47	cognitive	outcomerating	3	low_cue	low_stim	10.86	Moderate	10.86	Moderate	1.0	2.47	task-social/outcomerating/task-cognitive_scale.png	n/a	n/a	n/a	n/a	n/a	n/a	n/a	n/a
105.88	0.99	cognitive	cue	4	low_cue	n/a	n/a	n/a	n/a	n/a	n/a	n/a	n/a	n/a	n/a	n/a	n/a	n/a	n/a	n/a	n/a
107.4	3.27	cognitive	expectrating	4	low_cue	n/a	4.15	Weak	4.15	Weak	1.18	2.08	task-social/cue/runtype-cognitive/scl/l030.png	n/a	n/a	n/a	n/a	n/a	n/a	n/a	n/a
114.18	5.0	cognitive	stimulus	4	low_cue	low_stim	n/a	n/a	n/a	n/a	n/a	n/a	task-social/stim/runtype-cognitive/5_50_R.jpg	n/a	n/a	n/a	n/a	n/a	diff	same	False
127.99	n/a	cognitive	outcomerating	4	low_cue	low_stim	n/a	n/a	40.45	Strong	1.45	1.88	task-social/outcomerating/task-cognitive_scale.png	n/a	n/a	n/a	n/a	n/a	n/a	n/a	n/a
137.09	0.98	cognitive	cue	5	high_cue	n/a	n/a	n/a	n/a	n/a	n/a	n/a	n/a	n/a	n/a	n/a	n/a	n/a	n/a	n/a	n/a
140.19	2.78	cognitive	expectrating	5	high_cue	n/a	72.95	Very Strong	72.95	Very Strong	1.28	1.5	task-social/cue/runtype-cognitive/sch/h055.png	n/a	n/a	n/a	n/a	n/a	n/a	n/a	n/a
149.89	5.0	cognitive	stimulus	5	high_cue	low_stim	n/a	n/a	n/a	n/a	n/a	n/a	task-social/stim/runtype-cognitive/11_50_R.jpg	n/a	n/a	n/a	n/a	n/a	diff	diff	True
159.88	3.73	cognitive	outcomerating	5	high_cue	low_stim	13.76	Moderate	13.76	Moderate	0.9	2.83	task-social/outcomerating/task-cognitive_scale.png	n/a	n/a	n/a	n/a	n/a	n/a	n/a	n/a
168.99	0.98	cognitive	cue	6	high_cue	n/a	n/a	n/a	n/a	n/a	n/a	n/a	n/a	n/a	n/a	n/a	n/a	n/a	n/a	n/a	n/a
170.99	2.51	cognitive	expectrating	6	high_cue	n/a	78.42	Very Strong	78.42	Very Strong	0.63	1.87	task-social/cue/runtype-cognitive/sch/h033.png	n/a	n/a	n/a	n/a	n/a	n/a	n/a	n/a
177.49	5.0	cognitive	stimulus	6	high_cue	med_stim	n/a	n/a	n/a	n/a	n/a	n/a	task-social/stim/runtype-cognitive/10_100_R.jpg	n/a	n/a	n/a	n/a	n/a	diff	diff	True
187.29	n/a	cognitive	outcomerating	6	high_cue	med_stim	n/a	n/a	16.77	Moderate	1.62	1.75	task-social/outcomerating/task-cognitive_scale.png	n/a	n/a	n/a	n/a	n/a	n/a	n/a	n/a
194.38	0.99	cognitive	cue	7	high_cue	n/a	n/a	n/a	n/a	n/a	n/a	n/a	n/a	n/a	n/a	n/a	n/a	n/a	n/a	n/a	n/a
196.4	3.52	cognitive	expectrating	7	high_cue	n/a	102.75	Strongest sensation of any kind	102.75	Strongest sensation of any kind	0.8	2.72	task-social/cue/runtype-cognitive/sch/h018.png	n/a	n/a	n/a	n/a	n/a	n/a	n/a	n/a
209.38	5.0	cognitive	stimulus	7	high_cue	low_stim	n/a	n/a	n/a	n/a	n/a	n/a	task-social/stim/runtype-cognitive/43_50_R.jpg	n/a	n/a	n/a	n/a	n/a	diff	diff	True
222.29	3.52	cognitive	outcomerating	7	high_cue	low_stim	48.75	Strong	48.75	Strong	0.88	2.64	task-social/outcomerating/task-cognitive_scale.png	n/a	n/a	n/a	n/a	n/a	n/a	n/a	n/a
234.78	0.99	cognitive	cue	8	low_cue	n/a	n/a	n/a	n/a	n/a	n/a	n/a	n/a	n/a	n/a	n/a	n/a	n/a	n/a	n/a	n/a
237.28	2.8	cognitive	expectrating	8	low_cue	n/a	8.33	Weak	8.33	Weak	0.48	2.32	task-social/cue/runtype-cognitive/scl/l013.png	n/a	n/a	n/a	n/a	n/a	n/a	n/a	n/a
251.28	5.0	cognitive	stimulus	8	low_cue	high_stim	n/a	n/a	n/a	n/a	n/a	n/a	task-social/stim/runtype-cognitive/35_150_R.jpg	n/a	n/a	n/a	n/a	n/a	diff	diff	True
262.69	n/a	cognitive	outcomerating	8	low_cue	high_stim	n/a	n/a	8.75	Weak	0.65	2.3	task-social/outcomerating/task-cognitive_scale.png	n/a	n/a	n/a	n/a	n/a	n/a	n/a	n/a
271.77	1.0	cognitive	cue	9	low_cue	n/a	n/a	n/a	n/a	n/a	n/a	n/a	n/a	n/a	n/a	n/a	n/a	n/a	n/a	n/a	n/a
274.89	2.47	cognitive	expectrating	9	low_cue	n/a	8.23	Weak	8.23	Weak	0.73	1.73	task-social/cue/runtype-cognitive/scl/l029.png	n/a	n/a	n/a	n/a	n/a	n/a	n/a	n/a
286.58	5.0	cognitive	stimulus	9	low_cue	med_stim	n/a	n/a	n/a	n/a	n/a	n/a	task-social/stim/runtype-cognitive/18_100.jpg	n/a	n/a	n/a	n/a	n/a	same	same	True
294.38	3.73	cognitive	outcomerating	9	low_cue	med_stim	8.29	Weak	8.29	Weak	1.08	2.64	task-social/outcomerating/task-cognitive_scale.png	n/a	n/a	n/a	n/a	n/a	n/a	n/a	n/a
299.88	0.99	cognitive	cue	10	low_cue	n/a	n/a	n/a	n/a	n/a	n/a	n/a	n/a	n/a	n/a	n/a	n/a	n/a	n/a	n/a	n/a
301.78	2.32	cognitive	expectrating	10	low_cue	n/a	31.08	Strong	31.08	Strong	0.7	1.62	task-social/cue/runtype-cognitive/scl/l044.png	n/a	n/a	n/a	n/a	n/a	n/a	n/a	n/a
315.49	5.0	cognitive	stimulus	10	low_cue	med_stim	n/a	n/a	n/a	n/a	n/a	n/a	task-social/stim/runtype-cognitive/29_100_R.jpg	n/a	n/a	n/a	n/a	n/a	diff	diff	True
326.08	n/a	cognitive	outcomerating	10	low_cue	med_stim	n/a	n/a	12.26	Moderate	0.85	2.63	task-social/outcomerating/task-cognitive_scale.png	n/a	n/a	n/a	n/a	n/a	n/a	n/a	n/a
337.88	0.99	cognitive	cue	11	high_cue	n/a	n/a	n/a	n/a	n/a	n/a	n/a	n/a	n/a	n/a	n/a	n/a	n/a	n/a	n/a	n/a
340.58	2.53	cognitive	expectrating	11	high_cue	n/a	69.78	Very Strong	69.78	Very Strong	0.92	1.61	task-social/cue/runtype-cognitive/sch/h039.png	n/a	n/a	n/a	n/a	n/a	n/a	n/a	n/a
347.99	5.0	cognitive	stimulus	11	high_cue	high_stim	n/a	n/a	n/a	n/a	n/a	n/a	task-social/stim/runtype-cognitive/18_150_R.jpg	n/a	n/a	n/a	n/a	n/a	diff	diff	True
355.49	3.55	cognitive	outcomerating	11	high_cue	high_stim	21.84	Moderate	21.84	Moderate	0.52	3.04	task-social/outcomerating/task-cognitive_scale.png	n/a	n/a	n/a	n/a	n/a	n/a	n/a	n/a
362.57	0.99	cognitive	cue	12	high_cue	n/a	n/a	n/a	n/a	n/a	n/a	n/a	n/a	n/a	n/a	n/a	n/a	n/a	n/a	n/a	n/a
364.79	2.45	cognitive	expectrating	12	high_cue	n/a	53.5	Strong	53.5	Strong	0.78	1.67	task-social/cue/runtype-cognitive/sch/h042.png	n/a	n/a	n/a	n/a	n/a	n/a	n/a	n/a
378.48	5.0	cognitive	stimulus	12	high_cue	high_stim	n/a	n/a	n/a	n/a	n/a	n/a	task-social/stim/runtype-cognitive/29_150.jpg	n/a	n/a	n/a	n/a	n/a	same	diff	False
394.59	n/a	cognitive	outcomerating	12	high_cue	high_stim	n/a	n/a	18.14	Moderate	1.27	2.47	task-social/outcomerating/task-cognitive_scale.png	n/a	n/a	n/a	n/a	n/a	n/a	n/a	n/a
