onset	duration	subtask_type	event_type	value	response_accuracy	stim_file	participant_response	reaction_time
8.173	1.05	memory	dummy	study_dummy	n/a	task-fractional/runtype-memory/obj088drawer.png	n/a	n/a
10.258	1.017	memory	dummy	study_dummy	n/a	task-fractional/runtype-memory/obj112fountain.png	n/a	n/a
12.308	1.017	memory	dummy	study_dummy	n/a	task-fractional/runtype-memory/obj169lips.png	n/a	n/a
14.342	1.034	memory	study	study	n/a	task-fractional/runtype-memory/obj321unicorn.png	n/a	n/a
16.393	1.034	memory	study	study	n/a	task-fractional/runtype-memory/obj082doctor.png	n/a	n/a
18.444	1.034	memory	study	study	n/a	task-fractional/runtype-memory/obj207pants.png	n/a	n/a
20.495	1.017	memory	study	study	n/a	task-fractional/runtype-memory/obj299tent.png	n/a	n/a
22.545	1.017	memory	study	study	n/a	task-fractional/runtype-memory/obj130hammock.png	n/a	n/a
24.596	1.017	memory	study	study	n/a	task-fractional/runtype-memory/obj178mask.png	n/a	n/a
26.647	1.017	memory	study	study	n/a	task-fractional/runtype-memory/obj255sailor.png	n/a	n/a
28.698	1.017	memory	study	study	n/a	task-fractional/runtype-memory/obj161lamp.png	n/a	n/a
30.732	1.017	memory	study	study	n/a	task-fractional/runtype-memory/obj347zebra.png	n/a	n/a
32.766	1.017	memory	study	study	n/a	task-fractional/runtype-memory/obj116genie.png	n/a	n/a
34.8	1.017	memory	study	study	n/a	task-fractional/runtype-memory/obj065clown.png	n/a	n/a
36.834	1.017	memory	study	study	n/a	task-fractional/runtype-memory/obj125guitar.png	n/a	n/a
38.868	1.017	memory	study	study	n/a	task-fractional/runtype-memory/obj044cake.png	n/a	n/a
40.902	1.017	memory	study	study	n/a	task-fractional/runtype-memory/obj332well.png	n/a	n/a
42.936	1.017	memory	study	study	n/a	task-fractional/runtype-memory/obj017barbecue.png	n/a	n/a
44.97	1.017	memory	study	study	n/a	task-fractional/runtype-memory/obj319typewriter.png	n/a	n/a
47.005	1.017	memory	study	study	n/a	task-fractional/runtype-memory/obj221pinecone.png	n/a	n/a
49.039	1.017	memory	study	study	n/a	task-fractional/runtype-memory/obj192nail.png	n/a	n/a
51.073	1.017	memory	study	study	n/a	task-fractional/runtype-memory/obj077deer.png	n/a	n/a
53.107	1.017	memory	study	study	n/a	task-fractional/runtype-memory/obj338whistle.png	n/a	n/a
55.141	1.017	memory	dummy	study_dummy	n/a	task-fractional/runtype-memory/obj210peacock.png	n/a	n/a
57.175	1.034	memory	dummy	study_dummy	n/a	task-fractional/runtype-memory/obj259scarf.png	n/a	n/a
59.226	1.034	memory	dummy	study_dummy	n/a	task-fractional/runtype-memory/obj285squirrel.png	n/a	n/a
71.514	25.0	memory	distraction_math	math	n/a	n/a	n/a	n/a
99.591	25.0	memory	distraction_math	math	n/a	n/a	n/a	n/a
127.668	25.0	memory	distraction_math	math	n/a	n/a	n/a	n/a
155.728	25.0	memory	distraction_math	math	n/a	n/a	n/a	n/a
189.274	1.346	memory	test	test_old	correct	task-fractional/runtype-memory/obj221pinecone.png	old	n/a
191.859	0.735	memory	test	test_new	correct	task-fractional/runtype-memory/obj127hair.png	new	n/a
194.41	0.779	memory	test	test_new	correct	task-fractional/runtype-memory/obj095envelope.png	new	n/a
197.094	1.025	memory	test	test_new	correct	task-fractional/runtype-memory/obj342wing.png	new	n/a
199.828	1.141	memory	test	test_new	correct	task-fractional/runtype-memory/obj244rock.png	new	n/a
202.763	0.869	memory	test	test_old	correct	task-fractional/runtype-memory/obj130hammock.png	old	n/a
205.764	0.778	memory	test	test_new	correct	task-fractional/runtype-memory/obj006apple.png	new	n/a
208.632	0.873	memory	test	test_new	correct	task-fractional/runtype-memory/obj252ruler.png	new	n/a
211.366	0.792	memory	test	test_new	correct	task-fractional/runtype-memory/obj224pitchfork.png	new	n/a
214.317	1.004	memory	test	test_old	correct	task-fractional/runtype-memory/obj161lamp.png	old	n/a
217.101	0.724	memory	test	test_new	correct	task-fractional/runtype-memory/obj094elephant.png	new	n/a
219.702	0.846	memory	test	test_old	correct	task-fractional/runtype-memory/obj207pants.png	old	n/a
222.353	0.783	memory	test	test_new	correct	task-fractional/runtype-memory/obj202package.png	new	n/a
225.221	0.723	memory	test	test_old	correct	task-fractional/runtype-memory/obj338whistle.png	old	n/a
227.905	0.946	memory	test	test_old	correct	task-fractional/runtype-memory/obj347zebra.png	old	n/a
230.506	0.74	memory	test	test_old	correct	task-fractional/runtype-memory/obj255sailor.png	old	n/a
233.524	0.752	memory	test	test_new	correct	task-fractional/runtype-memory/obj157knife.png	new	n/a
236.559	0.79	memory	test	test_old	correct	task-fractional/runtype-memory/obj332well.png	old	n/a
239.176	1.635	memory	test	test_new	correct	task-fractional/runtype-memory/obj337whip.png	new	n/a
241.961	0.728	memory	test	test_old	correct	task-fractional/runtype-memory/obj065clown.png	old	n/a
244.895	0.773	memory	test	test_new	correct	task-fractional/runtype-memory/obj030bone.png	new	n/a
247.546	0.822	memory	test	test_old	correct	task-fractional/runtype-memory/obj178mask.png	old	n/a
250.48	0.629	memory	test	test_old	correct	task-fractional/runtype-memory/obj044cake.png	old	n/a
253.365	0.787	memory	test	test_old	correct	task-fractional/runtype-memory/obj321unicorn.png	old	n/a
256.266	0.627	memory	test	test_old	correct	task-fractional/runtype-memory/obj125guitar.png	old	n/a
258.884	0.943	memory	test	test_old	correct	task-fractional/runtype-memory/obj319typewriter.png	old	n/a
261.818	0.942	memory	test	test_new	correct	task-fractional/runtype-memory/obj035box.png	new	n/a
264.352	0.818	memory	test	test_old	correct	task-fractional/runtype-memory/obj192nail.png	old	n/a
267.237	1.396	memory	test	test_new	correct	task-fractional/runtype-memory/obj002acorn.png	new	n/a
270.188	1.046	memory	test	test_new	correct	task-fractional/runtype-memory/obj246rockingchair.png	new	n/a
272.922	1.344	memory	test	test_new	correct	task-fractional/runtype-memory/obj326violin.png	new	n/a
275.49	0.729	memory	test	test_old	correct	task-fractional/runtype-memory/obj017barbecue.png	old	n/a
278.324	1.08	memory	test	test_new	correct	task-fractional/runtype-memory/obj273sled.png	new	n/a
281.192	0.622	memory	test	test_old	correct	task-fractional/runtype-memory/obj299tent.png	old	n/a
284.026	0.703	memory	test	test_old	correct	task-fractional/runtype-memory/obj116genie.png	old	n/a
286.944	0.808	memory	test	test_old	correct	task-fractional/runtype-memory/obj077deer.png	old	n/a
289.678	0.903	memory	test	test_new	correct	task-fractional/runtype-memory/obj138helmet.png	new	n/a
292.629	0.993	memory	test	test_new	correct	task-fractional/runtype-memory/obj001accordion.png	new	n/a
295.347	1.015	memory	test	test_new	correct	task-fractional/runtype-memory/obj043cage.png	new	n/a
298.148	0.724	memory	test	test_old	correct	task-fractional/runtype-memory/obj082doctor.png	old	n/a
308.852	1.017	memory	dummy	study_dummy	n/a	task-fractional/runtype-memory/obj023belt.png	n/a	n/a
310.886	1.017	memory	dummy	study_dummy	n/a	task-fractional/runtype-memory/obj025binoculars.png	n/a	n/a
312.92	1.017	memory	dummy	study_dummy	n/a	task-fractional/runtype-memory/obj212pear.png	n/a	n/a
314.954	1.017	memory	study	study	n/a	task-fractional/runtype-memory/obj027blimp.png	n/a	n/a
316.989	1.017	memory	study	study	n/a	task-fractional/runtype-memory/obj238rain.png	n/a	n/a
319.023	1.017	memory	study	study	n/a	task-fractional/runtype-memory/obj291swing.png	n/a	n/a
321.057	1.017	memory	study	study	n/a	task-fractional/runtype-memory/obj243robot.png	n/a	n/a
323.091	1.017	memory	study	study	n/a	task-fractional/runtype-memory/obj033bottle.png	n/a	n/a
325.125	1.017	memory	study	study	n/a	task-fractional/runtype-memory/obj067comb.png	n/a	n/a
327.159	1.017	memory	study	study	n/a	task-fractional/runtype-memory/obj230priest.png	n/a	n/a
329.193	1.034	memory	study	study	n/a	task-fractional/runtype-memory/obj280sofa.png	n/a	n/a
331.244	1.034	memory	study	study	n/a	task-fractional/runtype-memory/obj115funnel.png	n/a	n/a
333.295	1.017	memory	study	study	n/a	task-fractional/runtype-memory/obj209paperclip.png	n/a	n/a
335.345	1.017	memory	study	study	n/a	task-fractional/runtype-memory/obj227plug.png	n/a	n/a
337.38	1.017	memory	study	study	n/a	task-fractional/runtype-memory/obj071cowboy.png	n/a	n/a
339.43	1.017	memory	study	study	n/a	task-fractional/runtype-memory/obj276snail.png	n/a	n/a
341.481	1.017	memory	study	study	n/a	task-fractional/runtype-memory/obj059chicken.png	n/a	n/a
343.515	1.017	memory	study	study	n/a	task-fractional/runtype-memory/obj142hook.png	n/a	n/a
345.549	1.017	memory	study	study	n/a	task-fractional/runtype-memory/obj173lock.png	n/a	n/a
347.583	1.017	memory	study	study	n/a	task-fractional/runtype-memory/obj196nose.png	n/a	n/a
349.617	1.017	memory	study	study	n/a	task-fractional/runtype-memory/obj226plate.png	n/a	n/a
351.652	1.017	memory	study	study	n/a	task-fractional/runtype-memory/obj236raccoon.png	n/a	n/a
353.686	1.017	memory	study	study	n/a	task-fractional/runtype-memory/obj200orange.png	n/a	n/a
355.72	1.017	memory	dummy	study_dummy	n/a	task-fractional/runtype-memory/obj267shower.png	n/a	n/a
357.754	1.017	memory	dummy	study_dummy	n/a	task-fractional/runtype-memory/obj300thermos.png	n/a	n/a
359.788	1.017	memory	dummy	study_dummy	n/a	task-fractional/runtype-memory/obj315trumpet.png	n/a	n/a
371.992	25.0	memory	distraction_math	math	n/a	n/a	n/a	n/a
400.053	25.0	memory	distraction_math	math	n/a	n/a	n/a	n/a
428.113	25.0	memory	distraction_math	math	n/a	n/a	n/a	n/a
456.174	25.0	memory	distraction_math	math	n/a	n/a	n/a	n/a
489.92	0.929	memory	test	test_old	incorrect	task-fractional/runtype-memory/obj236raccoon.png	new	n/a
492.904	0.748	memory	test	test_new	correct	task-fractional/runtype-memory/obj283spider.png	new	n/a
495.672	0.899	memory	test	test_new	correct	task-fractional/runtype-memory/obj058chest.png	new	n/a
498.223	0.858	memory	test	test_new	correct	task-fractional/runtype-memory/obj345wrench.png	new	n/a
500.84	0.721	memory	test	test_new	correct	task-fractional/runtype-memory/obj122glove.png	new	n/a
503.658	0.861	memory	test	test_new	correct	task-fractional/runtype-memory/obj282spatula.png	new	n/a
506.509	0.806	memory	test	test_old	correct	task-fractional/runtype-memory/obj027blimp.png	old	n/a
509.06	0.746	memory	test	test_old	correct	task-fractional/runtype-memory/obj243robot.png	old	n/a
511.878	0.819	memory	test	test_old	correct	task-fractional/runtype-memory/obj059chicken.png	old	n/a
514.479	0.692	memory	test	test_old	correct	task-fractional/runtype-memory/obj200orange.png	old	n/a
517.313	0.906	memory	test	test_new	correct	task-fractional/runtype-memory/obj181microphone.png	new	n/a
520.098	1.146	memory	test	test_new	correct	task-fractional/runtype-memory/obj195net.png	new	n/a
523.132	0.953	memory	test	test_new	correct	task-fractional/runtype-memory/obj107flower.png	new	n/a
526.0	0.995	memory	test	test_old	correct	task-fractional/runtype-memory/obj226plate.png	old	n/a
528.968	1.053	memory	test	test_new	correct	task-fractional/runtype-memory/obj242road.png	new	n/a
531.985	0.937	memory	test	test_old	correct	task-fractional/runtype-memory/obj276snail.png	old	n/a
534.57	0.788	memory	test	test_old	correct	task-fractional/runtype-memory/obj115funnel.png	old	n/a
537.387	0.964	memory	test	test_new	correct	task-fractional/runtype-memory/obj323vacuum.png	new	n/a
539.938	0.799	memory	test	test_old	correct	task-fractional/runtype-memory/obj227plug.png	old	n/a
542.506	0.908	memory	test	test_old	correct	task-fractional/runtype-memory/obj196nose.png	old	n/a
545.14	0.992	memory	test	test_new	correct	task-fractional/runtype-memory/obj329walrus.png	new	n/a
548.125	0.872	memory	test	test_old	correct	task-fractional/runtype-memory/obj230priest.png	old	n/a
550.742	1.302	memory	test	test_old	correct	task-fractional/runtype-memory/obj033bottle.png	old	n/a
553.343	0.687	memory	test	test_new	correct	task-fractional/runtype-memory/obj204palmtree.png	new	n/a
556.278	1.206	memory	test	test_new	correct	task-fractional/runtype-memory/obj335wheelbarrow.png	new	n/a
559.112	1.203	memory	test	test_old	correct	task-fractional/runtype-memory/obj173lock.png	old	n/a
561.963	0.719	memory	test	test_new	correct	task-fractional/runtype-memory/obj297telescope.png	new	n/a
564.948	0.792	memory	test	test_old	correct	task-fractional/runtype-memory/obj209paperclip.png	old	n/a
567.582	1.036	memory	test	test_new	correct	task-fractional/runtype-memory/obj261scorpion.png	new	n/a
570.6	0.845	memory	test	test_new	correct	task-fractional/runtype-memory/obj066dime.png	new	n/a
573.167	0.663	memory	test	test_old	incorrect	task-fractional/runtype-memory/obj280sofa.png	new	n/a
575.918	1.291	memory	test	test_old	incorrect	task-fractional/runtype-memory/obj142hook.png	new	n/a
578.569	0.949	memory	test	test_new	correct	task-fractional/runtype-memory/obj274slide.png	new	n/a
581.537	0.707	memory	test	test_new	correct	task-fractional/runtype-memory/obj190mousetrap.png	new	n/a
584.372	0.895	memory	test	test_old	correct	task-fractional/runtype-memory/obj238rain.png	old	n/a
587.389	0.525	memory	test	test_old	correct	task-fractional/runtype-memory/obj067comb.png	old	n/a
590.124	1.126	memory	test	test_new	incorrect	task-fractional/runtype-memory/obj055chair.png	old	n/a
592.992	0.701	memory	test	test_old	correct	task-fractional/runtype-memory/obj071cowboy.png	old	n/a
595.909	0.761	memory	test	test_old	correct	task-fractional/runtype-memory/obj291swing.png	old	n/a
598.794	1.574	memory	test	test_new	correct	task-fractional/runtype-memory/obj318tweezers.png	new	n/a
