onset	duration	run_type	trial_type	trial_index	cue	stimulusintensity	rating_value	rating_glmslabel	rating_value_fillna	rating_glmslabel_fillna	rating_mouseonset	rating_mousedur	stim_file	pain_onset_ttl1	pain_onset_ttl2	pain_onset_ttl3	pain_onset_ttl4	pain_stimulus_delivery_success	cognitive_correct_response	cognitive_participant_response	cognitive_response_accuracy
4.81	1.0	pain	cue	1	high_cue	n/a	n/a	n/a	n/a	n/a	n/a	n/a	task-social/cue/runtype-pain/sch/h054.png	n/a	n/a	n/a	n/a	n/a	n/a	n/a	n/a
7.24	n/a	pain	expectrating	1	high_cue	n/a	n/a	n/a	38.05	Strong	0.72	3.73	task-social/cue/runtype-pain/sch/h054.png	n/a	n/a	n/a	n/a	n/a	n/a	n/a	n/a
15.87	11.910000000000002	pain	stimulus	1	high_cue	low_stim	n/a	n/a	n/a	n/a	n/a	n/a	n/a	15.87	19.37	24.37	27.77	success	n/a	n/a	n/a
27.22	3.57	pain	outcomerating	1	high_cue	low_stim	63.43	Strong	63.43	Strong	0.72	3.73	task-social/outcomerating/task-pain_scale.png	n/a	n/a	n/a	n/a	success	n/a	n/a	n/a
33.1	1.0	pain	cue	2	low_cue	n/a	n/a	n/a	n/a	n/a	n/a	n/a	task-social/cue/runtype-pain/scl/l028.png	n/a	n/a	n/a	n/a	n/a	n/a	n/a	n/a
34.92	2.87	pain	expectrating	2	low_cue	n/a	42.55	Strong	42.55	Strong	1.03	1.83	task-social/cue/runtype-pain/scl/l028.png	n/a	n/a	n/a	n/a	n/a	n/a	n/a	n/a
44.24	11.899999999999999	pain	stimulus	2	low_cue	low_stim	n/a	n/a	n/a	n/a	n/a	n/a	n/a	44.24	47.74	52.74	56.14	success	n/a	n/a	n/a
56.11	2.55	pain	outcomerating	2	low_cue	low_stim	48.1	Strong	48.1	Strong	1.03	1.83	task-social/outcomerating/task-pain_scale.png	n/a	n/a	n/a	n/a	success	n/a	n/a	n/a
61.11	1.0	pain	cue	3	low_cue	n/a	n/a	n/a	n/a	n/a	n/a	n/a	task-social/cue/runtype-pain/scl/l002.png	n/a	n/a	n/a	n/a	n/a	n/a	n/a	n/a
63.23	n/a	pain	expectrating	3	low_cue	n/a	n/a	n/a	36.87	Strong	0.95	3.77	task-social/cue/runtype-pain/scl/l002.png	n/a	n/a	n/a	n/a	n/a	n/a	n/a	n/a
69.86	12.370000000000005	pain	stimulus	3	low_cue	med_stim	n/a	n/a	n/a	n/a	n/a	n/a	n/a	69.86	73.62	78.62	82.23	success	n/a	n/a	n/a
81.42	2.12	pain	outcomerating	3	low_cue	med_stim	69.09	Very Strong	69.09	Very Strong	0.95	3.77	task-social/outcomerating/task-pain_scale.png	n/a	n/a	n/a	n/a	success	n/a	n/a	n/a
86.5	1.0	pain	cue	4	low_cue	n/a	n/a	n/a	n/a	n/a	n/a	n/a	task-social/cue/runtype-pain/scl/l042.png	n/a	n/a	n/a	n/a	n/a	n/a	n/a	n/a
89.62	n/a	pain	expectrating	4	low_cue	n/a	n/a	n/a	n/a	n/a	n/a	n/a	task-social/cue/runtype-pain/scl/l042.png	n/a	n/a	n/a	n/a	n/a	n/a	n/a	n/a
98.84	12.819999999999993	pain	stimulus	4	low_cue	high_stim	n/a	n/a	n/a	n/a	n/a	n/a	n/a	98.84	102.85	107.85	111.66	success	n/a	n/a	n/a
110.11	2.43	pain	outcomerating	4	low_cue	high_stim	49.27	Strong	49.27	Strong	n/a	n/a	task-social/outcomerating/task-pain_scale.png	n/a	n/a	n/a	n/a	success	n/a	n/a	n/a
114.82	1.0	pain	cue	5	high_cue	n/a	n/a	n/a	n/a	n/a	n/a	n/a	task-social/cue/runtype-pain/sch/h024.png	n/a	n/a	n/a	n/a	n/a	n/a	n/a	n/a
117.22	n/a	pain	expectrating	5	high_cue	n/a	n/a	n/a	n/a	n/a	n/a	n/a	task-social/cue/runtype-pain/sch/h024.png	n/a	n/a	n/a	n/a	n/a	n/a	n/a	n/a
122.64	12.36999999999999	pain	stimulus	5	high_cue	med_stim	n/a	n/a	n/a	n/a	n/a	n/a	n/a	122.64	126.4	131.4	135.01	success	n/a	n/a	n/a
133.92	n/a	pain	outcomerating	5	high_cue	med_stim	n/a	n/a	68.16	Very Strong	n/a	n/a	task-social/outcomerating/task-pain_scale.png	n/a	n/a	n/a	n/a	success	n/a	n/a	n/a
138.51	1.0	pain	cue	6	high_cue	n/a	n/a	n/a	n/a	n/a	n/a	n/a	task-social/cue/runtype-pain/sch/h050.png	n/a	n/a	n/a	n/a	n/a	n/a	n/a	n/a
140.61	n/a	pain	expectrating	6	high_cue	n/a	n/a	n/a	n/a	n/a	n/a	n/a	task-social/cue/runtype-pain/sch/h050.png	n/a	n/a	n/a	n/a	n/a	n/a	n/a	n/a
145.94	12.819999999999993	pain	stimulus	6	high_cue	high_stim	n/a	n/a	n/a	n/a	n/a	n/a	n/a	145.94	149.95	154.95	158.76	success	n/a	n/a	n/a
157.61	1.78	pain	outcomerating	6	high_cue	high_stim	91.87	Very Strong	91.87	Very Strong	n/a	n/a	task-social/outcomerating/task-pain_scale.png	n/a	n/a	n/a	n/a	success	n/a	n/a	n/a
163.5	1.0	pain	cue	7	high_cue	n/a	n/a	n/a	n/a	n/a	n/a	n/a	task-social/cue/runtype-pain/sch/h025.png	n/a	n/a	n/a	n/a	n/a	n/a	n/a	n/a
165.62	n/a	pain	expectrating	7	high_cue	n/a	n/a	n/a	n/a	n/a	n/a	n/a	task-social/cue/runtype-pain/sch/h025.png	n/a	n/a	n/a	n/a	n/a	n/a	n/a	n/a
176.44	11.900000000000006	pain	stimulus	7	high_cue	low_stim	n/a	n/a	n/a	n/a	n/a	n/a	n/a	176.44	179.94	184.94	188.34	success	n/a	n/a	n/a
197.61	2.98	pain	outcomerating	7	high_cue	low_stim	58.24	Strong	58.24	Strong	n/a	n/a	task-social/outcomerating/task-pain_scale.png	n/a	n/a	n/a	n/a	success	n/a	n/a	n/a
209.4	1.0	pain	cue	8	high_cue	n/a	n/a	n/a	n/a	n/a	n/a	n/a	task-social/cue/runtype-pain/sch/h023.png	n/a	n/a	n/a	n/a	n/a	n/a	n/a	n/a
211.52	2.32	pain	expectrating	8	high_cue	n/a	52.27	Strong	52.27	Strong	0.73	1.58	task-social/cue/runtype-pain/sch/h023.png	n/a	n/a	n/a	n/a	n/a	n/a	n/a	n/a
216.45	12.820000000000022	pain	stimulus	8	high_cue	high_stim	n/a	n/a	n/a	n/a	n/a	n/a	n/a	216.45	220.46	225.46	229.27	success	n/a	n/a	n/a
229.71	2.1	pain	outcomerating	8	high_cue	high_stim	92.07	Very Strong	92.07	Very Strong	0.73	1.58	task-social/outcomerating/task-pain_scale.png	n/a	n/a	n/a	n/a	success	n/a	n/a	n/a
234.61	1.0	pain	cue	9	low_cue	n/a	n/a	n/a	n/a	n/a	n/a	n/a	task-social/cue/runtype-pain/scl/l014.png	n/a	n/a	n/a	n/a	n/a	n/a	n/a	n/a
237.71	3.12	pain	expectrating	9	low_cue	n/a	52.99	Strong	52.99	Strong	0.38	2.74	task-social/cue/runtype-pain/scl/l014.png	n/a	n/a	n/a	n/a	n/a	n/a	n/a	n/a
250.53	11.900000000000006	pain	stimulus	9	low_cue	low_stim	n/a	n/a	n/a	n/a	n/a	n/a	n/a	250.53	254.03	259.03	262.43	success	n/a	n/a	n/a
265.1	1.68	pain	outcomerating	9	low_cue	low_stim	61.17	Strong	61.17	Strong	0.38	2.74	task-social/outcomerating/task-pain_scale.png	n/a	n/a	n/a	n/a	success	n/a	n/a	n/a
271.01	1.0	pain	cue	10	low_cue	n/a	n/a	n/a	n/a	n/a	n/a	n/a	task-social/cue/runtype-pain/scl/l018.png	n/a	n/a	n/a	n/a	n/a	n/a	n/a	n/a
274.11	2.4	pain	expectrating	10	low_cue	n/a	49.22	Strong	49.22	Strong	0.48	1.92	task-social/cue/runtype-pain/scl/l018.png	n/a	n/a	n/a	n/a	n/a	n/a	n/a	n/a
283.44	12.360000000000014	pain	stimulus	10	low_cue	med_stim	n/a	n/a	n/a	n/a	n/a	n/a	n/a	283.44	287.2	292.2	295.81	success	n/a	n/a	n/a
296.62	2.58	pain	outcomerating	10	low_cue	med_stim	79.37	Very Strong	79.37	Very Strong	0.48	1.92	task-social/outcomerating/task-pain_scale.png	n/a	n/a	n/a	n/a	success	n/a	n/a	n/a
317.61	1.0	pain	cue	11	low_cue	n/a	n/a	n/a	n/a	n/a	n/a	n/a	task-social/cue/runtype-pain/scl/l001.png	n/a	n/a	n/a	n/a	n/a	n/a	n/a	n/a
320.01	1.59	pain	expectrating	11	low_cue	n/a	44.01	Strong	44.01	Strong	0.45	1.14	task-social/cue/runtype-pain/scl/l001.png	n/a	n/a	n/a	n/a	n/a	n/a	n/a	n/a
325.44	12.819999999999993	pain	stimulus	11	low_cue	high_stim	n/a	n/a	n/a	n/a	n/a	n/a	n/a	325.44	329.45	334.45	338.26	success	n/a	n/a	n/a
337.12	2.17	pain	outcomerating	11	low_cue	high_stim	60.45	Strong	60.45	Strong	0.45	1.14	task-social/outcomerating/task-pain_scale.png	n/a	n/a	n/a	n/a	success	n/a	n/a	n/a
358.11	1.0	pain	cue	12	high_cue	n/a	n/a	n/a	n/a	n/a	n/a	n/a	task-social/cue/runtype-pain/sch/h010.png	n/a	n/a	n/a	n/a	n/a	n/a	n/a	n/a
361.21	2.01	pain	expectrating	12	high_cue	n/a	75.13	Very Strong	75.13	Very Strong	0.4	1.61	task-social/cue/runtype-pain/sch/h010.png	n/a	n/a	n/a	n/a	n/a	n/a	n/a	n/a
375.53	12.360000000000014	pain	stimulus	12	high_cue	med_stim	n/a	n/a	n/a	n/a	n/a	n/a	n/a	375.53	379.29	384.29	387.9	success	n/a	n/a	n/a
394.12	n/a	pain	outcomerating	12	high_cue	med_stim	n/a	n/a	69.39	Very Strong	0.4	1.61	task-social/outcomerating/task-pain_scale.png	n/a	n/a	n/a	n/a	success	n/a	n/a	n/a
