onset	duration	run_type	trial_type	trial_index	cue	stimulusintensity	rating_value	rating_glmslabel	rating_value_fillna	rating_glmslabel_fillna	rating_mouseonset	rating_mousedur	stim_file	pain_onset_ttl1	pain_onset_ttl2	pain_onset_ttl3	pain_onset_ttl4	pain_stimulus_delivery_success	cognitive_correct_response	cognitive_participant_response	cognitive_response_accuracy
14.2	0.98	vicarious	cue	1	low_cue	n/a	n/a	n/a	n/a	n/a	n/a	n/a	task-social/cue/runtype-vicarious/scl/l054.png	n/a	n/a	n/a	n/a	n/a	n/a	n/a	n/a
16.03	1.45	vicarious	expectrating	1	low_cue	n/a	41.71	Strong	41.71	Strong	0.43	1.02	task-social/cue/runtype-vicarious/scl/l054.png	n/a	n/a	n/a	n/a	n/a	n/a	n/a	n/a
26.68	5.0	vicarious	stimulus	1	low_cue	low_stim	n/a	n/a	n/a	n/a	n/a	n/a	task-social/stim/runtype-vicarious/vw121t1aeaff_L.mp4	n/a	n/a	n/a	n/a	n/a	n/a	n/a	n/a
37.71	1.63	vicarious	outcomerating	1	low_cue	low_stim	16.75	Moderate	16.75	Moderate	0.43	1.02	task-social/outcomerating/task-vicarious_scale.png	n/a	n/a	n/a	n/a	n/a	n/a	n/a	n/a
43.79	0.99	vicarious	cue	2	low_cue	n/a	n/a	n/a	n/a	n/a	n/a	n/a	task-social/cue/runtype-vicarious/scl/l019.png	n/a	n/a	n/a	n/a	n/a	n/a	n/a	n/a
46.79	1.49	vicarious	expectrating	2	low_cue	n/a	24.71	Moderate	24.71	Moderate	0.4	1.09	task-social/cue/runtype-vicarious/scl/l019.png	n/a	n/a	n/a	n/a	n/a	n/a	n/a	n/a
57.48	5.0	vicarious	stimulus	2	low_cue	med_stim	n/a	n/a	n/a	n/a	n/a	n/a	task-social/stim/runtype-vicarious/kz120t2aeaff_M.mp4	n/a	n/a	n/a	n/a	n/a	n/a	n/a	n/a
69.3	1.9	vicarious	outcomerating	2	low_cue	med_stim	5.9	Weak	5.9	Weak	0.4	1.09	task-social/outcomerating/task-vicarious_scale.png	n/a	n/a	n/a	n/a	n/a	n/a	n/a	n/a
77.79	0.99	vicarious	cue	3	high_cue	n/a	n/a	n/a	n/a	n/a	n/a	n/a	task-social/cue/runtype-vicarious/sch/h040.png	n/a	n/a	n/a	n/a	n/a	n/a	n/a	n/a
80.81	1.93	vicarious	expectrating	3	high_cue	n/a	104.93	Strongest sensation of any kind	104.93	Strongest sensation of any kind	0.52	1.41	task-social/cue/runtype-vicarious/sch/h040.png	n/a	n/a	n/a	n/a	n/a	n/a	n/a	n/a
87.58	5.0	vicarious	stimulus	3	high_cue	med_stim	n/a	n/a	n/a	n/a	n/a	n/a	task-social/stim/runtype-vicarious/jh043t2aeunaff_M.mp4	n/a	n/a	n/a	n/a	n/a	n/a	n/a	n/a
97.4	2.09	vicarious	outcomerating	3	high_cue	med_stim	51.02	Strong	51.02	Strong	0.52	1.41	task-social/outcomerating/task-vicarious_scale.png	n/a	n/a	n/a	n/a	n/a	n/a	n/a	n/a
110.48	0.99	vicarious	cue	4	low_cue	n/a	n/a	n/a	n/a	n/a	n/a	n/a	task-social/cue/runtype-vicarious/scl/l028.png	n/a	n/a	n/a	n/a	n/a	n/a	n/a	n/a
112.4	1.65	vicarious	expectrating	4	low_cue	n/a	0.0	n/a	0.0	n/a	0.53	1.12	task-social/cue/runtype-vicarious/scl/l028.png	n/a	n/a	n/a	n/a	n/a	n/a	n/a	n/a
125.88	5.0	vicarious	stimulus	4	low_cue	high_stim	n/a	n/a	n/a	n/a	n/a	n/a	task-social/stim/runtype-vicarious/jy115t2aaaff_H.mp4	n/a	n/a	n/a	n/a	n/a	n/a	n/a	n/a
136.09	1.84	vicarious	outcomerating	4	low_cue	high_stim	63.02	Strong	63.02	Strong	0.53	1.12	task-social/outcomerating/task-vicarious_scale.png	n/a	n/a	n/a	n/a	n/a	n/a	n/a	n/a
150.7	0.98	vicarious	cue	5	high_cue	n/a	n/a	n/a	n/a	n/a	n/a	n/a	task-social/cue/runtype-vicarious/sch/h043.png	n/a	n/a	n/a	n/a	n/a	n/a	n/a	n/a
152.4	1.82	vicarious	expectrating	5	high_cue	n/a	76.02	Very Strong	76.02	Very Strong	0.58	1.23	task-social/cue/runtype-vicarious/sch/h043.png	n/a	n/a	n/a	n/a	n/a	n/a	n/a	n/a
160.89	5.0	vicarious	stimulus	5	high_cue	med_stim	n/a	n/a	n/a	n/a	n/a	n/a	task-social/stim/runtype-vicarious/gf097t1aiaff_M.mp4	n/a	n/a	n/a	n/a	n/a	n/a	n/a	n/a
173.81	1.51	vicarious	outcomerating	5	high_cue	med_stim	21.07	Moderate	21.07	Moderate	0.58	1.23	task-social/outcomerating/task-vicarious_scale.png	n/a	n/a	n/a	n/a	n/a	n/a	n/a	n/a
178.69	0.99	vicarious	cue	6	low_cue	n/a	n/a	n/a	n/a	n/a	n/a	n/a	task-social/cue/runtype-vicarious/scl/l042.png	n/a	n/a	n/a	n/a	n/a	n/a	n/a	n/a
181.79	1.57	vicarious	expectrating	6	low_cue	n/a	9.5	Weak	9.5	Weak	0.48	1.09	task-social/cue/runtype-vicarious/scl/l042.png	n/a	n/a	n/a	n/a	n/a	n/a	n/a	n/a
189.98	5.0	vicarious	stimulus	6	low_cue	high_stim	n/a	n/a	n/a	n/a	n/a	n/a	task-social/stim/runtype-vicarious/bn080t1afaff_H.mp4	n/a	n/a	n/a	n/a	n/a	n/a	n/a	n/a
200.1	2.03	vicarious	outcomerating	6	low_cue	high_stim	106.61	Strongest sensation of any kind	106.61	Strongest sensation of any kind	0.48	1.09	task-social/outcomerating/task-vicarious_scale.png	n/a	n/a	n/a	n/a	n/a	n/a	n/a	n/a
205.39	0.99	vicarious	cue	7	low_cue	n/a	n/a	n/a	n/a	n/a	n/a	n/a	task-social/cue/runtype-vicarious/scl/l008.png	n/a	n/a	n/a	n/a	n/a	n/a	n/a	n/a
208.39	1.18	vicarious	expectrating	7	low_cue	n/a	4.95	Weak	4.95	Weak	0.45	0.73	task-social/cue/runtype-vicarious/scl/l008.png	n/a	n/a	n/a	n/a	n/a	n/a	n/a	n/a
219.68	5.0	vicarious	stimulus	7	low_cue	low_stim	n/a	n/a	n/a	n/a	n/a	n/a	task-social/stim/runtype-vicarious/jh043t2aaunaff_L.mp4	n/a	n/a	n/a	n/a	n/a	n/a	n/a	n/a
232.6	1.52	vicarious	outcomerating	7	low_cue	low_stim	4.4	Weak	4.4	Weak	0.45	0.73	task-social/outcomerating/task-vicarious_scale.png	n/a	n/a	n/a	n/a	n/a	n/a	n/a	n/a
237.5	0.98	vicarious	cue	8	high_cue	n/a	n/a	n/a	n/a	n/a	n/a	n/a	task-social/cue/runtype-vicarious/sch/h011.png	n/a	n/a	n/a	n/a	n/a	n/a	n/a	n/a
239.2	1.8	vicarious	expectrating	8	high_cue	n/a	93.77	Very Strong	93.77	Very Strong	0.85	0.95	task-social/cue/runtype-vicarious/sch/h011.png	n/a	n/a	n/a	n/a	n/a	n/a	n/a	n/a
245.98	5.0	vicarious	stimulus	8	high_cue	high_stim	n/a	n/a	n/a	n/a	n/a	n/a	task-social/stim/runtype-vicarious/vw121t1aaaff_H.mp4	n/a	n/a	n/a	n/a	n/a	n/a	n/a	n/a
257.91	1.5	vicarious	outcomerating	8	high_cue	high_stim	114.27	Strongest sensation of any kind	114.27	Strongest sensation of any kind	0.85	0.95	task-social/outcomerating/task-vicarious_scale.png	n/a	n/a	n/a	n/a	n/a	n/a	n/a	n/a
265.79	0.99	vicarious	cue	9	high_cue	n/a	n/a	n/a	n/a	n/a	n/a	n/a	task-social/cue/runtype-vicarious/sch/h044.png	n/a	n/a	n/a	n/a	n/a	n/a	n/a	n/a
268.79	1.07	vicarious	expectrating	9	high_cue	n/a	49.57	Strong	49.57	Strong	0.37	0.71	task-social/cue/runtype-vicarious/sch/h044.png	n/a	n/a	n/a	n/a	n/a	n/a	n/a	n/a
276.98	5.0	vicarious	stimulus	9	high_cue	high_stim	n/a	n/a	n/a	n/a	n/a	n/a	task-social/stim/runtype-vicarious/jh043t2aeaff_H.mp4	n/a	n/a	n/a	n/a	n/a	n/a	n/a	n/a
288.0	1.43	vicarious	outcomerating	9	high_cue	high_stim	25.51	Moderate	25.51	Moderate	0.37	0.71	task-social/outcomerating/task-vicarious_scale.png	n/a	n/a	n/a	n/a	n/a	n/a	n/a	n/a
296.69	0.99	vicarious	cue	10	high_cue	n/a	n/a	n/a	n/a	n/a	n/a	n/a	task-social/cue/runtype-vicarious/sch/h052.png	n/a	n/a	n/a	n/a	n/a	n/a	n/a	n/a
299.49	1.6	vicarious	expectrating	10	high_cue	n/a	118.73	Strongest sensation of any kind	118.73	Strongest sensation of any kind	0.5	1.1	task-social/cue/runtype-vicarious/sch/h052.png	n/a	n/a	n/a	n/a	n/a	n/a	n/a	n/a
316.08	5.0	vicarious	stimulus	10	high_cue	low_stim	n/a	n/a	n/a	n/a	n/a	n/a	task-social/stim/runtype-vicarious/jy115t1aaunaff_L.mp4	n/a	n/a	n/a	n/a	n/a	n/a	n/a	n/a
327.0	1.2	vicarious	outcomerating	10	high_cue	low_stim	6.57	Weak	6.57	Weak	0.5	1.1	task-social/outcomerating/task-vicarious_scale.png	n/a	n/a	n/a	n/a	n/a	n/a	n/a	n/a
332.68	0.99	vicarious	cue	11	high_cue	n/a	n/a	n/a	n/a	n/a	n/a	n/a	task-social/cue/runtype-vicarious/sch/h053.png	n/a	n/a	n/a	n/a	n/a	n/a	n/a	n/a
335.6	1.23	vicarious	expectrating	11	high_cue	n/a	62.51	Strong	62.51	Strong	0.53	0.7	task-social/cue/runtype-vicarious/sch/h053.png	n/a	n/a	n/a	n/a	n/a	n/a	n/a	n/a
346.48	5.0	vicarious	stimulus	11	high_cue	low_stim	n/a	n/a	n/a	n/a	n/a	n/a	task-social/stim/runtype-vicarious/kz120t2aaunaff_L.mp4	n/a	n/a	n/a	n/a	n/a	n/a	n/a	n/a
358.49	1.12	vicarious	outcomerating	11	high_cue	low_stim	0.0	n/a	0.0	n/a	0.53	0.7	task-social/outcomerating/task-vicarious_scale.png	n/a	n/a	n/a	n/a	n/a	n/a	n/a	n/a
365.3	0.98	vicarious	cue	12	low_cue	n/a	n/a	n/a	n/a	n/a	n/a	n/a	task-social/cue/runtype-vicarious/scl/l012.png	n/a	n/a	n/a	n/a	n/a	n/a	n/a	n/a
367.2	2.02	vicarious	expectrating	12	low_cue	n/a	6.01	Weak	6.01	Weak	0.53	1.49	task-social/cue/runtype-vicarious/scl/l012.png	n/a	n/a	n/a	n/a	n/a	n/a	n/a	n/a
380.78	5.0	vicarious	stimulus	12	low_cue	med_stim	n/a	n/a	n/a	n/a	n/a	n/a	task-social/stim/runtype-vicarious/jy115t1aeaff_M.mp4	n/a	n/a	n/a	n/a	n/a	n/a	n/a	n/a
394.51	1.09	vicarious	outcomerating	12	low_cue	med_stim	58.79	Strong	58.79	Strong	0.53	1.49	task-social/outcomerating/task-vicarious_scale.png	n/a	n/a	n/a	n/a	n/a	n/a	n/a	n/a
