onset	duration	run_type	trial_type	trial_index	cue	stimulusintensity	rating_value	rating_glmslabel	rating_value_fillna	rating_glmslabel_fillna	rating_mouseonset	rating_mousedur	stim_file	pain_onset_ttl1	pain_onset_ttl2	pain_onset_ttl3	pain_onset_ttl4	pain_stimulus_delivery_success	cognitive_correct_response	cognitive_participant_response	cognitive_response_accuracy
11.0	0.98	vicarious	cue	1	low_cue	n/a	n/a	n/a	n/a	n/a	n/a	n/a	task-social/cue/runtype-vicarious/scl/l056.png	n/a	n/a	n/a	n/a	n/a	n/a	n/a	n/a
14.31	1.7	vicarious	expectrating	1	low_cue	n/a	0.0	n/a	0.0	n/a	0.52	1.19	task-social/cue/runtype-vicarious/scl/l056.png	n/a	n/a	n/a	n/a	n/a	n/a	n/a	n/a
32.48	5.0	vicarious	stimulus	1	low_cue	med_stim	n/a	n/a	n/a	n/a	n/a	n/a	task-social/stim/runtype-vicarious/gf097t1aiaff_M.mp4	n/a	n/a	n/a	n/a	n/a	n/a	n/a	n/a
45.31	2.02	vicarious	outcomerating	1	low_cue	med_stim	6.01	Weak	6.01	Weak	0.52	1.19	task-social/outcomerating/task-vicarious_scale.png	n/a	n/a	n/a	n/a	n/a	n/a	n/a	n/a
51.49	0.98	vicarious	cue	2	low_cue	n/a	n/a	n/a	n/a	n/a	n/a	n/a	task-social/cue/runtype-vicarious/scl/l027.png	n/a	n/a	n/a	n/a	n/a	n/a	n/a	n/a
53.69	2.06	vicarious	expectrating	2	low_cue	n/a	4.59	Weak	4.59	Weak	0.05	2.01	task-social/cue/runtype-vicarious/scl/l027.png	n/a	n/a	n/a	n/a	n/a	n/a	n/a	n/a
62.38	5.0	vicarious	stimulus	2	low_cue	high_stim	n/a	n/a	n/a	n/a	n/a	n/a	task-social/stim/runtype-vicarious/jk103t1aaaff_H.mp4	n/a	n/a	n/a	n/a	n/a	n/a	n/a	n/a
75.2	1.82	vicarious	outcomerating	2	low_cue	high_stim	27.6	Moderate	27.6	Moderate	0.05	2.01	task-social/outcomerating/task-vicarious_scale.png	n/a	n/a	n/a	n/a	n/a	n/a	n/a	n/a
82.99	0.99	vicarious	cue	3	high_cue	n/a	n/a	n/a	n/a	n/a	n/a	n/a	task-social/cue/runtype-vicarious/sch/h014.png	n/a	n/a	n/a	n/a	n/a	n/a	n/a	n/a
85.79	2.24	vicarious	expectrating	3	high_cue	n/a	47.6	Strong	47.6	Strong	0.47	1.78	task-social/cue/runtype-vicarious/sch/h014.png	n/a	n/a	n/a	n/a	n/a	n/a	n/a	n/a
92.48	5.0	vicarious	stimulus	3	high_cue	low_stim	n/a	n/a	n/a	n/a	n/a	n/a	task-social/stim/runtype-vicarious/mg101t2afunaff_L.mp4	n/a	n/a	n/a	n/a	n/a	n/a	n/a	n/a
100.4	2.8	vicarious	outcomerating	3	high_cue	low_stim	0.7	No sensation	0.7	No sensation	0.47	1.78	task-social/outcomerating/task-vicarious_scale.png	n/a	n/a	n/a	n/a	n/a	n/a	n/a	n/a
117.18	0.99	vicarious	cue	4	high_cue	n/a	n/a	n/a	n/a	n/a	n/a	n/a	task-social/cue/runtype-vicarious/sch/h034.png	n/a	n/a	n/a	n/a	n/a	n/a	n/a	n/a
119.29	2.22	vicarious	expectrating	4	high_cue	n/a	45.49	Strong	45.49	Strong	0.47	1.75	task-social/cue/runtype-vicarious/sch/h034.png	n/a	n/a	n/a	n/a	n/a	n/a	n/a	n/a
132.78	5.0	vicarious	stimulus	4	high_cue	med_stim	n/a	n/a	n/a	n/a	n/a	n/a	task-social/stim/runtype-vicarious/jk103t2aaunaff_M.mp4	n/a	n/a	n/a	n/a	n/a	n/a	n/a	n/a
145.6	2.84	vicarious	outcomerating	4	high_cue	med_stim	3.71	Weak	3.71	Weak	0.47	1.75	task-social/outcomerating/task-vicarious_scale.png	n/a	n/a	n/a	n/a	n/a	n/a	n/a	n/a
150.5	0.98	vicarious	cue	5	high_cue	n/a	n/a	n/a	n/a	n/a	n/a	n/a	task-social/cue/runtype-vicarious/sch/h010.png	n/a	n/a	n/a	n/a	n/a	n/a	n/a	n/a
152.7	1.97	vicarious	expectrating	5	high_cue	n/a	36.96	Strong	36.96	Strong	0.9	1.07	task-social/cue/runtype-vicarious/sch/h010.png	n/a	n/a	n/a	n/a	n/a	n/a	n/a	n/a
170.88	5.0	vicarious	stimulus	5	high_cue	high_stim	n/a	n/a	n/a	n/a	n/a	n/a	task-social/stim/runtype-vicarious/hs107t1afaff_H.mp4	n/a	n/a	n/a	n/a	n/a	n/a	n/a	n/a
179.59	1.71	vicarious	outcomerating	5	high_cue	high_stim	65.8	Very Strong	65.8	Very Strong	0.9	1.07	task-social/outcomerating/task-vicarious_scale.png	n/a	n/a	n/a	n/a	n/a	n/a	n/a	n/a
185.09	0.98	vicarious	cue	6	low_cue	n/a	n/a	n/a	n/a	n/a	n/a	n/a	task-social/cue/runtype-vicarious/scl/l003.png	n/a	n/a	n/a	n/a	n/a	n/a	n/a	n/a
187.09	3.02	vicarious	expectrating	6	low_cue	n/a	4.13	Weak	4.13	Weak	0.8	2.22	task-social/cue/runtype-vicarious/scl/l003.png	n/a	n/a	n/a	n/a	n/a	n/a	n/a	n/a
195.58	5.0	vicarious	stimulus	6	low_cue	high_stim	n/a	n/a	n/a	n/a	n/a	n/a	task-social/stim/runtype-vicarious/mg101t2aeaff_H.mp4	n/a	n/a	n/a	n/a	n/a	n/a	n/a	n/a
204.3	1.72	vicarious	outcomerating	6	low_cue	high_stim	46.14	Strong	46.14	Strong	0.8	2.22	task-social/outcomerating/task-vicarious_scale.png	n/a	n/a	n/a	n/a	n/a	n/a	n/a	n/a
213.19	0.99	vicarious	cue	7	low_cue	n/a	n/a	n/a	n/a	n/a	n/a	n/a	task-social/cue/runtype-vicarious/scl/l053.png	n/a	n/a	n/a	n/a	n/a	n/a	n/a	n/a
216.49	1.58	vicarious	expectrating	7	low_cue	n/a	4.82	Weak	4.82	Weak	0.75	0.83	task-social/cue/runtype-vicarious/scl/l053.png	n/a	n/a	n/a	n/a	n/a	n/a	n/a	n/a
224.98	5.0	vicarious	stimulus	7	low_cue	low_stim	n/a	n/a	n/a	n/a	n/a	n/a	task-social/stim/runtype-vicarious/gf097t2aiunaff_L.mp4	n/a	n/a	n/a	n/a	n/a	n/a	n/a	n/a
238.1	2.57	vicarious	outcomerating	7	low_cue	low_stim	3.23	Weak	3.23	Weak	0.75	0.83	task-social/outcomerating/task-vicarious_scale.png	n/a	n/a	n/a	n/a	n/a	n/a	n/a	n/a
244.28	1.0	vicarious	cue	8	high_cue	n/a	n/a	n/a	n/a	n/a	n/a	n/a	task-social/cue/runtype-vicarious/sch/h041.png	n/a	n/a	n/a	n/a	n/a	n/a	n/a	n/a
247.3	3.63	vicarious	expectrating	8	high_cue	n/a	41.9	Strong	41.9	Strong	0.67	2.97	task-social/cue/runtype-vicarious/sch/h041.png	n/a	n/a	n/a	n/a	n/a	n/a	n/a	n/a
253.98	5.0	vicarious	stimulus	8	high_cue	high_stim	n/a	n/a	n/a	n/a	n/a	n/a	task-social/stim/runtype-vicarious/th108t1aeaff_H.mp4	n/a	n/a	n/a	n/a	n/a	n/a	n/a	n/a
263.01	2.35	vicarious	outcomerating	8	high_cue	high_stim	93.22	Very Strong	93.22	Very Strong	0.67	2.97	task-social/outcomerating/task-vicarious_scale.png	n/a	n/a	n/a	n/a	n/a	n/a	n/a	n/a
270.39	0.99	vicarious	cue	9	high_cue	n/a	n/a	n/a	n/a	n/a	n/a	n/a	task-social/cue/runtype-vicarious/sch/h004.png	n/a	n/a	n/a	n/a	n/a	n/a	n/a	n/a
272.39	3.12	vicarious	expectrating	9	high_cue	n/a	63.13	Strong	63.13	Strong	0.65	2.47	task-social/cue/runtype-vicarious/sch/h004.png	n/a	n/a	n/a	n/a	n/a	n/a	n/a	n/a
281.68	5.0	vicarious	stimulus	9	high_cue	low_stim	n/a	n/a	n/a	n/a	n/a	n/a	task-social/stim/runtype-vicarious/hs107t2aeunaff_L.mp4	n/a	n/a	n/a	n/a	n/a	n/a	n/a	n/a
298.6	1.67	vicarious	outcomerating	9	high_cue	low_stim	2.07	Barely detectable	2.07	Barely detectable	0.65	2.47	task-social/outcomerating/task-vicarious_scale.png	n/a	n/a	n/a	n/a	n/a	n/a	n/a	n/a
304.09	0.99	vicarious	cue	10	low_cue	n/a	n/a	n/a	n/a	n/a	n/a	n/a	task-social/cue/runtype-vicarious/scl/l052.png	n/a	n/a	n/a	n/a	n/a	n/a	n/a	n/a
306.29	1.78	vicarious	expectrating	10	low_cue	n/a	11.77	Moderate	11.77	Moderate	0.5	1.28	task-social/cue/runtype-vicarious/scl/l052.png	n/a	n/a	n/a	n/a	n/a	n/a	n/a	n/a
313.58	5.0	vicarious	stimulus	10	low_cue	med_stim	n/a	n/a	n/a	n/a	n/a	n/a	task-social/stim/runtype-vicarious/nm106t2aaunaff_M.mp4	n/a	n/a	n/a	n/a	n/a	n/a	n/a	n/a
329.8	2.22	vicarious	outcomerating	10	low_cue	med_stim	18.87	Moderate	18.87	Moderate	0.5	1.28	task-social/outcomerating/task-vicarious_scale.png	n/a	n/a	n/a	n/a	n/a	n/a	n/a	n/a
338.08	0.99	vicarious	cue	11	low_cue	n/a	n/a	n/a	n/a	n/a	n/a	n/a	task-social/cue/runtype-vicarious/scl/l036.png	n/a	n/a	n/a	n/a	n/a	n/a	n/a	n/a
340.3	1.88	vicarious	expectrating	11	low_cue	n/a	7.38	Weak	7.38	Weak	0.52	1.37	task-social/cue/runtype-vicarious/scl/l036.png	n/a	n/a	n/a	n/a	n/a	n/a	n/a	n/a
352.18	5.0	vicarious	stimulus	11	low_cue	low_stim	n/a	n/a	n/a	n/a	n/a	n/a	task-social/stim/runtype-vicarious/jk103t1aaunaff_L.mp4	n/a	n/a	n/a	n/a	n/a	n/a	n/a	n/a
363.89	3.62	vicarious	outcomerating	11	low_cue	low_stim	1.15	Barely detectable	1.15	Barely detectable	0.52	1.37	task-social/outcomerating/task-vicarious_scale.png	n/a	n/a	n/a	n/a	n/a	n/a	n/a	n/a
376.1	0.98	vicarious	cue	12	high_cue	n/a	n/a	n/a	n/a	n/a	n/a	n/a	task-social/cue/runtype-vicarious/sch/h045.png	n/a	n/a	n/a	n/a	n/a	n/a	n/a	n/a
378.9	2.15	vicarious	expectrating	12	high_cue	n/a	80.09	Very Strong	80.09	Very Strong	0.65	1.5	task-social/cue/runtype-vicarious/sch/h045.png	n/a	n/a	n/a	n/a	n/a	n/a	n/a	n/a
387.38	5.0	vicarious	stimulus	12	high_cue	med_stim	n/a	n/a	n/a	n/a	n/a	n/a	task-social/stim/runtype-vicarious/th108t2aaunaff_M.mp4	n/a	n/a	n/a	n/a	n/a	n/a	n/a	n/a
395.01	2.02	vicarious	outcomerating	12	high_cue	med_stim	3.22	Weak	3.22	Weak	0.65	1.5	task-social/outcomerating/task-vicarious_scale.png	n/a	n/a	n/a	n/a	n/a	n/a	n/a	n/a
