onset	duration	run_type	trial_type	trial_index	cue	stimulusintensity	rating_value	rating_glmslabel	rating_value_fillna	rating_glmslabel_fillna	rating_mouseonset	rating_mousedur	stim_file	pain_onset_ttl1	pain_onset_ttl2	pain_onset_ttl3	pain_onset_ttl4	pain_stimulus_delivery_success	cognitive_correct_response	cognitive_participant_response	cognitive_response_accuracy
14.2	0.98	vicarious	cue	1	low_cue	n/a	n/a	n/a	n/a	n/a	n/a	n/a	task-social/cue/runtype-vicarious/scl/l054.png	n/a	n/a	n/a	n/a	n/a	n/a	n/a	n/a
16.0	1.82	vicarious	expectrating	1	low_cue	n/a	17.05	Moderate	17.05	Moderate	0.45	1.37	task-social/cue/runtype-vicarious/scl/l054.png	n/a	n/a	n/a	n/a	n/a	n/a	n/a	n/a
26.68	5.0	vicarious	stimulus	1	low_cue	low_stim	n/a	n/a	n/a	n/a	n/a	n/a	task-social/stim/runtype-vicarious/vw121t1aeaff_L.mp4	n/a	n/a	n/a	n/a	n/a	n/a	n/a	n/a
37.71	1.7	vicarious	outcomerating	1	low_cue	low_stim	23.66	Moderate	23.66	Moderate	0.45	1.37	task-social/outcomerating/task-vicarious_scale.png	n/a	n/a	n/a	n/a	n/a	n/a	n/a	n/a
43.8	0.98	vicarious	cue	2	low_cue	n/a	n/a	n/a	n/a	n/a	n/a	n/a	task-social/cue/runtype-vicarious/scl/l019.png	n/a	n/a	n/a	n/a	n/a	n/a	n/a	n/a
46.8	1.72	vicarious	expectrating	2	low_cue	n/a	18.14	Moderate	18.14	Moderate	0.35	1.37	task-social/cue/runtype-vicarious/scl/l019.png	n/a	n/a	n/a	n/a	n/a	n/a	n/a	n/a
57.48	5.0	vicarious	stimulus	2	low_cue	med_stim	n/a	n/a	n/a	n/a	n/a	n/a	task-social/stim/runtype-vicarious/kz120t2aeaff_M.mp4	n/a	n/a	n/a	n/a	n/a	n/a	n/a	n/a
69.31	1.87	vicarious	outcomerating	2	low_cue	med_stim	20.61	Moderate	20.61	Moderate	0.35	1.37	task-social/outcomerating/task-vicarious_scale.png	n/a	n/a	n/a	n/a	n/a	n/a	n/a	n/a
77.79	0.99	vicarious	cue	3	high_cue	n/a	n/a	n/a	n/a	n/a	n/a	n/a	task-social/cue/runtype-vicarious/sch/h040.png	n/a	n/a	n/a	n/a	n/a	n/a	n/a	n/a
80.79	1.43	vicarious	expectrating	3	high_cue	n/a	40.93	Strong	40.93	Strong	0.35	1.08	task-social/cue/runtype-vicarious/sch/h040.png	n/a	n/a	n/a	n/a	n/a	n/a	n/a	n/a
87.58	5.0	vicarious	stimulus	3	high_cue	med_stim	n/a	n/a	n/a	n/a	n/a	n/a	task-social/stim/runtype-vicarious/jh043t2aeunaff_M.mp4	n/a	n/a	n/a	n/a	n/a	n/a	n/a	n/a
97.4	1.5	vicarious	outcomerating	3	high_cue	med_stim	38.48	Strong	38.48	Strong	0.35	1.08	task-social/outcomerating/task-vicarious_scale.png	n/a	n/a	n/a	n/a	n/a	n/a	n/a	n/a
110.49	0.99	vicarious	cue	4	low_cue	n/a	n/a	n/a	n/a	n/a	n/a	n/a	task-social/cue/runtype-vicarious/scl/l028.png	n/a	n/a	n/a	n/a	n/a	n/a	n/a	n/a
112.39	2.3	vicarious	expectrating	4	low_cue	n/a	12.08	Moderate	12.08	Moderate	0.4	1.9	task-social/cue/runtype-vicarious/scl/l028.png	n/a	n/a	n/a	n/a	n/a	n/a	n/a	n/a
125.88	5.0	vicarious	stimulus	4	low_cue	high_stim	n/a	n/a	n/a	n/a	n/a	n/a	task-social/stim/runtype-vicarious/jy115t2aaaff_H.mp4	n/a	n/a	n/a	n/a	n/a	n/a	n/a	n/a
136.1	2.41	vicarious	outcomerating	4	low_cue	high_stim	29.74	Strong	29.74	Strong	0.4	1.9	task-social/outcomerating/task-vicarious_scale.png	n/a	n/a	n/a	n/a	n/a	n/a	n/a	n/a
150.69	0.99	vicarious	cue	5	high_cue	n/a	n/a	n/a	n/a	n/a	n/a	n/a	task-social/cue/runtype-vicarious/sch/h043.png	n/a	n/a	n/a	n/a	n/a	n/a	n/a	n/a
152.4	1.8	vicarious	expectrating	5	high_cue	n/a	55.01	Strong	55.01	Strong	0.63	1.17	task-social/cue/runtype-vicarious/sch/h043.png	n/a	n/a	n/a	n/a	n/a	n/a	n/a	n/a
160.88	5.0	vicarious	stimulus	5	high_cue	med_stim	n/a	n/a	n/a	n/a	n/a	n/a	task-social/stim/runtype-vicarious/gf097t1aiaff_M.mp4	n/a	n/a	n/a	n/a	n/a	n/a	n/a	n/a
173.79	3.89	vicarious	outcomerating	5	high_cue	med_stim	20.99	Moderate	20.99	Moderate	0.63	1.17	task-social/outcomerating/task-vicarious_scale.png	n/a	n/a	n/a	n/a	n/a	n/a	n/a	n/a
178.7	0.98	vicarious	cue	6	low_cue	n/a	n/a	n/a	n/a	n/a	n/a	n/a	task-social/cue/runtype-vicarious/scl/l042.png	n/a	n/a	n/a	n/a	n/a	n/a	n/a	n/a
181.8	1.99	vicarious	expectrating	6	low_cue	n/a	14.37	Moderate	14.37	Moderate	0.4	1.59	task-social/cue/runtype-vicarious/scl/l042.png	n/a	n/a	n/a	n/a	n/a	n/a	n/a	n/a
189.98	5.0	vicarious	stimulus	6	low_cue	high_stim	n/a	n/a	n/a	n/a	n/a	n/a	task-social/stim/runtype-vicarious/bn080t1afaff_H.mp4	n/a	n/a	n/a	n/a	n/a	n/a	n/a	n/a
200.1	3.2	vicarious	outcomerating	6	low_cue	high_stim	54.78	Strong	54.78	Strong	0.4	1.59	task-social/outcomerating/task-vicarious_scale.png	n/a	n/a	n/a	n/a	n/a	n/a	n/a	n/a
205.39	0.99	vicarious	cue	7	low_cue	n/a	n/a	n/a	n/a	n/a	n/a	n/a	task-social/cue/runtype-vicarious/scl/l008.png	n/a	n/a	n/a	n/a	n/a	n/a	n/a	n/a
208.39	1.87	vicarious	expectrating	7	low_cue	n/a	10.03	Moderate	10.03	Moderate	0.15	1.72	task-social/cue/runtype-vicarious/scl/l008.png	n/a	n/a	n/a	n/a	n/a	n/a	n/a	n/a
219.68	5.0	vicarious	stimulus	7	low_cue	low_stim	n/a	n/a	n/a	n/a	n/a	n/a	task-social/stim/runtype-vicarious/jh043t2aaunaff_L.mp4	n/a	n/a	n/a	n/a	n/a	n/a	n/a	n/a
232.6	2.52	vicarious	outcomerating	7	low_cue	low_stim	11.26	Moderate	11.26	Moderate	0.15	1.72	task-social/outcomerating/task-vicarious_scale.png	n/a	n/a	n/a	n/a	n/a	n/a	n/a	n/a
237.48	1.0	vicarious	cue	8	high_cue	n/a	n/a	n/a	n/a	n/a	n/a	n/a	task-social/cue/runtype-vicarious/sch/h011.png	n/a	n/a	n/a	n/a	n/a	n/a	n/a	n/a
239.2	2.18	vicarious	expectrating	8	high_cue	n/a	65.29	Very Strong	65.29	Very Strong	0.43	1.75	task-social/cue/runtype-vicarious/sch/h011.png	n/a	n/a	n/a	n/a	n/a	n/a	n/a	n/a
245.98	5.0	vicarious	stimulus	8	high_cue	high_stim	n/a	n/a	n/a	n/a	n/a	n/a	task-social/stim/runtype-vicarious/vw121t1aaaff_H.mp4	n/a	n/a	n/a	n/a	n/a	n/a	n/a	n/a
257.91	2.05	vicarious	outcomerating	8	high_cue	high_stim	25.52	Moderate	25.52	Moderate	0.43	1.75	task-social/outcomerating/task-vicarious_scale.png	n/a	n/a	n/a	n/a	n/a	n/a	n/a	n/a
265.8	0.98	vicarious	cue	9	high_cue	n/a	n/a	n/a	n/a	n/a	n/a	n/a	task-social/cue/runtype-vicarious/sch/h044.png	n/a	n/a	n/a	n/a	n/a	n/a	n/a	n/a
268.8	1.09	vicarious	expectrating	9	high_cue	n/a	31.64	Strong	31.64	Strong	0.32	0.77	task-social/cue/runtype-vicarious/sch/h044.png	n/a	n/a	n/a	n/a	n/a	n/a	n/a	n/a
276.98	5.0	vicarious	stimulus	9	high_cue	high_stim	n/a	n/a	n/a	n/a	n/a	n/a	task-social/stim/runtype-vicarious/jh043t2aeaff_H.mp4	n/a	n/a	n/a	n/a	n/a	n/a	n/a	n/a
288.0	1.53	vicarious	outcomerating	9	high_cue	high_stim	27.69	Moderate	27.69	Moderate	0.32	0.77	task-social/outcomerating/task-vicarious_scale.png	n/a	n/a	n/a	n/a	n/a	n/a	n/a	n/a
296.69	0.99	vicarious	cue	10	high_cue	n/a	n/a	n/a	n/a	n/a	n/a	n/a	task-social/cue/runtype-vicarious/sch/h052.png	n/a	n/a	n/a	n/a	n/a	n/a	n/a	n/a
299.49	1.7	vicarious	expectrating	10	high_cue	n/a	63.33	Strong	63.33	Strong	0.4	1.3	task-social/cue/runtype-vicarious/sch/h052.png	n/a	n/a	n/a	n/a	n/a	n/a	n/a	n/a
316.08	5.0	vicarious	stimulus	10	high_cue	low_stim	n/a	n/a	n/a	n/a	n/a	n/a	task-social/stim/runtype-vicarious/jy115t1aaunaff_L.mp4	n/a	n/a	n/a	n/a	n/a	n/a	n/a	n/a
327.0	1.6	vicarious	outcomerating	10	high_cue	low_stim	15.09	Moderate	15.09	Moderate	0.4	1.3	task-social/outcomerating/task-vicarious_scale.png	n/a	n/a	n/a	n/a	n/a	n/a	n/a	n/a
332.69	0.99	vicarious	cue	11	high_cue	n/a	n/a	n/a	n/a	n/a	n/a	n/a	task-social/cue/runtype-vicarious/sch/h053.png	n/a	n/a	n/a	n/a	n/a	n/a	n/a	n/a
335.59	1.92	vicarious	expectrating	11	high_cue	n/a	24.6	Moderate	24.6	Moderate	0.33	1.58	task-social/cue/runtype-vicarious/sch/h053.png	n/a	n/a	n/a	n/a	n/a	n/a	n/a	n/a
346.48	5.0	vicarious	stimulus	11	high_cue	low_stim	n/a	n/a	n/a	n/a	n/a	n/a	task-social/stim/runtype-vicarious/kz120t2aaunaff_L.mp4	n/a	n/a	n/a	n/a	n/a	n/a	n/a	n/a
358.5	3.42	vicarious	outcomerating	11	high_cue	low_stim	4.74	Weak	4.74	Weak	0.33	1.58	task-social/outcomerating/task-vicarious_scale.png	n/a	n/a	n/a	n/a	n/a	n/a	n/a	n/a
365.3	0.98	vicarious	cue	12	low_cue	n/a	n/a	n/a	n/a	n/a	n/a	n/a	task-social/cue/runtype-vicarious/scl/l012.png	n/a	n/a	n/a	n/a	n/a	n/a	n/a	n/a
367.2	3.8	vicarious	expectrating	12	low_cue	n/a	6.75	Weak	6.75	Weak	1.58	2.22	task-social/cue/runtype-vicarious/scl/l012.png	n/a	n/a	n/a	n/a	n/a	n/a	n/a	n/a
380.78	5.0	vicarious	stimulus	12	low_cue	med_stim	n/a	n/a	n/a	n/a	n/a	n/a	task-social/stim/runtype-vicarious/jy115t1aeaff_M.mp4	n/a	n/a	n/a	n/a	n/a	n/a	n/a	n/a
394.49	1.64	vicarious	outcomerating	12	low_cue	med_stim	61.27	Strong	61.27	Strong	1.58	2.22	task-social/outcomerating/task-vicarious_scale.png	n/a	n/a	n/a	n/a	n/a	n/a	n/a	n/a
