onset	duration	run_type	trial_type	trial_index	cue	stimulusintensity	rating_value	rating_glmslabel	rating_value_fillna	rating_glmslabel_fillna	rating_mouseonset	rating_mousedur	stim_file	pain_onset_ttl1	pain_onset_ttl2	pain_onset_ttl3	pain_onset_ttl4	pain_stimulus_delivery_success	cognitive_correct_response	cognitive_participant_response	cognitive_response_accuracy
9.1	0.98	pain	cue	1	high_cue	n/a	n/a	n/a	n/a	n/a	n/a	n/a	task-social/cue/runtype-pain/sch/h002.png	n/a	n/a	n/a	n/a	n/a	n/a	n/a	n/a
10.72	2.1	pain	expectrating	1	high_cue	n/a	30.37	Strong	30.37	Strong	0.62	1.48	task-social/cue/runtype-pain/sch/h002.png	n/a	n/a	n/a	n/a	n/a	n/a	n/a	n/a
20.65	12.82	pain	stimulus	1	high_cue	high_stim	n/a	n/a	n/a	n/a	n/a	n/a	n/a	20.65	24.66	29.66	33.47	success	n/a	n/a	n/a
32.59	2.39	pain	outcomerating	1	high_cue	high_stim	67.17	Very Strong	67.17	Very Strong	0.62	1.48	task-social/outcomerating/task-pain_scale.png	n/a	n/a	n/a	n/a	success	n/a	n/a	n/a
45.5	1.0	pain	cue	2	low_cue	n/a	n/a	n/a	n/a	n/a	n/a	n/a	task-social/cue/runtype-pain/scl/l040.png	n/a	n/a	n/a	n/a	n/a	n/a	n/a	n/a
47.4	1.82	pain	expectrating	2	low_cue	n/a	17.37	Moderate	17.37	Moderate	0.4	1.42	task-social/cue/runtype-pain/scl/l040.png	n/a	n/a	n/a	n/a	n/a	n/a	n/a	n/a
58.71	11.910000000000004	pain	stimulus	2	low_cue	low_stim	n/a	n/a	n/a	n/a	n/a	n/a	n/a	58.71	62.21	67.21	70.61	success	n/a	n/a	n/a
75.49	3.14	pain	outcomerating	2	low_cue	low_stim	28.53	Moderate	28.53	Moderate	0.4	1.42	task-social/outcomerating/task-pain_scale.png	n/a	n/a	n/a	n/a	success	n/a	n/a	n/a
87.2	1.0	pain	cue	3	high_cue	n/a	n/a	n/a	n/a	n/a	n/a	n/a	task-social/cue/runtype-pain/sch/h033.png	n/a	n/a	n/a	n/a	n/a	n/a	n/a	n/a
89.51	2.09	pain	expectrating	3	high_cue	n/a	81.71	Very Strong	81.71	Very Strong	0.45	1.64	task-social/cue/runtype-pain/sch/h033.png	n/a	n/a	n/a	n/a	n/a	n/a	n/a	n/a
102.53	11.909999999999997	pain	stimulus	3	high_cue	low_stim	n/a	n/a	n/a	n/a	n/a	n/a	n/a	102.53	106.03	111.03	114.43	success	n/a	n/a	n/a
118.39	2.33	pain	outcomerating	3	high_cue	low_stim	39.13	Strong	39.13	Strong	0.45	1.64	task-social/outcomerating/task-pain_scale.png	n/a	n/a	n/a	n/a	success	n/a	n/a	n/a
129.1	1.0	pain	cue	4	high_cue	n/a	n/a	n/a	n/a	n/a	n/a	n/a	task-social/cue/runtype-pain/sch/h020.png	n/a	n/a	n/a	n/a	n/a	n/a	n/a	n/a
131.0	1.55	pain	expectrating	4	high_cue	n/a	94.13	Very Strong	94.13	Very Strong	0.42	1.14	task-social/cue/runtype-pain/sch/h020.png	n/a	n/a	n/a	n/a	n/a	n/a	n/a	n/a
136.14	12.360000000000014	pain	stimulus	4	high_cue	med_stim	n/a	n/a	n/a	n/a	n/a	n/a	n/a	136.14	139.9	144.9	148.51	success	n/a	n/a	n/a
148.6	2.57	pain	outcomerating	4	high_cue	med_stim	59.28	Strong	59.28	Strong	0.42	1.14	task-social/outcomerating/task-pain_scale.png	n/a	n/a	n/a	n/a	success	n/a	n/a	n/a
155.39	1.0	pain	cue	5	low_cue	n/a	n/a	n/a	n/a	n/a	n/a	n/a	task-social/cue/runtype-pain/scl/l032.png	n/a	n/a	n/a	n/a	n/a	n/a	n/a	n/a
158.61	1.64	pain	expectrating	5	low_cue	n/a	25.13	Moderate	25.13	Moderate	0.43	1.21	task-social/cue/runtype-pain/scl/l032.png	n/a	n/a	n/a	n/a	n/a	n/a	n/a	n/a
168.57	11.900000000000006	pain	stimulus	5	low_cue	low_stim	n/a	n/a	n/a	n/a	n/a	n/a	n/a	168.57	172.07	177.07	180.47	success	n/a	n/a	n/a
184.3	2.52	pain	outcomerating	5	low_cue	low_stim	49.55	Strong	49.55	Strong	0.43	1.21	task-social/outcomerating/task-pain_scale.png	n/a	n/a	n/a	n/a	success	n/a	n/a	n/a
189.58	1.0	pain	cue	6	low_cue	n/a	n/a	n/a	n/a	n/a	n/a	n/a	task-social/cue/runtype-pain/scl/l031.png	n/a	n/a	n/a	n/a	n/a	n/a	n/a	n/a
192.3	1.58	pain	expectrating	6	low_cue	n/a	6.93	Weak	6.93	Weak	0.4	1.18	task-social/cue/runtype-pain/scl/l031.png	n/a	n/a	n/a	n/a	n/a	n/a	n/a	n/a
197.72	12.819999999999993	pain	stimulus	6	low_cue	high_stim	n/a	n/a	n/a	n/a	n/a	n/a	n/a	197.72	201.73	206.73	210.54	success	n/a	n/a	n/a
208.19	2.44	pain	outcomerating	6	low_cue	high_stim	61.48	Strong	61.48	Strong	0.4	1.18	task-social/outcomerating/task-pain_scale.png	n/a	n/a	n/a	n/a	success	n/a	n/a	n/a
214.09	1.0	pain	cue	7	low_cue	n/a	n/a	n/a	n/a	n/a	n/a	n/a	task-social/cue/runtype-pain/scl/l038.png	n/a	n/a	n/a	n/a	n/a	n/a	n/a	n/a
216.39	1.49	pain	expectrating	7	low_cue	n/a	13.07	Moderate	13.07	Moderate	0.42	1.07	task-social/cue/runtype-pain/scl/l038.png	n/a	n/a	n/a	n/a	n/a	n/a	n/a	n/a
222.12	12.359999999999985	pain	stimulus	7	low_cue	med_stim	n/a	n/a	n/a	n/a	n/a	n/a	n/a	222.12	225.88	230.88	234.49	success	n/a	n/a	n/a
232.7	2.85	pain	outcomerating	7	low_cue	med_stim	66.56	Very Strong	66.56	Very Strong	0.42	1.07	task-social/outcomerating/task-pain_scale.png	n/a	n/a	n/a	n/a	success	n/a	n/a	n/a
238.99	1.0	pain	cue	8	low_cue	n/a	n/a	n/a	n/a	n/a	n/a	n/a	task-social/cue/runtype-pain/scl/l044.png	n/a	n/a	n/a	n/a	n/a	n/a	n/a	n/a
241.4	1.42	pain	expectrating	8	low_cue	n/a	37.85	Strong	37.85	Strong	0.43	0.98	task-social/cue/runtype-pain/scl/l044.png	n/a	n/a	n/a	n/a	n/a	n/a	n/a	n/a
246.55	12.360000000000014	pain	stimulus	8	low_cue	med_stim	n/a	n/a	n/a	n/a	n/a	n/a	n/a	246.55	250.31	255.31	258.92	success	n/a	n/a	n/a
261.7	2.34	pain	outcomerating	8	low_cue	med_stim	71.64	Very Strong	71.64	Very Strong	0.43	0.98	task-social/outcomerating/task-pain_scale.png	n/a	n/a	n/a	n/a	success	n/a	n/a	n/a
268.0	1.0	pain	cue	9	low_cue	n/a	n/a	n/a	n/a	n/a	n/a	n/a	task-social/cue/runtype-pain/scl/l005.png	n/a	n/a	n/a	n/a	n/a	n/a	n/a	n/a
271.2	2.6	pain	expectrating	9	low_cue	n/a	43.53	Strong	43.53	Strong	0.48	2.12	task-social/cue/runtype-pain/scl/l005.png	n/a	n/a	n/a	n/a	n/a	n/a	n/a	n/a
279.73	12.819999999999993	pain	stimulus	9	low_cue	high_stim	n/a	n/a	n/a	n/a	n/a	n/a	n/a	279.73	283.74	288.74	292.55	success	n/a	n/a	n/a
294.89	1.98	pain	outcomerating	9	low_cue	high_stim	75.17	Very Strong	75.17	Very Strong	0.48	2.12	task-social/outcomerating/task-pain_scale.png	n/a	n/a	n/a	n/a	success	n/a	n/a	n/a
304.99	1.0	pain	cue	10	high_cue	n/a	n/a	n/a	n/a	n/a	n/a	n/a	task-social/cue/runtype-pain/sch/h001.png	n/a	n/a	n/a	n/a	n/a	n/a	n/a	n/a
308.1	2.9	pain	expectrating	10	high_cue	n/a	75.85	Very Strong	75.85	Very Strong	0.9	2.0	task-social/cue/runtype-pain/sch/h001.png	n/a	n/a	n/a	n/a	n/a	n/a	n/a	n/a
315.12	11.909999999999968	pain	stimulus	10	high_cue	low_stim	n/a	n/a	n/a	n/a	n/a	n/a	n/a	315.12	318.62	323.62	327.02	success	n/a	n/a	n/a
328.6	2.5	pain	outcomerating	10	high_cue	low_stim	60.65	Strong	60.65	Strong	0.9	2.0	task-social/outcomerating/task-pain_scale.png	n/a	n/a	n/a	n/a	success	n/a	n/a	n/a
339.19	1.0	pain	cue	11	high_cue	n/a	n/a	n/a	n/a	n/a	n/a	n/a	task-social/cue/runtype-pain/sch/h035.png	n/a	n/a	n/a	n/a	n/a	n/a	n/a	n/a
341.89	1.95	pain	expectrating	11	high_cue	n/a	82.16	Very Strong	82.16	Very Strong	0.47	1.48	task-social/cue/runtype-pain/sch/h035.png	n/a	n/a	n/a	n/a	n/a	n/a	n/a	n/a
350.41	12.359999999999957	pain	stimulus	11	high_cue	med_stim	n/a	n/a	n/a	n/a	n/a	n/a	n/a	350.41	354.17	359.17	362.78	success	n/a	n/a	n/a
364.9	2.77	pain	outcomerating	11	high_cue	med_stim	65.39	Very Strong	65.39	Very Strong	0.47	1.48	task-social/outcomerating/task-pain_scale.png	n/a	n/a	n/a	n/a	success	n/a	n/a	n/a
370.09	1.0	pain	cue	12	high_cue	n/a	n/a	n/a	n/a	n/a	n/a	n/a	task-social/cue/runtype-pain/sch/h056.png	n/a	n/a	n/a	n/a	n/a	n/a	n/a	n/a
372.8	1.7	pain	expectrating	12	high_cue	n/a	56.12	Strong	56.12	Strong	0.57	1.13	task-social/cue/runtype-pain/sch/h056.png	n/a	n/a	n/a	n/a	n/a	n/a	n/a	n/a
385.54	12.829999999999984	pain	stimulus	12	high_cue	high_stim	n/a	n/a	n/a	n/a	n/a	n/a	n/a	385.54	389.55	394.55	398.36	success	n/a	n/a	n/a
394.99	3.4	pain	outcomerating	12	high_cue	high_stim	70.76	Very Strong	70.76	Very Strong	0.57	1.13	task-social/outcomerating/task-pain_scale.png	n/a	n/a	n/a	n/a	success	n/a	n/a	n/a
