onset	duration	run_type	trial_type	trial_index	cue	stimulusintensity	rating_value	rating_glmslabel	rating_value_fillna	rating_glmslabel_fillna	rating_mouseonset	rating_mousedur	stim_file	pain_onset_ttl1	pain_onset_ttl2	pain_onset_ttl3	pain_onset_ttl4	pain_stimulus_delivery_success	cognitive_correct_response	cognitive_participant_response	cognitive_response_accuracy
5.4	0.99	vicarious	cue	1	high_cue	n/a	n/a	n/a	n/a	n/a	n/a	n/a	task-social/cue/runtype-vicarious/sch/h036.png	n/a	n/a	n/a	n/a	n/a	n/a	n/a	n/a
8.22	2.1	vicarious	expectrating	1	high_cue	n/a	72.95	Very Strong	72.95	Very Strong	0.57	1.53	task-social/cue/runtype-vicarious/sch/h036.png	n/a	n/a	n/a	n/a	n/a	n/a	n/a	n/a
18.99	5.0	vicarious	stimulus	1	high_cue	low_stim	n/a	n/a	n/a	n/a	n/a	n/a	task-social/stim/runtype-vicarious/bg096t2afunaff_L.mp4	n/a	n/a	n/a	n/a	n/a	n/a	n/a	n/a
30.31	3.81	vicarious	outcomerating	1	high_cue	low_stim	47.94	Strong	47.94	Strong	0.88	2.93	task-social/outcomerating/task-vicarious_scale.png	n/a	n/a	n/a	n/a	n/a	n/a	n/a	n/a
35.1	0.99	vicarious	cue	2	high_cue	n/a	n/a	n/a	n/a	n/a	n/a	n/a	task-social/cue/runtype-vicarious/sch/h011.png	n/a	n/a	n/a	n/a	n/a	n/a	n/a	n/a
37.5	2.57	vicarious	expectrating	2	high_cue	n/a	63.43	Strong	63.43	Strong	0.63	1.94	task-social/cue/runtype-vicarious/sch/h011.png	n/a	n/a	n/a	n/a	n/a	n/a	n/a	n/a
48.29	5.0	vicarious	stimulus	2	high_cue	high_stim	n/a	n/a	n/a	n/a	n/a	n/a	task-social/stim/runtype-vicarious/mg101t2aeaff_H.mp4	n/a	n/a	n/a	n/a	n/a	n/a	n/a	n/a
58.81	2.37	vicarious	outcomerating	2	high_cue	high_stim	90.95	Very Strong	90.95	Very Strong	0.67	1.7	task-social/outcomerating/task-vicarious_scale.png	n/a	n/a	n/a	n/a	n/a	n/a	n/a	n/a
68.71	0.98	vicarious	cue	3	high_cue	n/a	n/a	n/a	n/a	n/a	n/a	n/a	task-social/cue/runtype-vicarious/sch/h019.png	n/a	n/a	n/a	n/a	n/a	n/a	n/a	n/a
71.11	1.8	vicarious	expectrating	3	high_cue	n/a	25.91	Moderate	25.91	Moderate	0.58	1.22	task-social/cue/runtype-vicarious/sch/h019.png	n/a	n/a	n/a	n/a	n/a	n/a	n/a	n/a
81.39	5.0	vicarious	stimulus	3	high_cue	med_stim	n/a	n/a	n/a	n/a	n/a	n/a	task-social/stim/runtype-vicarious/ib109t1afaff_M.mp4	n/a	n/a	n/a	n/a	n/a	n/a	n/a	n/a
91.92	2.8	vicarious	outcomerating	3	high_cue	med_stim	4.84	Weak	4.84	Weak	0.73	2.07	task-social/outcomerating/task-vicarious_scale.png	n/a	n/a	n/a	n/a	n/a	n/a	n/a	n/a
96.6	0.99	vicarious	cue	4	low_cue	n/a	n/a	n/a	n/a	n/a	n/a	n/a	task-social/cue/runtype-vicarious/scl/l013.png	n/a	n/a	n/a	n/a	n/a	n/a	n/a	n/a
98.1	2.62	vicarious	expectrating	4	low_cue	n/a	12.26	Moderate	12.26	Moderate	0.8	1.82	task-social/cue/runtype-vicarious/scl/l013.png	n/a	n/a	n/a	n/a	n/a	n/a	n/a	n/a
105.69	5.0	vicarious	stimulus	4	low_cue	low_stim	n/a	n/a	n/a	n/a	n/a	n/a	task-social/stim/runtype-vicarious/ib109t1aiunaff_L.mp4	n/a	n/a	n/a	n/a	n/a	n/a	n/a	n/a
117.71	2.92	vicarious	outcomerating	4	low_cue	low_stim	7.8	Weak	7.8	Weak	0.68	2.23	task-social/outcomerating/task-vicarious_scale.png	n/a	n/a	n/a	n/a	n/a	n/a	n/a	n/a
124.0	0.99	vicarious	cue	5	high_cue	n/a	n/a	n/a	n/a	n/a	n/a	n/a	task-social/cue/runtype-vicarious/sch/h024.png	n/a	n/a	n/a	n/a	n/a	n/a	n/a	n/a
126.8	2.19	vicarious	expectrating	5	high_cue	n/a	31.71	Strong	31.71	Strong	0.62	1.57	task-social/cue/runtype-vicarious/sch/h024.png	n/a	n/a	n/a	n/a	n/a	n/a	n/a	n/a
134.39	5.0	vicarious	stimulus	5	high_cue	high_stim	n/a	n/a	n/a	n/a	n/a	n/a	task-social/stim/runtype-vicarious/tv095t1afaff_H.mp4	n/a	n/a	n/a	n/a	n/a	n/a	n/a	n/a
151.71	2.78	vicarious	outcomerating	5	high_cue	high_stim	33.56	Strong	33.56	Strong	1.27	1.52	task-social/outcomerating/task-vicarious_scale.png	n/a	n/a	n/a	n/a	n/a	n/a	n/a	n/a
167.3	0.99	vicarious	cue	6	high_cue	n/a	n/a	n/a	n/a	n/a	n/a	n/a	task-social/cue/runtype-vicarious/sch/h037.png	n/a	n/a	n/a	n/a	n/a	n/a	n/a	n/a
170.1	1.72	vicarious	expectrating	6	high_cue	n/a	30.37	Strong	30.37	Strong	0.5	1.22	task-social/cue/runtype-vicarious/sch/h037.png	n/a	n/a	n/a	n/a	n/a	n/a	n/a	n/a
180.49	5.0	vicarious	stimulus	6	high_cue	low_stim	n/a	n/a	n/a	n/a	n/a	n/a	task-social/stim/runtype-vicarious/bm049t1afaff_L.mp4	n/a	n/a	n/a	n/a	n/a	n/a	n/a	n/a
192.91	2.63	vicarious	outcomerating	6	high_cue	low_stim	7.13	Weak	7.13	Weak	0.8	1.83	task-social/outcomerating/task-vicarious_scale.png	n/a	n/a	n/a	n/a	n/a	n/a	n/a	n/a
203.29	1.0	vicarious	cue	7	low_cue	n/a	n/a	n/a	n/a	n/a	n/a	n/a	task-social/cue/runtype-vicarious/scl/l056.png	n/a	n/a	n/a	n/a	n/a	n/a	n/a	n/a
205.21	2.63	vicarious	expectrating	7	low_cue	n/a	5.34	Weak	5.34	Weak	0.67	1.97	task-social/cue/runtype-vicarious/scl/l056.png	n/a	n/a	n/a	n/a	n/a	n/a	n/a	n/a
220.59	5.0	vicarious	stimulus	7	low_cue	med_stim	n/a	n/a	n/a	n/a	n/a	n/a	task-social/stim/runtype-vicarious/mg101t2aeunaff_M.mp4	n/a	n/a	n/a	n/a	n/a	n/a	n/a	n/a
228.7	3.07	vicarious	outcomerating	7	low_cue	med_stim	25.74	Moderate	25.74	Moderate	0.6	2.47	task-social/outcomerating/task-vicarious_scale.png	n/a	n/a	n/a	n/a	n/a	n/a	n/a	n/a
238.71	0.98	vicarious	cue	8	low_cue	n/a	n/a	n/a	n/a	n/a	n/a	n/a	task-social/cue/runtype-vicarious/scl/l040.png	n/a	n/a	n/a	n/a	n/a	n/a	n/a	n/a
241.91	1.58	vicarious	expectrating	8	low_cue	n/a	4.17	Weak	4.17	Weak	0.47	1.12	task-social/cue/runtype-vicarious/scl/l040.png	n/a	n/a	n/a	n/a	n/a	n/a	n/a	n/a
256.89	5.0	vicarious	stimulus	8	low_cue	high_stim	n/a	n/a	n/a	n/a	n/a	n/a	task-social/stim/runtype-vicarious/bg096t1aeaff_H.mp4	n/a	n/a	n/a	n/a	n/a	n/a	n/a	n/a
267.82	2.7	vicarious	outcomerating	8	low_cue	high_stim	138.58	Strongest sensation of any kind	138.58	Strongest sensation of any kind	0.92	1.79	task-social/outcomerating/task-vicarious_scale.png	n/a	n/a	n/a	n/a	n/a	n/a	n/a	n/a
276.9	0.98	vicarious	cue	9	low_cue	n/a	n/a	n/a	n/a	n/a	n/a	n/a	task-social/cue/runtype-vicarious/scl/l041.png	n/a	n/a	n/a	n/a	n/a	n/a	n/a	n/a
280.11	1.97	vicarious	expectrating	9	low_cue	n/a	0.0	n/a	0.0	n/a	0.45	1.52	task-social/cue/runtype-vicarious/scl/l041.png	n/a	n/a	n/a	n/a	n/a	n/a	n/a	n/a
290.49	5.0	vicarious	stimulus	9	low_cue	med_stim	n/a	n/a	n/a	n/a	n/a	n/a	task-social/stim/runtype-vicarious/dr052t2aaaff_M.mp4	n/a	n/a	n/a	n/a	n/a	n/a	n/a	n/a
305.72	3.89	vicarious	outcomerating	9	low_cue	med_stim	17.26	Moderate	17.26	Moderate	1.13	2.76	task-social/outcomerating/task-vicarious_scale.png	n/a	n/a	n/a	n/a	n/a	n/a	n/a	n/a
312.3	0.99	vicarious	cue	10	low_cue	n/a	n/a	n/a	n/a	n/a	n/a	n/a	task-social/cue/runtype-vicarious/scl/l003.png	n/a	n/a	n/a	n/a	n/a	n/a	n/a	n/a
315.1	3.92	vicarious	expectrating	10	low_cue	n/a	1.61	Barely detectable	1.61	Barely detectable	3.02	0.9	task-social/cue/runtype-vicarious/scl/l003.png	n/a	n/a	n/a	n/a	n/a	n/a	n/a	n/a
325.39	5.0	vicarious	stimulus	10	low_cue	low_stim	n/a	n/a	n/a	n/a	n/a	n/a	task-social/stim/runtype-vicarious/bn080t1afunaff_L.mp4	n/a	n/a	n/a	n/a	n/a	n/a	n/a	n/a
335.61	2.08	vicarious	outcomerating	10	low_cue	low_stim	0.23	No sensation	0.23	No sensation	0.82	1.27	task-social/outcomerating/task-vicarious_scale.png	n/a	n/a	n/a	n/a	n/a	n/a	n/a	n/a
347.4	0.99	vicarious	cue	11	high_cue	n/a	n/a	n/a	n/a	n/a	n/a	n/a	task-social/cue/runtype-vicarious/sch/h020.png	n/a	n/a	n/a	n/a	n/a	n/a	n/a	n/a
349.1	2.47	vicarious	expectrating	11	high_cue	n/a	34.15	Strong	34.15	Strong	0.68	1.79	task-social/cue/runtype-vicarious/sch/h020.png	n/a	n/a	n/a	n/a	n/a	n/a	n/a	n/a
356.69	5.0	vicarious	stimulus	11	high_cue	med_stim	n/a	n/a	n/a	n/a	n/a	n/a	task-social/stim/runtype-vicarious/tv095t2afaff_M.mp4	n/a	n/a	n/a	n/a	n/a	n/a	n/a	n/a
366.9	1.78	vicarious	outcomerating	11	high_cue	med_stim	47.76	Strong	47.76	Strong	0.45	1.33	task-social/outcomerating/task-vicarious_scale.png	n/a	n/a	n/a	n/a	n/a	n/a	n/a	n/a
373.21	0.98	vicarious	cue	12	low_cue	n/a	n/a	n/a	n/a	n/a	n/a	n/a	task-social/cue/runtype-vicarious/scl/l009.png	n/a	n/a	n/a	n/a	n/a	n/a	n/a	n/a
375.71	2.37	vicarious	expectrating	12	low_cue	n/a	12.58	Moderate	12.58	Moderate	0.48	1.88	task-social/cue/runtype-vicarious/scl/l009.png	n/a	n/a	n/a	n/a	n/a	n/a	n/a	n/a
385.59	5.0	vicarious	stimulus	12	low_cue	high_stim	n/a	n/a	n/a	n/a	n/a	n/a	task-social/stim/runtype-vicarious/bm049t2aeunaff_H.mp4	n/a	n/a	n/a	n/a	n/a	n/a	n/a	n/a
394.82	3.09	vicarious	outcomerating	12	low_cue	high_stim	8.96	Weak	8.96	Weak	1.08	2.01	task-social/outcomerating/task-vicarious_scale.png	n/a	n/a	n/a	n/a	n/a	n/a	n/a	n/a
