onset	duration	trial_type	response_value	stim_file
2.767	105.978	video	n/a	task-alignvideo/ses-03_run-03_order-01_content-normativeprosocial2.mp4
113.297	n/a	rating_relevance	n/a	task-alignvideo/ses-03_run-03_order-01_content-normativeprosocial2.mp4
118.332	n/a	rating_happy	n/a	task-alignvideo/ses-03_run-03_order-01_content-normativeprosocial2.mp4
123.35	n/a	rating_sad	n/a	task-alignvideo/ses-03_run-03_order-01_content-normativeprosocial2.mp4
128.385	n/a	rating_afraid	n/a	task-alignvideo/ses-03_run-03_order-01_content-normativeprosocial2.mp4
133.421	n/a	rating_disgusted	n/a	task-alignvideo/ses-03_run-03_order-01_content-normativeprosocial2.mp4
138.456	n/a	rating_warm	n/a	task-alignvideo/ses-03_run-03_order-01_content-normativeprosocial2.mp4
143.491	n/a	rating_engaged	n/a	task-alignvideo/ses-03_run-03_order-01_content-normativeprosocial2.mp4
144.023	74.815	video	n/a	task-alignvideo/ses-03_run-03_order-02_content-normativeprosocial1.mp4
223.388	n/a	rating_relevance	n/a	task-alignvideo/ses-03_run-03_order-02_content-normativeprosocial1.mp4
228.423	n/a	rating_happy	n/a	task-alignvideo/ses-03_run-03_order-02_content-normativeprosocial1.mp4
233.458	n/a	rating_sad	n/a	task-alignvideo/ses-03_run-03_order-02_content-normativeprosocial1.mp4
238.477	n/a	rating_afraid	n/a	task-alignvideo/ses-03_run-03_order-02_content-normativeprosocial1.mp4
243.512	n/a	rating_disgusted	n/a	task-alignvideo/ses-03_run-03_order-02_content-normativeprosocial1.mp4
248.53	n/a	rating_warm	n/a	task-alignvideo/ses-03_run-03_order-02_content-normativeprosocial1.mp4
253.566	n/a	rating_engaged	n/a	task-alignvideo/ses-03_run-03_order-02_content-normativeprosocial1.mp4
254.096	196.926	video	n/a	task-alignvideo/ses-03_run-03_order-03_content-stardust.mp4
455.574	n/a	rating_relevance	n/a	task-alignvideo/ses-03_run-03_order-03_content-stardust.mp4
460.609	n/a	rating_happy	n/a	task-alignvideo/ses-03_run-03_order-03_content-stardust.mp4
465.628	n/a	rating_sad	n/a	task-alignvideo/ses-03_run-03_order-03_content-stardust.mp4
470.663	n/a	rating_afraid	n/a	task-alignvideo/ses-03_run-03_order-03_content-stardust.mp4
475.682	n/a	rating_disgusted	n/a	task-alignvideo/ses-03_run-03_order-03_content-stardust.mp4
480.7	n/a	rating_warm	n/a	task-alignvideo/ses-03_run-03_order-03_content-stardust.mp4
485.735	n/a	rating_engaged	n/a	task-alignvideo/ses-03_run-03_order-03_content-stardust.mp4
