onset	duration	run_type	trial_type	trial_index	cue	stimulusintensity	rating_value	rating_glmslabel	rating_value_fillna	rating_glmslabel_fillna	rating_mouseonset	rating_mousedur	stim_file	pain_onset_ttl1	pain_onset_ttl2	pain_onset_ttl3	pain_onset_ttl4	pain_stimulus_delivery_success	cognitive_correct_response	cognitive_participant_response	cognitive_response_accuracy
5.69	0.99	cognitive	cue	1	low_cue	n/a	n/a	n/a	n/a	n/a	n/a	n/a	task-social/cue/runtype-cognitive/scl/l015.png	n/a	n/a	n/a	n/a	n/a	n/a	n/a	n/a
7.7	1.58	cognitive	expectrating	1	low_cue	n/a	8.55	Weak	8.55	Weak	0.4	1.18	task-social/cue/runtype-cognitive/scl/l015.png	n/a	n/a	n/a	n/a	n/a	n/a	n/a	n/a
15.69	5.0	cognitive	stimulus	1	low_cue	med_stim	n/a	n/a	n/a	n/a	n/a	n/a	task-social/stim/runtype-cognitive/35_100_R.jpg	n/a	n/a	n/a	n/a	n/a	diff	diff	True
27.89	2.12	cognitive	outcomerating	1	low_cue	med_stim	6.01	Weak	6.01	Weak	0.4	1.18	task-social/outcomerating/task-cognitive_scale.png	n/a	n/a	n/a	n/a	n/a	n/a	n/a	n/a
33.4	0.98	cognitive	cue	2	low_cue	n/a	n/a	n/a	n/a	n/a	n/a	n/a	task-social/cue/runtype-cognitive/scl/l017.png	n/a	n/a	n/a	n/a	n/a	n/a	n/a	n/a
35.7	2.18	cognitive	expectrating	2	low_cue	n/a	5.05	Weak	5.05	Weak	0.47	1.72	task-social/cue/runtype-cognitive/scl/l017.png	n/a	n/a	n/a	n/a	n/a	n/a	n/a	n/a
46.5	5.0	cognitive	stimulus	2	low_cue	low_stim	n/a	n/a	n/a	n/a	n/a	n/a	task-social/stim/runtype-cognitive/27_50.jpg	n/a	n/a	n/a	n/a	n/a	same	same	True
55.39	3.36	cognitive	outcomerating	2	low_cue	low_stim	6.49	Weak	6.49	Weak	0.47	1.72	task-social/outcomerating/task-cognitive_scale.png	n/a	n/a	n/a	n/a	n/a	n/a	n/a	n/a
71.09	0.99	cognitive	cue	3	low_cue	n/a	n/a	n/a	n/a	n/a	n/a	n/a	task-social/cue/runtype-cognitive/scl/l041.png	n/a	n/a	n/a	n/a	n/a	n/a	n/a	n/a
73.39	2.25	cognitive	expectrating	3	low_cue	n/a	12.86	Moderate	12.86	Moderate	0.6	1.65	task-social/cue/runtype-cognitive/scl/l041.png	n/a	n/a	n/a	n/a	n/a	n/a	n/a	n/a
84.2	5.0	cognitive	stimulus	3	low_cue	high_stim	n/a	n/a	n/a	n/a	n/a	n/a	task-social/stim/runtype-cognitive/27_150.jpg	n/a	n/a	n/a	n/a	n/a	same	same	True
93.3	2.8	cognitive	outcomerating	3	low_cue	high_stim	47.96	Strong	47.96	Strong	0.6	1.65	task-social/outcomerating/task-cognitive_scale.png	n/a	n/a	n/a	n/a	n/a	n/a	n/a	n/a
100.69	0.99	cognitive	cue	4	high_cue	n/a	n/a	n/a	n/a	n/a	n/a	n/a	task-social/cue/runtype-cognitive/sch/h051.png	n/a	n/a	n/a	n/a	n/a	n/a	n/a	n/a
103.49	2.71	cognitive	expectrating	4	high_cue	n/a	46.31	Strong	46.31	Strong	0.45	2.26	task-social/cue/runtype-cognitive/sch/h051.png	n/a	n/a	n/a	n/a	n/a	n/a	n/a	n/a
114.79	5.0	cognitive	stimulus	4	high_cue	low_stim	n/a	n/a	n/a	n/a	n/a	n/a	task-social/stim/runtype-cognitive/18_50_R.jpg	n/a	n/a	n/a	n/a	n/a	diff	diff	True
124.7	3.22	cognitive	outcomerating	4	high_cue	low_stim	2.77	Barely-detectable	2.77	Barely-detectable	0.45	2.26	task-social/outcomerating/task-cognitive_scale.png	n/a	n/a	n/a	n/a	n/a	n/a	n/a	n/a
135.78	0.99	cognitive	cue	5	high_cue	n/a	n/a	n/a	n/a	n/a	n/a	n/a	task-social/cue/runtype-cognitive/sch/h027.png	n/a	n/a	n/a	n/a	n/a	n/a	n/a	n/a
137.5	2.43	cognitive	expectrating	5	high_cue	n/a	41.56	Strong	41.56	Strong	0.57	1.87	task-social/cue/runtype-cognitive/sch/h027.png	n/a	n/a	n/a	n/a	n/a	n/a	n/a	n/a
149.79	5.0	cognitive	stimulus	5	high_cue	med_stim	n/a	n/a	n/a	n/a	n/a	n/a	task-social/stim/runtype-cognitive/43_100_R.jpg	n/a	n/a	n/a	n/a	n/a	diff	diff	True
159.69	3.74	cognitive	outcomerating	5	high_cue	med_stim	5.05	Weak	5.05	Weak	0.57	1.87	task-social/outcomerating/task-cognitive_scale.png	n/a	n/a	n/a	n/a	n/a	n/a	n/a	n/a
170.6	0.98	cognitive	cue	6	high_cue	n/a	n/a	n/a	n/a	n/a	n/a	n/a	task-social/cue/runtype-cognitive/sch/h052.png	n/a	n/a	n/a	n/a	n/a	n/a	n/a	n/a
172.4	2.7	cognitive	expectrating	6	high_cue	n/a	34.9	Strong	34.9	Strong	0.05	2.65	task-social/cue/runtype-cognitive/sch/h052.png	n/a	n/a	n/a	n/a	n/a	n/a	n/a	n/a
180.98	5.0	cognitive	stimulus	6	high_cue	high_stim	n/a	n/a	n/a	n/a	n/a	n/a	task-social/stim/runtype-cognitive/44_150.jpg	n/a	n/a	n/a	n/a	n/a	same	same	True
190.89	3.08	cognitive	outcomerating	6	high_cue	high_stim	16.04	Moderate	16.04	Moderate	0.05	2.65	task-social/outcomerating/task-cognitive_scale.png	n/a	n/a	n/a	n/a	n/a	n/a	n/a	n/a
196.89	0.99	cognitive	cue	7	high_cue	n/a	n/a	n/a	n/a	n/a	n/a	n/a	task-social/cue/runtype-cognitive/sch/h030.png	n/a	n/a	n/a	n/a	n/a	n/a	n/a	n/a
199.89	2.37	cognitive	expectrating	7	high_cue	n/a	15.32	Moderate	15.32	Moderate	1.07	1.31	task-social/cue/runtype-cognitive/sch/h030.png	n/a	n/a	n/a	n/a	n/a	n/a	n/a	n/a
212.2	5.0	cognitive	stimulus	7	high_cue	low_stim	n/a	n/a	n/a	n/a	n/a	n/a	task-social/stim/runtype-cognitive/10_50_R.jpg	n/a	n/a	n/a	n/a	n/a	diff	diff	True
230.99	n/a	cognitive	outcomerating	7	high_cue	low_stim	n/a	n/a	14.52	Moderate	1.07	1.31	task-social/outcomerating/task-cognitive_scale.png	n/a	n/a	n/a	n/a	n/a	n/a	n/a	n/a
236.99	0.99	cognitive	cue	8	low_cue	n/a	n/a	n/a	n/a	n/a	n/a	n/a	task-social/cue/runtype-cognitive/scl/l026.png	n/a	n/a	n/a	n/a	n/a	n/a	n/a	n/a
239.71	2.12	cognitive	expectrating	8	low_cue	n/a	6.67	Weak	6.67	Weak	0.72	1.4	task-social/cue/runtype-cognitive/scl/l026.png	n/a	n/a	n/a	n/a	n/a	n/a	n/a	n/a
251.29	5.0	cognitive	stimulus	8	low_cue	high_stim	n/a	n/a	n/a	n/a	n/a	n/a	task-social/stim/runtype-cognitive/38_150_R.jpg	n/a	n/a	n/a	n/a	n/a	diff	diff	True
259.3	2.47	cognitive	outcomerating	8	low_cue	high_stim	2.77	Barely-detectable	2.77	Barely-detectable	0.72	1.4	task-social/outcomerating/task-cognitive_scale.png	n/a	n/a	n/a	n/a	n/a	n/a	n/a	n/a
268.28	0.99	cognitive	cue	9	high_cue	n/a	n/a	n/a	n/a	n/a	n/a	n/a	task-social/cue/runtype-cognitive/sch/h029.png	n/a	n/a	n/a	n/a	n/a	n/a	n/a	n/a
271.3	1.93	cognitive	expectrating	9	high_cue	n/a	24.87	Moderate	24.87	Moderate	0.4	1.53	task-social/cue/runtype-cognitive/sch/h029.png	n/a	n/a	n/a	n/a	n/a	n/a	n/a	n/a
279.19	5.0	cognitive	stimulus	9	high_cue	high_stim	n/a	n/a	n/a	n/a	n/a	n/a	task-social/stim/runtype-cognitive/42_150.jpg	n/a	n/a	n/a	n/a	n/a	same	same	True
295.69	3.39	cognitive	outcomerating	9	high_cue	high_stim	37.98	Strong	37.98	Strong	0.4	1.53	task-social/outcomerating/task-cognitive_scale.png	n/a	n/a	n/a	n/a	n/a	n/a	n/a	n/a
301.9	0.98	cognitive	cue	10	low_cue	n/a	n/a	n/a	n/a	n/a	n/a	n/a	task-social/cue/runtype-cognitive/scl/l024.png	n/a	n/a	n/a	n/a	n/a	n/a	n/a	n/a
304.2	1.65	cognitive	expectrating	10	low_cue	n/a	0.98	No-sensation	0.98	No-sensation	0.42	1.23	task-social/cue/runtype-cognitive/scl/l024.png	n/a	n/a	n/a	n/a	n/a	n/a	n/a	n/a
316.5	5.0	cognitive	stimulus	10	low_cue	med_stim	n/a	n/a	n/a	n/a	n/a	n/a	task-social/stim/runtype-cognitive/47_100.jpg	n/a	n/a	n/a	n/a	n/a	same	same	True
327.69	3.19	cognitive	outcomerating	10	low_cue	med_stim	15.82	Moderate	15.82	Moderate	0.42	1.23	task-social/outcomerating/task-cognitive_scale.png	n/a	n/a	n/a	n/a	n/a	n/a	n/a	n/a
333.89	0.99	cognitive	cue	11	high_cue	n/a	n/a	n/a	n/a	n/a	n/a	n/a	task-social/cue/runtype-cognitive/sch/h036.png	n/a	n/a	n/a	n/a	n/a	n/a	n/a	n/a
336.91	3.34	cognitive	expectrating	11	high_cue	n/a	26.87	Moderate	26.87	Moderate	0.35	2.99	task-social/cue/runtype-cognitive/sch/h036.png	n/a	n/a	n/a	n/a	n/a	n/a	n/a	n/a
349.2	5.0	cognitive	stimulus	11	high_cue	med_stim	n/a	n/a	n/a	n/a	n/a	n/a	task-social/stim/runtype-cognitive/18_100_R.jpg	n/a	n/a	n/a	n/a	n/a	diff	diff	True
361.6	2.9	cognitive	outcomerating	11	high_cue	med_stim	17.92	Moderate	17.92	Moderate	0.35	2.99	task-social/outcomerating/task-cognitive_scale.png	n/a	n/a	n/a	n/a	n/a	n/a	n/a	n/a
372.49	0.99	cognitive	cue	12	low_cue	n/a	n/a	n/a	n/a	n/a	n/a	n/a	task-social/cue/runtype-cognitive/scl/l010.png	n/a	n/a	n/a	n/a	n/a	n/a	n/a	n/a
375.49	1.86	cognitive	expectrating	12	low_cue	n/a	13.19	Moderate	13.19	Moderate	0.43	1.42	task-social/cue/runtype-cognitive/scl/l010.png	n/a	n/a	n/a	n/a	n/a	n/a	n/a	n/a
383.39	5.0	cognitive	stimulus	12	low_cue	low_stim	n/a	n/a	n/a	n/a	n/a	n/a	task-social/stim/runtype-cognitive/35_50_R.jpg	n/a	n/a	n/a	n/a	n/a	diff	diff	True
394.7	n/a	cognitive	outcomerating	12	low_cue	low_stim	n/a	n/a	10.53	Moderate	0.43	1.42	task-social/outcomerating/task-cognitive_scale.png	n/a	n/a	n/a	n/a	n/a	n/a	n/a	n/a
