onset	duration	run_type	trial_type	trial_index	cue	stimulusintensity	rating_value	rating_glmslabel	rating_value_fillna	rating_glmslabel_fillna	rating_mouseonset	rating_mousedur	stim_file	pain_onset_ttl1	pain_onset_ttl2	pain_onset_ttl3	pain_onset_ttl4	pain_stimulus_delivery_success	cognitive_correct_response	cognitive_participant_response	cognitive_response_accuracy
14.19	1.0	pain	cue	1	low_cue	n/a	n/a	n/a	n/a	n/a	n/a	n/a	task-social/cue/runtype-pain/scl/l034.png	n/a	n/a	n/a	n/a	n/a	n/a	n/a	n/a
16.02	1.55	pain	expectrating	1	low_cue	n/a	4.01	Weak	4.01	Weak	0.33	1.22	task-social/cue/runtype-pain/scl/l034.png	n/a	n/a	n/a	n/a	n/a	n/a	n/a	n/a
20.66	11.91	pain	stimulus	1	low_cue	low_stim	n/a	n/a	n/a	n/a	n/a	n/a	n/a	20.66	24.16	29.16	32.56	success	n/a	n/a	n/a
35.3	1.95	pain	outcomerating	1	low_cue	low_stim	30.61	Strong	30.61	Strong	0.33	1.22	task-social/outcomerating/task-pain_scale.png	n/a	n/a	n/a	n/a	success	n/a	n/a	n/a
40.6	1.0	pain	cue	2	low_cue	n/a	n/a	n/a	n/a	n/a	n/a	n/a	task-social/cue/runtype-pain/scl/l003.png	n/a	n/a	n/a	n/a	n/a	n/a	n/a	n/a
43.6	1.13	pain	expectrating	2	low_cue	n/a	30.69	Strong	30.69	Strong	0.33	0.8	task-social/cue/runtype-pain/scl/l003.png	n/a	n/a	n/a	n/a	n/a	n/a	n/a	n/a
48.23	12.370000000000005	pain	stimulus	2	low_cue	med_stim	n/a	n/a	n/a	n/a	n/a	n/a	n/a	48.23	51.99	56.99	60.6	success	n/a	n/a	n/a
63.69	2.96	pain	outcomerating	2	low_cue	med_stim	40.28	Strong	40.28	Strong	0.33	0.8	task-social/outcomerating/task-pain_scale.png	n/a	n/a	n/a	n/a	success	n/a	n/a	n/a
72.2	1.0	pain	cue	3	high_cue	n/a	n/a	n/a	n/a	n/a	n/a	n/a	task-social/cue/runtype-pain/sch/h040.png	n/a	n/a	n/a	n/a	n/a	n/a	n/a	n/a
75.21	2.02	pain	expectrating	3	high_cue	n/a	94.59	Very Strong	94.59	Very Strong	0.28	1.74	task-social/cue/runtype-pain/sch/h040.png	n/a	n/a	n/a	n/a	n/a	n/a	n/a	n/a
84.14	12.370000000000005	pain	stimulus	3	high_cue	med_stim	n/a	n/a	n/a	n/a	n/a	n/a	n/a	84.14	87.9	92.9	96.51	success	n/a	n/a	n/a
95.91	2.5	pain	outcomerating	3	high_cue	med_stim	37.33	Strong	37.33	Strong	0.28	1.74	task-social/outcomerating/task-pain_scale.png	n/a	n/a	n/a	n/a	success	n/a	n/a	n/a
108.99	1.0	pain	cue	4	low_cue	n/a	n/a	n/a	n/a	n/a	n/a	n/a	task-social/cue/runtype-pain/scl/l049.png	n/a	n/a	n/a	n/a	n/a	n/a	n/a	n/a
110.9	1.66	pain	expectrating	4	low_cue	n/a	22.44	Moderate	22.44	Moderate	0.43	1.23	task-social/cue/runtype-pain/scl/l049.png	n/a	n/a	n/a	n/a	n/a	n/a	n/a	n/a
118.31	12.819999999999993	pain	stimulus	4	low_cue	high_stim	n/a	n/a	n/a	n/a	n/a	n/a	n/a	118.31	122.32	127.32	131.13	success	n/a	n/a	n/a
130.5	2.6	pain	outcomerating	4	low_cue	high_stim	63.02	Strong	63.02	Strong	0.43	1.23	task-social/outcomerating/task-pain_scale.png	n/a	n/a	n/a	n/a	success	n/a	n/a	n/a
145.09	1.0	pain	cue	5	high_cue	n/a	n/a	n/a	n/a	n/a	n/a	n/a	task-social/cue/runtype-pain/sch/h047.png	n/a	n/a	n/a	n/a	n/a	n/a	n/a	n/a
146.79	2.12	pain	expectrating	5	high_cue	n/a	89.54	Very Strong	89.54	Very Strong	0.55	1.57	task-social/cue/runtype-pain/sch/h047.png	n/a	n/a	n/a	n/a	n/a	n/a	n/a	n/a
153.32	12.360000000000014	pain	stimulus	5	high_cue	med_stim	n/a	n/a	n/a	n/a	n/a	n/a	n/a	153.32	157.08	162.08	165.69	success	n/a	n/a	n/a
166.5	2.89	pain	outcomerating	5	high_cue	med_stim	58.04	Strong	58.04	Strong	0.55	1.57	task-social/outcomerating/task-pain_scale.png	n/a	n/a	n/a	n/a	success	n/a	n/a	n/a
171.4	0.98	pain	cue	6	low_cue	n/a	n/a	n/a	n/a	n/a	n/a	n/a	task-social/cue/runtype-pain/scl/l004.png	n/a	n/a	n/a	n/a	n/a	n/a	n/a	n/a
174.5	2.04	pain	expectrating	6	low_cue	n/a	9.95	Weak	9.95	Weak	0.33	1.7	task-social/cue/runtype-pain/scl/l004.png	n/a	n/a	n/a	n/a	n/a	n/a	n/a	n/a
180.72	12.819999999999993	pain	stimulus	6	low_cue	high_stim	n/a	n/a	n/a	n/a	n/a	n/a	n/a	180.72	184.73	189.73	193.54	success	n/a	n/a	n/a
194.5	1.87	pain	outcomerating	6	low_cue	high_stim	58.56	Strong	58.56	Strong	0.33	1.7	task-social/outcomerating/task-pain_scale.png	n/a	n/a	n/a	n/a	success	n/a	n/a	n/a
199.8	1.0	pain	cue	7	low_cue	n/a	n/a	n/a	n/a	n/a	n/a	n/a	task-social/cue/runtype-pain/scl/l038.png	n/a	n/a	n/a	n/a	n/a	n/a	n/a	n/a
202.8	2.78	pain	expectrating	7	low_cue	n/a	13.21	Moderate	13.21	Moderate	0.35	2.43	task-social/cue/runtype-pain/scl/l038.png	n/a	n/a	n/a	n/a	n/a	n/a	n/a	n/a
216.24	11.899999999999977	pain	stimulus	7	low_cue	low_stim	n/a	n/a	n/a	n/a	n/a	n/a	n/a	216.24	219.74	224.74	228.14	success	n/a	n/a	n/a
231.09	2.7	pain	outcomerating	7	low_cue	low_stim	14.38	Moderate	14.38	Moderate	0.35	2.43	task-social/outcomerating/task-pain_scale.png	n/a	n/a	n/a	n/a	success	n/a	n/a	n/a
236.8	1.0	pain	cue	8	high_cue	n/a	n/a	n/a	n/a	n/a	n/a	n/a	task-social/cue/runtype-pain/sch/h015.png	n/a	n/a	n/a	n/a	n/a	n/a	n/a	n/a
238.5	2.28	pain	expectrating	8	high_cue	n/a	86.54	Very Strong	86.54	Very Strong	0.43	1.85	task-social/cue/runtype-pain/sch/h015.png	n/a	n/a	n/a	n/a	n/a	n/a	n/a	n/a
243.31	12.829999999999984	pain	stimulus	8	high_cue	high_stim	n/a	n/a	n/a	n/a	n/a	n/a	n/a	243.31	247.32	252.32	256.13	success	n/a	n/a	n/a
255.5	2.22	pain	outcomerating	8	high_cue	high_stim	75.07	Very Strong	75.07	Very Strong	0.43	1.85	task-social/outcomerating/task-pain_scale.png	n/a	n/a	n/a	n/a	success	n/a	n/a	n/a
264.19	1.0	pain	cue	9	high_cue	n/a	n/a	n/a	n/a	n/a	n/a	n/a	task-social/cue/runtype-pain/sch/h039.png	n/a	n/a	n/a	n/a	n/a	n/a	n/a	n/a
267.19	2.1	pain	expectrating	9	high_cue	n/a	107.4	Strongest sensation of any kind	107.4	Strongest sensation of any kind	0.37	1.73	task-social/cue/runtype-pain/sch/h039.png	n/a	n/a	n/a	n/a	n/a	n/a	n/a	n/a
277.54	12.819999999999993	pain	stimulus	9	high_cue	high_stim	n/a	n/a	n/a	n/a	n/a	n/a	n/a	277.54	281.55	286.55	290.36	success	n/a	n/a	n/a
290.5	2.87	pain	outcomerating	9	high_cue	high_stim	77.02	Very Strong	77.02	Very Strong	0.37	1.73	task-social/outcomerating/task-pain_scale.png	n/a	n/a	n/a	n/a	success	n/a	n/a	n/a
298.4	0.98	pain	cue	10	high_cue	n/a	n/a	n/a	n/a	n/a	n/a	n/a	task-social/cue/runtype-pain/sch/h028.png	n/a	n/a	n/a	n/a	n/a	n/a	n/a	n/a
301.21	2.44	pain	expectrating	10	high_cue	n/a	118.0	Strongest sensation of any kind	118.0	Strongest sensation of any kind	0.28	2.16	task-social/cue/runtype-pain/sch/h028.png	n/a	n/a	n/a	n/a	n/a	n/a	n/a	n/a
319.95	11.900000000000034	pain	stimulus	10	high_cue	low_stim	n/a	n/a	n/a	n/a	n/a	n/a	n/a	319.95	323.45	328.45	331.85	success	n/a	n/a	n/a
331.1	1.75	pain	outcomerating	10	high_cue	low_stim	41.54	Strong	41.54	Strong	0.28	2.16	task-social/outcomerating/task-pain_scale.png	n/a	n/a	n/a	n/a	success	n/a	n/a	n/a
336.0	0.98	pain	cue	11	high_cue	n/a	n/a	n/a	n/a	n/a	n/a	n/a	task-social/cue/runtype-pain/sch/h009.png	n/a	n/a	n/a	n/a	n/a	n/a	n/a	n/a
338.9	1.62	pain	expectrating	11	high_cue	n/a	102.35	Strongest sensation of any kind	102.35	Strongest sensation of any kind	0.28	1.33	task-social/cue/runtype-pain/sch/h009.png	n/a	n/a	n/a	n/a	n/a	n/a	n/a	n/a
343.75	11.899999999999977	pain	stimulus	11	high_cue	low_stim	n/a	n/a	n/a	n/a	n/a	n/a	n/a	343.75	347.25	352.25	355.65	success	n/a	n/a	n/a
359.4	2.27	pain	outcomerating	11	high_cue	low_stim	24.5	Moderate	24.5	Moderate	0.28	1.33	task-social/outcomerating/task-pain_scale.png	n/a	n/a	n/a	n/a	success	n/a	n/a	n/a
367.0	1.0	pain	cue	12	low_cue	n/a	n/a	n/a	n/a	n/a	n/a	n/a	task-social/cue/runtype-pain/scl/l007.png	n/a	n/a	n/a	n/a	n/a	n/a	n/a	n/a
368.9	1.37	pain	expectrating	12	low_cue	n/a	8.82	Weak	8.82	Weak	0.3	1.07	task-social/cue/runtype-pain/scl/l007.png	n/a	n/a	n/a	n/a	n/a	n/a	n/a	n/a
380.51	12.370000000000005	pain	stimulus	12	low_cue	med_stim	n/a	n/a	n/a	n/a	n/a	n/a	n/a	380.51	384.27	389.27	392.88	success	n/a	n/a	n/a
394.49	2.89	pain	outcomerating	12	low_cue	med_stim	44.51	Strong	44.51	Strong	0.3	1.07	task-social/outcomerating/task-pain_scale.png	n/a	n/a	n/a	n/a	success	n/a	n/a	n/a
