onset	duration	question	event_type	participant_response	normative_response	response_accuracy	stim_file
5.022469997406006	1.168990135192871	smiling?	how_face	yes	yes	correct	task-tomspunt/F_695.jpg
6.506400108337402	0.7350599765777588	smiling?	how_face	no	no	correct	task-tomspunt/F_412.jpg
7.556830167770386	0.6355400085449219	smiling?	how_face	yes	yes	correct	task-tomspunt/F_593.jpg
8.50721001625061	0.5848300457000732	smiling?	how_face	yes	yes	correct	task-tomspunt/F_139.jpg
9.407570123672485	0.5192098617553711	smiling?	how_face	no	no	correct	task-tomspunt/F_712.jpg
10.24124002456665	0.4680299758911133	smiling?	how_face	yes	yes	correct	task-tomspunt/F_759.jpg
11.024890184402466	0.6603999137878418	smiling?	how_face	no	no	correct	task-tomspunt/F_758.jpg
11.991940021514893	0.47671008110046387	smiling?	how_face	yes	yes	correct	task-tomspunt/F_083.jpg
22.862980127334595	0.618880033493042	admiring?	why_face	yes	yes	correct	task-tomspunt/F_779.jpg
23.796689987182617	0.6393601894378662	admiring?	why_face	no	no	correct	task-tomspunt/F_110.jpg
24.74707007408142	0.5058798789978027	admiring?	why_face	yes	yes	correct	task-tomspunt/F_590.jpg
25.56405997276306	0.6216700077056885	admiring?	why_face	yes	yes	correct	task-tomspunt/F_648.jpg
26.497770071029663	0.4885399341583252	admiring?	why_face	yes	yes	correct	task-tomspunt/F_759.jpg
27.298099994659424	0.5375001430511475	admiring?	why_face	no	no	correct	task-tomspunt/F_129.jpg
28.14844012260437	0.43794989585876465	admiring?	why_face	yes	yes	correct	task-tomspunt/F_593.jpg
28.89874005317688	0.5544300079345703	admiring?	why_face	no	no	correct	task-tomspunt/F_692.jpg
41.920639991760254	1.268890142440796	healthy?	why_hand	yes	yes	correct	task-tomspunt/H_364.jpg
43.50461006164551	1.724519968032837	healthy?	why_hand	no	no	correct	task-tomspunt/H_007.jpg
45.5387601852417	0.8354198932647705	healthy?	why_hand	yes	yes	correct	task-tomspunt/H_167.jpg
46.68921995162964	1.1016302108764648	healthy?	why_hand	no	no	correct	task-tomspunt/H_130.jpg
48.106460094451904	0.7470898628234863	healthy?	why_hand	yes	yes	correct	task-tomspunt/H_438.jpg
49.156880140304565	0.852180004119873	healthy?	why_hand	no	no	correct	task-tomspunt/H_019.jpg
50.32402014732361	0.5961999893188477	healthy?	why_hand	yes	yes	correct	task-tomspunt/H_362.jpg
51.224380016326904	0.9620699882507324	healthy?	why_hand	yes	yes	correct	task-tomspunt/H_627.jpg
60.878260135650635	0.6920199394226074	pressing button?	how_hand	yes	yes	correct	task-tomspunt/H_126.jpg
61.87865996360779	0.5582001209259033	pressing button?	how_hand	yes	yes	correct	task-tomspunt/H_332.jpg
62.74568009376526	0.5684299468994141	pressing button?	how_hand	no	no	correct	task-tomspunt/H_261.jpg
63.62936997413635	0.5575501918792725	pressing button?	how_hand	yes	no	incorrect	task-tomspunt/H_024.jpg
64.4963800907135	0.5737700462341309	pressing button?	how_hand	yes	yes	correct	task-tomspunt/H_502.jpg
65.3800699710846	0.6235501766204834	pressing button?	how_hand	no	no	correct	task-tomspunt/H_130.jpg
66.3137800693512	0.639739990234375	pressing button?	how_hand	yes	yes	correct	task-tomspunt/H_019.jpg
67.26416015625	0.9060800075531006	pressing button?	how_hand	yes	yes	correct	task-tomspunt/H_483.jpg
78.6687400341034	0.501270055770874	looking to side?	how_face	yes	yes	correct	task-tomspunt/F_590.jpg
79.48574018478394	0.7353999614715576	looking to side?	how_face	yes	yes	correct	task-tomspunt/F_110.jpg
80.53615999221802	0.7346601486206055	looking to side?	how_face	no	yes	incorrect	task-tomspunt/F_760.jpg
81.58658003807068	0.66798996925354	looking to side?	how_face	yes	no	incorrect	task-tomspunt/F_779.jpg
82.57031011581421	0.684730052947998	looking to side?	how_face	yes	yes	correct	task-tomspunt/F_433.jpg
83.57071995735168	0.7679901123046875	looking to side?	how_face	no	no	correct	task-tomspunt/F_798.jpg
84.65447998046875	0.6015100479125977	looking to side?	how_face	yes	yes	correct	task-tomspunt/F_716.jpg
85.57152009010315	0.6518700122833252	looking to side?	how_face	no	no	correct	task-tomspunt/F_111.jpg
97.72641015052795	0.4851799011230469	argument?	why_face	yes	yes	correct	task-tomspunt/F_403.jpg
98.52673006057739	0.5185599327087402	argument?	why_face	no	no	correct	task-tomspunt/F_139.jpg
99.36039996147156	0.6846702098846436	argument?	why_face	yes	yes	correct	task-tomspunt/F_743.jpg
100.36080002784729	0.6186399459838867	argument?	why_face	no	no	correct	task-tomspunt/F_433.jpg
101.29451012611389	0.6274499893188477	argument?	why_face	yes	yes	correct	task-tomspunt/F_716.jpg
102.22821998596191	0.6520500183105469	argument?	why_face	yes	yes	correct	task-tomspunt/F_758.jpg
103.19527006149292	0.5099599361419678	argument?	why_face	no	no	correct	task-tomspunt/F_844.jpg
104.01226997375488	0.4853501319885254	argument?	why_face	yes	yes	correct	task-tomspunt/F_712.jpg
120.20211005210876	0.9367399215698242	self-protection?	why_hand	yes	yes	correct	task-tomspunt/H_189.jpg
121.45261001586914	0.9358701705932617	self-protection?	why_hand	yes	yes	correct	task-tomspunt/H_038.jpg
122.70310997962952	1.0020999908447266	self-protection?	why_hand	yes	yes	correct	task-tomspunt/H_581.jpg
124.02031016349792	0.7016298770904541	self-protection?	why_hand	no	no	correct	task-tomspunt/H_006.jpg
125.0373899936676	0.7853100299835205	self-protection?	why_hand	yes	yes	correct	task-tomspunt/H_027.jpg
126.12115001678467	0.6846699714660645	self-protection?	why_hand	no	no	correct	task-tomspunt/H_332.jpg
127.12156009674072	0.534290075302124	self-protection?	why_hand	yes	yes	correct	task-tomspunt/H_443.jpg
127.95521998405457	0.6515200138092041	self-protection?	why_hand	no	no	correct	task-tomspunt/H_532.jpg
138.04261016845703	0.7017598152160645	both hands?	how_hand	yes	yes	correct	task-tomspunt/H_581.jpg
139.0596899986267	0.5684800148010254	both hands?	how_hand	yes	yes	correct	task-tomspunt/H_349.jpg
139.94338011741638	0.5797200202941895	both hands?	how_hand	no	no	correct	task-tomspunt/H_159.jpg
140.82706999778748	0.5186901092529297	both hands?	how_hand	yes	yes	correct	task-tomspunt/H_111.jpg
141.6607301235199	0.584669828414917	both hands?	how_hand	no	no	correct	task-tomspunt/H_627.jpg
142.56110000610352	0.5117800235748291	both hands?	how_hand	yes	yes	correct	task-tomspunt/H_167.jpg
143.37809014320374	0.7685399055480957	both hands?	how_hand	yes	yes	correct	task-tomspunt/H_027.jpg
144.46186017990112	0.7354598045349121	both hands?	how_hand	no	no	correct	task-tomspunt/H_091.jpg
155.8331000804901	0.8514299392700195	competing?	why_hand	yes	yes	correct	task-tomspunt/H_170.jpg
157.00023007392883	0.518589973449707	competing?	why_hand	yes	yes	correct	task-tomspunt/H_132.jpg
157.833899974823	0.6890501976013184	competing?	why_hand	yes	no	incorrect	task-tomspunt/H_126.jpg
158.83430004119873	0.4885900020599365	competing?	why_hand	yes	yes	correct	task-tomspunt/H_003.jpg
159.6346299648285	0.6389100551605225	competing?	why_hand	no	no	correct	task-tomspunt/H_502.jpg
160.5850100517273	0.7045600414276123	competing?	why_hand	yes	yes	correct	task-tomspunt/H_136.jpg
161.60208010673523	0.5846199989318848	competing?	why_hand	no	no	correct	task-tomspunt/H_483.jpg
162.50244998931885	0.48713016510009766	competing?	why_hand	yes	yes	correct	task-tomspunt/H_261.jpg
173.7236201763153	0.5497899055480957	lifting?	how_hand	yes	yes	correct	task-tomspunt/H_362.jpg
174.573970079422	0.66798996925354	lifting?	how_hand	no	no	correct	task-tomspunt/H_012.jpg
175.5576901435852	0.5490000247955322	lifting?	how_hand	yes	yes	correct	task-tomspunt/H_136.jpg
176.4080400466919	0.7494001388549805	lifting?	how_hand	yes	yes	correct	task-tomspunt/H_189.jpg
177.45846009254456	0.5817999839782715	lifting?	how_hand	yes	yes	correct	task-tomspunt/H_170.jpg
178.34214997291565	0.5821402072906494	lifting?	how_hand	yes	no	incorrect	task-tomspunt/H_077.jpg
179.22584009170532	0.6016600131988525	lifting?	how_hand	yes	yes	correct	task-tomspunt/H_443.jpg
180.14286994934082	0.6686902046203613	lifting?	how_hand	no	no	correct	task-tomspunt/H_038.jpg
191.79755997657776	0.4096400737762451	open mouth?	how_face	yes	yes	correct	task-tomspunt/F_403.jpg
192.51451015472412	0.4515798091888428	open mouth?	how_face	yes	yes	correct	task-tomspunt/F_086.jpg
193.28149008750916	0.47673988342285156	open mouth?	how_face	yes	yes	correct	task-tomspunt/F_844.jpg
194.06512999534607	0.4846000671386719	open mouth?	how_face	no	no	correct	task-tomspunt/F_544.jpg
194.8654601573944	0.3752298355102539	open mouth?	how_face	yes	yes	correct	task-tomspunt/F_776.jpg
195.54906010627747	0.6012699604034424	open mouth?	how_face	no	no	correct	task-tomspunt/F_648.jpg
196.4660999774933	0.3846101760864258	open mouth?	how_face	yes	yes	correct	task-tomspunt/F_692.jpg
197.16638016700745	0.6020197868347168	open mouth?	how_face	no	no	correct	task-tomspunt/F_584.jpg
209.30458998680115	0.7034599781036377	proud?	why_face	yes	yes	correct	task-tomspunt/F_582.jpg
210.3216700553894	0.4868199825286865	proud?	why_face	yes	no	incorrect	task-tomspunt/F_776.jpg
211.12198996543884	0.5196599960327148	proud?	why_face	yes	yes	correct	task-tomspunt/F_598.jpg
211.9556601047516	0.4687199592590332	proud?	why_face	no	no	correct	task-tomspunt/F_412.jpg
212.73931002616882	0.4189000129699707	proud?	why_face	yes	yes	correct	task-tomspunt/F_618.jpg
213.47293996810913	0.6180901527404785	proud?	why_face	yes	yes	correct	task-tomspunt/F_083.jpg
214.4066400527954	0.585089921951294	proud?	why_face	yes	yes	correct	task-tomspunt/F_695.jpg
215.3070101737976	0.5011599063873291	proud?	why_face	no	no	correct	task-tomspunt/F_760.jpg
227.52858996391296	1.2354001998901367	helping?	why_hand	no	yes	incorrect	task-tomspunt/H_024.jpg
229.0792100429535	0.6296899318695068	helping?	why_hand	yes	yes	correct	task-tomspunt/H_474.jpg
230.0129201412201	0.5846099853515625	helping?	why_hand	yes	yes	correct	task-tomspunt/H_349.jpg
230.9132800102234	0.6683599948883057	helping?	why_hand	no	no	correct	task-tomspunt/H_091.jpg
231.89701008796692	0.5280599594116211	helping?	why_hand	yes	no	incorrect	task-tomspunt/H_012.jpg
232.73067998886108	0.7181901931762695	helping?	why_hand	yes	yes	correct	task-tomspunt/H_077.jpg
233.76443004608154	0.610680103302002	helping?	why_hand	no	no	correct	task-tomspunt/H_159.jpg
234.68146014213562	0.8019700050354004	helping?	why_hand	yes	yes	correct	task-tomspunt/H_111.jpg
245.06896996498108	0.557110071182251	reaching?	how_hand	yes	yes	correct	task-tomspunt/H_474.jpg
245.93599009513855	0.6184699535369873	reaching?	how_hand	yes	yes	correct	task-tomspunt/H_003.jpg
246.86969017982483	0.6347498893737793	reaching?	how_hand	yes	no	incorrect	task-tomspunt/H_132.jpg
247.82008004188538	0.5013101100921631	reaching?	how_hand	yes	yes	correct	task-tomspunt/H_364.jpg
248.6370701789856	0.5389199256896973	reaching?	how_hand	no	yes	incorrect	task-tomspunt/H_006.jpg
249.48741006851196	0.6889400482177734	reaching?	how_hand	yes	no	incorrect	task-tomspunt/H_532.jpg
250.48782014846802	1.354369878768921	reaching?	how_hand	no	no	correct	task-tomspunt/H_438.jpg
252.1551501750946	1.0370099544525146	reaching?	how_hand	yes	yes	correct	task-tomspunt/H_007.jpg
263.8598601818085	0.4351999759674072	looking at camera?	how_face	yes	yes	correct	task-tomspunt/F_618.jpg
264.610160112381	0.45159006118774414	looking at camera?	how_face	no	no	correct	task-tomspunt/F_743.jpg
265.3771300315857	0.4512801170349121	looking at camera?	how_face	yes	yes	correct	task-tomspunt/F_598.jpg
266.1441099643707	0.6494700908660889	looking at camera?	how_face	yes	yes	correct	task-tomspunt/F_774.jpg
267.09449005126953	0.5012099742889404	looking at camera?	how_face	yes	yes	correct	task-tomspunt/F_129.jpg
267.9114899635315	0.6314802169799805	looking at camera?	how_face	yes	yes	correct	task-tomspunt/F_128.jpg
268.8451900482178	0.5346200466156006	looking at camera?	how_face	yes	no	incorrect	task-tomspunt/F_582.jpg
269.69553995132446	0.7686200141906738	looking at camera?	how_face	no	no	correct	task-tomspunt/F_754.jpg
285.33516001701355	0.5420801639556885	self-doubt?	why_face	yes	yes	correct	task-tomspunt/F_798.jpg
286.1855001449585	0.6077899932861328	self-doubt?	why_face	yes	no	incorrect	task-tomspunt/F_128.jpg
287.102530002594	0.5513401031494141	self-doubt?	why_face	yes	yes	correct	task-tomspunt/F_754.jpg
287.96955013275146	0.5575399398803711	self-doubt?	why_face	yes	yes	correct	task-tomspunt/F_544.jpg
288.83656001091003	0.7237601280212402	self-doubt?	why_face	yes	no	incorrect	task-tomspunt/F_086.jpg
289.8703100681305	0.5402500629425049	self-doubt?	why_face	yes	yes	correct	task-tomspunt/F_111.jpg
290.7206599712372	0.6068902015686035	self-doubt?	why_face	no	no	correct	task-tomspunt/F_774.jpg
291.63769006729126	0.6231598854064941	self-doubt?	why_face	yes	yes	correct	task-tomspunt/F_584.jpg
303.22568011283875	0.5351998805999756	reaching?	how_hand	yes	yes	correct	task-tomspunt/H_006.jpg
304.0760200023651	0.6017301082611084	reaching?	how_hand	yes	no	incorrect	task-tomspunt/H_438.jpg
304.9930601119995	0.66867995262146	reaching?	how_hand	yes	yes	correct	task-tomspunt/H_003.jpg
305.97678995132446	0.6350400447845459	reaching?	how_hand	yes	yes	correct	task-tomspunt/H_474.jpg
306.92717003822327	0.5846900939941406	reaching?	how_hand	no	no	correct	task-tomspunt/H_532.jpg
307.82753014564514	0.501309871673584	reaching?	how_hand	yes	yes	correct	task-tomspunt/H_364.jpg
308.6445300579071	0.501230001449585	reaching?	how_hand	yes	yes	correct	task-tomspunt/H_007.jpg
309.46151995658875	0.8346600532531738	reaching?	how_hand	no	no	correct	task-tomspunt/H_132.jpg
325.70138001441956	0.6268301010131836	healthy?	why_hand	yes	yes	correct	task-tomspunt/H_438.jpg
326.63509011268616	0.6434099674224854	healthy?	why_hand	yes	no	incorrect	task-tomspunt/H_007.jpg
327.5854699611664	0.9931900501251221	healthy?	why_hand	yes	yes	correct	task-tomspunt/H_364.jpg
328.8860001564026	0.8520398139953613	healthy?	why_hand	no	no	correct	task-tomspunt/H_019.jpg
330.0531301498413	0.5584700107574463	healthy?	why_hand	yes	yes	correct	task-tomspunt/H_167.jpg
330.9201500415802	1.0748100280761719	healthy?	why_hand	no	no	correct	task-tomspunt/H_130.jpg
332.30403995513916	0.8745501041412354	healthy?	why_hand	yes	yes	correct	task-tomspunt/H_627.jpg
333.4878499507904	0.773590087890625	healthy?	why_hand	yes	yes	correct	task-tomspunt/H_362.jpg
343.7753200531006	0.4202899932861328	proud?	why_face	yes	yes	correct	task-tomspunt/F_083.jpg
344.50893998146057	0.5365900993347168	proud?	why_face	no	no	correct	task-tomspunt/F_412.jpg
345.35929012298584	0.5030100345611572	proud?	why_face	yes	yes	correct	task-tomspunt/F_695.jpg
346.1762800216675	0.5020899772644043	proud?	why_face	yes	yes	correct	task-tomspunt/F_598.jpg
346.993280172348	0.5184497833251953	proud?	why_face	yes	yes	correct	task-tomspunt/F_618.jpg
347.8269500732422	0.5348498821258545	proud?	why_face	yes	yes	correct	task-tomspunt/F_582.jpg
348.67728996276855	0.5845901966094971	proud?	why_face	no	no	correct	task-tomspunt/F_760.jpg
349.57765007019043	0.7346599102020264	proud?	why_face	yes	no	incorrect	task-tomspunt/F_776.jpg
365.2506101131439	0.46202993392944336	smiling?	how_face	yes	yes	correct	task-tomspunt/F_695.jpg
366.01759004592896	0.6784601211547852	smiling?	how_face	no	no	correct	task-tomspunt/F_412.jpg
367.0013201236725	0.46107983589172363	smiling?	how_face	yes	yes	correct	task-tomspunt/F_083.jpg
367.7682900428772	0.8180499076843262	smiling?	how_face	yes	yes	correct	task-tomspunt/F_593.jpg
368.9020800590515	0.6272099018096924	smiling?	how_face	no	no	correct	task-tomspunt/F_712.jpg
369.8357901573181	0.4680798053741455	smiling?	how_face	yes	yes	correct	task-tomspunt/F_139.jpg
370.61944007873535	0.5596399307250977	smiling?	how_face	yes	yes	correct	task-tomspunt/F_759.jpg
371.48645997047424	0.5679900646209717	smiling?	how_face	no	no	correct	task-tomspunt/F_758.jpg
384.35829997062683	0.6383700370788574	both hands?	how_hand	yes	yes	correct	task-tomspunt/H_167.jpg
385.30868005752563	0.604680061340332	both hands?	how_hand	no	no	correct	task-tomspunt/H_159.jpg
386.2257101535797	0.5211999416351318	both hands?	how_hand	yes	yes	correct	task-tomspunt/H_027.jpg
387.0593800544739	0.7374699115753174	both hands?	how_hand	yes	yes	correct	task-tomspunt/H_581.jpg
388.10981011390686	0.6530098915100098	both hands?	how_hand	no	no	correct	task-tomspunt/H_091.jpg
389.0768599510193	0.4701502323150635	both hands?	how_hand	yes	yes	correct	task-tomspunt/H_111.jpg
389.8605101108551	0.6191298961639404	both hands?	how_hand	no	no	correct	task-tomspunt/H_627.jpg
390.7942199707031	0.45217013359069824	both hands?	how_hand	yes	yes	correct	task-tomspunt/H_349.jpg
401.89867997169495	0.5684502124786377	helping?	why_hand	yes	yes	correct	task-tomspunt/H_111.jpg
402.7823700904846	0.5850999355316162	helping?	why_hand	yes	yes	correct	task-tomspunt/H_077.jpg
403.6827299594879	0.517970085144043	helping?	why_hand	no	no	correct	task-tomspunt/H_159.jpg
404.51640009880066	0.517970085144043	helping?	why_hand	yes	yes	correct	task-tomspunt/H_474.jpg
405.3500699996948	0.718019962310791	helping?	why_hand	no	no	correct	task-tomspunt/H_012.jpg
406.3838200569153	0.6012899875640869	helping?	why_hand	yes	yes	correct	task-tomspunt/H_024.jpg
407.30085015296936	0.7132198810577393	helping?	why_hand	no	no	correct	task-tomspunt/H_091.jpg
408.31792998313904	0.5294301509857178	helping?	why_hand	yes	yes	correct	task-tomspunt/H_349.jpg
419.42238998413086	0.45156002044677734	self-doubt?	why_face	yes	yes	correct	task-tomspunt/F_754.jpg
420.1893701553345	0.6745798587799072	self-doubt?	why_face	yes	no	incorrect	task-tomspunt/F_128.jpg
421.1730999946594	0.8246800899505615	self-doubt?	why_face	yes	yes	correct	task-tomspunt/F_544.jpg
422.30689001083374	1.2910301685333252	self-doubt?	why_face	no	no	correct	task-tomspunt/F_086.jpg
423.9075300693512	0.8070099353790283	self-doubt?	why_face	yes	yes	correct	task-tomspunt/F_798.jpg
425.024640083313	0.8397998809814453	self-doubt?	why_face	no	yes	incorrect	task-tomspunt/F_584.jpg
426.17511010169983	0.7725398540496826	self-doubt?	why_face	yes	yes	correct	task-tomspunt/F_111.jpg
427.2588801383972	0.6890199184417725	self-doubt?	why_face	no	no	correct	task-tomspunt/F_774.jpg
438.2132799625397	0.4679901599884033	looking to side?	how_face	yes	yes	correct	task-tomspunt/F_433.jpg
438.9969301223755	0.7350599765777588	looking to side?	how_face	yes	no	incorrect	task-tomspunt/F_779.jpg
440.04735016822815	0.718329906463623	looking to side?	how_face	yes	yes	correct	task-tomspunt/F_760.jpg
441.08109998703003	0.6184501647949219	looking to side?	how_face	no	no	correct	task-tomspunt/F_111.jpg
442.01481008529663	0.8181800842285156	looking to side?	how_face	no	no	correct	task-tomspunt/F_798.jpg
443.14860010147095	0.5512099266052246	looking to side?	how_face	yes	yes	correct	task-tomspunt/F_716.jpg
444.0156099796295	0.7353701591491699	looking to side?	how_face	yes	yes	correct	task-tomspunt/F_590.jpg
445.0660300254822	0.8180601596832275	looking to side?	how_face	no	yes	incorrect	task-tomspunt/F_110.jpg
456.08713006973267	0.5684900283813477	argument?	why_face	yes	yes	correct	task-tomspunt/F_716.jpg
456.97081995010376	0.7181000709533691	argument?	why_face	no	no	correct	task-tomspunt/F_139.jpg
458.0045700073242	0.6019599437713623	argument?	why_face	yes	yes	correct	task-tomspunt/F_743.jpg
458.9216001033783	0.6016199588775635	argument?	why_face	yes	yes	correct	task-tomspunt/F_403.jpg
459.8386399745941	0.6767401695251465	argument?	why_face	yes	yes	correct	task-tomspunt/F_758.jpg
460.82237005233765	0.5014200210571289	argument?	why_face	no	no	correct	task-tomspunt/F_844.jpg
461.6393599510193	0.5261502265930176	argument?	why_face	yes	yes	correct	task-tomspunt/F_712.jpg
462.47303009033203	0.5847499370574951	argument?	why_face	no	no	correct	task-tomspunt/F_433.jpg
475.19481015205383	0.43804001808166504	open mouth?	how_face	yes	yes	correct	task-tomspunt/F_844.jpg
475.94511008262634	0.487760066986084	open mouth?	how_face	yes	yes	correct	task-tomspunt/F_692.jpg
476.7454400062561	0.6038501262664795	open mouth?	how_face	no	no	correct	task-tomspunt/F_584.jpg
477.6624701023102	0.4705500602722168	open mouth?	how_face	yes	yes	correct	task-tomspunt/F_086.jpg
478.4461200237274	0.4868800640106201	open mouth?	how_face	yes	yes	correct	task-tomspunt/F_403.jpg
479.24644017219543	0.6364498138427734	open mouth?	how_face	no	no	correct	task-tomspunt/F_544.jpg
480.19682002067566	0.7027299404144287	open mouth?	how_face	no	no	correct	task-tomspunt/F_648.jpg
481.2139000892639	0.618920087814331	open mouth?	how_face	yes	yes	correct	task-tomspunt/F_776.jpg
494.15243005752563	0.8473200798034668	lifting?	how_hand	yes	yes	correct	task-tomspunt/H_170.jpg
495.3029000759125	0.7965500354766846	lifting?	how_hand	no	no	correct	task-tomspunt/H_077.jpg
496.40334010124207	0.9797999858856201	lifting?	how_hand	yes	yes	correct	task-tomspunt/H_189.jpg
497.68719005584717	0.7126200199127197	lifting?	how_hand	yes	yes	correct	task-tomspunt/H_362.jpg
498.7042601108551	0.745650053024292	lifting?	how_hand	no	no	correct	task-tomspunt/H_012.jpg
499.7546901702881	0.595829963684082	lifting?	how_hand	yes	yes	correct	task-tomspunt/H_443.jpg
500.6550500392914	0.6513099670410156	lifting?	how_hand	yes	yes	correct	task-tomspunt/H_136.jpg
501.6221001148224	0.6682999134063721	lifting?	how_hand	no	no	correct	task-tomspunt/H_038.jpg
511.67614006996155	0.8182699680328369	competing?	why_hand	yes	yes	correct	task-tomspunt/H_003.jpg
512.8099300861359	0.6180598735809326	competing?	why_hand	no	no	correct	task-tomspunt/H_483.jpg
513.7436401844025	0.5352997779846191	competing?	why_hand	yes	yes	correct	task-tomspunt/H_132.jpg
514.5939800739288	0.5852899551391602	competing?	why_hand	yes	yes	correct	task-tomspunt/H_170.jpg
515.4943499565125	0.5518100261688232	competing?	why_hand	no	no	correct	task-tomspunt/H_502.jpg
516.3613600730896	0.972059965133667	competing?	why_hand	yes	yes	correct	task-tomspunt/H_136.jpg
517.6452100276947	0.7549099922180176	competing?	why_hand	no	no	correct	task-tomspunt/H_126.jpg
518.7123100757599	0.5878400802612305	competing?	why_hand	yes	yes	correct	task-tomspunt/H_261.jpg
529.5499999523163	0.818000078201294	admiring?	why_face	yes	yes	correct	task-tomspunt/F_759.jpg
530.6837899684906	0.5513701438903809	admiring?	why_face	yes	yes	correct	task-tomspunt/F_593.jpg
531.5508000850677	0.7350399494171143	admiring?	why_face	no	no	correct	task-tomspunt/F_692.jpg
532.6012201309204	0.5183398723602295	admiring?	why_face	yes	yes	correct	task-tomspunt/F_590.jpg
533.4348900318146	0.602060079574585	admiring?	why_face	no	no	correct	task-tomspunt/F_129.jpg
534.351930141449	0.5518798828125	admiring?	why_face	yes	yes	correct	task-tomspunt/F_648.jpg
535.2189400196075	0.6649501323699951	admiring?	why_face	no	no	correct	task-tomspunt/F_110.jpg
536.1860001087189	0.5685598850250244	admiring?	why_face	yes	yes	correct	task-tomspunt/F_779.jpg
547.0737099647522	0.46836018562316895	looking at camera?	how_face	yes	yes	correct	task-tomspunt/F_128.jpg
547.857360124588	0.6185598373413086	looking at camera?	how_face	no	no	correct	task-tomspunt/F_754.jpg
548.7910599708557	0.46879005432128906	looking at camera?	how_face	yes	yes	correct	task-tomspunt/F_598.jpg
549.5747101306915	0.6096899509429932	looking at camera?	how_face	yes	yes	correct	task-tomspunt/F_129.jpg
550.4917500019073	0.5187201499938965	looking at camera?	how_face	yes	yes	correct	task-tomspunt/F_618.jpg
551.3254201412201	0.5014398097991943	looking at camera?	how_face	no	no	correct	task-tomspunt/F_743.jpg
552.1424100399017	0.5587799549102783	looking at camera?	how_face	yes	yes	correct	task-tomspunt/F_774.jpg
553.0094301700592	0.5512797832489014	looking at camera?	how_face	no	no	correct	task-tomspunt/F_582.jpg
565.7645499706268	0.45426011085510254	pressing button?	how_hand	yes	yes	correct	task-tomspunt/H_019.jpg
566.5315301418304	0.53659987449646	pressing button?	how_hand	yes	yes	correct	task-tomspunt/H_126.jpg
567.3818700313568	0.5696301460266113	pressing button?	how_hand	no	no	correct	task-tomspunt/H_130.jpg
568.2655601501465	0.45288991928100586	pressing button?	how_hand	yes	yes	correct	task-tomspunt/H_332.jpg
569.0325300693512	0.6356399059295654	pressing button?	how_hand	no	no	correct	task-tomspunt/H_024.jpg
569.9829201698303	0.5024199485778809	pressing button?	how_hand	yes	yes	correct	task-tomspunt/H_483.jpg
570.799910068512	0.5684199333190918	pressing button?	how_hand	no	no	correct	task-tomspunt/H_261.jpg
571.6836001873016	0.6848099231719971	pressing button?	how_hand	yes	yes	correct	task-tomspunt/H_502.jpg
583.9718701839447	0.7354099750518799	self-protection?	why_hand	yes	yes	correct	task-tomspunt/H_443.jpg
585.0223000049591	0.9014401435852051	self-protection?	why_hand	yes	yes	correct	task-tomspunt/H_189.jpg
586.2394499778748	0.6519100666046143	self-protection?	why_hand	yes	yes	correct	task-tomspunt/H_027.jpg
587.2065100669861	0.579240083694458	self-protection?	why_hand	no	no	correct	task-tomspunt/H_532.jpg
588.0902001857758	0.562579870223999	self-protection?	why_hand	yes	yes	correct	task-tomspunt/H_038.jpg
588.9572100639343	0.8515000343322754	self-protection?	why_hand	no	no	correct	task-tomspunt/H_006.jpg
590.1243500709534	0.8283200263977051	self-protection?	why_hand	no	no	correct	task-tomspunt/H_332.jpg
591.2581400871277	0.6440999507904053	self-protection?	why_hand	yes	yes	correct	task-tomspunt/H_581.jpg
0.061585416793823	2.05082559585571	smiling?	block_question_presentation	n/a	n/a	n/a	n/a
0.061585416793823	0.3	smiling?	block_question_presentation	n/a	n/a	n/a	n/a
17.8520705604553	2.1008448600769	admiring?	block_question_presentation	n/a	n/a	n/a	n/a
17.8520705604553	0.3	admiring?	block_question_presentation	n/a	n/a	n/a	n/a
36.9097316169739	2.10084414482117	healthy?	block_question_presentation	n/a	n/a	n/a	n/a
36.9097316169739	0.3	healthy?	block_question_presentation	n/a	n/a	n/a	n/a
55.86735247612	2.10084462165833	pressing button?	block_question_presentation	n/a	n/a	n/a	n/a
55.86735247612	0.3	pressing button?	block_question_presentation	n/a	n/a	n/a	n/a
73.6578376197815	2.10084462165833	looking to side?	block_question_presentation	n/a	n/a	n/a	n/a
73.6578376197815	0.3	looking to side?	block_question_presentation	n/a	n/a	n/a	n/a
92.7154986763	2.10084462165833	argument?	block_question_presentation	n/a	n/a	n/a	n/a
92.7154986763	0.3	argument?	block_question_presentation	n/a	n/a	n/a	n/a
115.191200008392	2.10084462165833	self-protection?	block_question_presentation	n/a	n/a	n/a	n/a
115.191200008392	0.3	self-protection?	block_question_presentation	n/a	n/a	n/a	n/a
133.031705846787	2.10084366798401	both hands?	block_question_presentation	n/a	n/a	n/a	n/a
133.031705846787	0.3	both hands?	block_question_presentation	n/a	n/a	n/a	n/a
150.822190275192	2.10084533691406	competing?	block_question_presentation	n/a	n/a	n/a	n/a
150.822190275192	0.3	competing?	block_question_presentation	n/a	n/a	n/a	n/a
168.712715377808	2.10084509849548	lifting?	block_question_presentation	n/a	n/a	n/a	n/a
168.712715377808	0.3	lifting?	block_question_presentation	n/a	n/a	n/a	n/a
186.786648263931	2.10084438323975	open mouth?	block_question_presentation	n/a	n/a	n/a	n/a
186.786648263931	0.3	open mouth?	block_question_presentation	n/a	n/a	n/a	n/a
204.310358276367	2.08417224884033	proud?	block_question_presentation	n/a	n/a	n/a	n/a
204.310358276367	0.3	proud?	block_question_presentation	n/a	n/a	n/a	n/a
222.517678489685	2.10084414482117	helping?	block_question_presentation	n/a	n/a	n/a	n/a
222.517678489685	0.3	helping?	block_question_presentation	n/a	n/a	n/a	n/a
240.058062543869	2.10084390640259	reaching?	block_question_presentation	n/a	n/a	n/a	n/a
240.058062543869	0.3	reaching?	block_question_presentation	n/a	n/a	n/a	n/a
258.848949422836	2.10084462165833	looking at camera?	block_question_presentation	n/a	n/a	n/a	n/a
258.848949422836	0.3	looking at camera?	block_question_presentation	n/a	n/a	n/a	n/a
280.324249258041	2.10084366798401	self-doubt?	block_question_presentation	n/a	n/a	n/a	n/a
280.324249258041	0.3	self-doubt?	block_question_presentation	n/a	n/a	n/a	n/a
298.21477388382	2.10084557533264	reaching?	block_question_presentation	n/a	n/a	n/a	n/a
298.21477388382	0.3	reaching?	block_question_presentation	n/a	n/a	n/a	n/a
320.690476169586	2.10084414482117	healthy?	block_question_presentation	n/a	n/a	n/a	n/a
320.690476169586	0.3	healthy?	block_question_presentation	n/a	n/a	n/a	n/a
338.764408340454	2.10084390640259	proud?	block_question_presentation	n/a	n/a	n/a	n/a
338.764408340454	0.3	proud?	block_question_presentation	n/a	n/a	n/a	n/a
360.239707221985	2.10084533691406	smiling?	block_question_presentation	n/a	n/a	n/a	n/a
360.239707221985	0.3	smiling?	block_question_presentation	n/a	n/a	n/a	n/a
379.34738992691	2.10084342956543	both hands?	block_question_presentation	n/a	n/a	n/a	n/a
379.34738992691	0.3	both hands?	block_question_presentation	n/a	n/a	n/a	n/a
396.887773981094	2.10084462165833	helping?	block_question_presentation	n/a	n/a	n/a	n/a
396.887773981094	0.3	helping?	block_question_presentation	n/a	n/a	n/a	n/a
414.411484470367	2.1008448600769	self-doubt?	block_question_presentation	n/a	n/a	n/a	n/a
414.411484470367	0.3	self-doubt?	block_question_presentation	n/a	n/a	n/a	n/a
433.202371349335	2.10084533691406	looking to side?	block_question_presentation	n/a	n/a	n/a	n/a
433.202371349335	0.3	looking to side?	block_question_presentation	n/a	n/a	n/a	n/a
451.076223125458	2.10084438323975	argument?	block_question_presentation	n/a	n/a	n/a	n/a
451.076223125458	0.3	argument?	block_question_presentation	n/a	n/a	n/a	n/a
470.183904161453	2.10084581375122	open mouth?	block_question_presentation	n/a	n/a	n/a	n/a
470.183904161453	0.3	open mouth?	block_question_presentation	n/a	n/a	n/a	n/a
489.158198823929	2.08417177200317	lifting?	block_question_presentation	n/a	n/a	n/a	n/a
489.158198823929	0.3	lifting?	block_question_presentation	n/a	n/a	n/a	n/a
506.665236463547	2.10084533691406	competing?	block_question_presentation	n/a	n/a	n/a	n/a
506.665236463547	0.3	competing?	block_question_presentation	n/a	n/a	n/a	n/a
524.53908823967	2.10084557533264	admiring?	block_question_presentation	n/a	n/a	n/a	n/a
524.53908823967	0.3	admiring?	block_question_presentation	n/a	n/a	n/a	n/a
542.07947300911	2.08417129516602	looking at camera?	block_question_presentation	n/a	n/a	n/a	n/a
542.07947300911	0.3	looking at camera?	block_question_presentation	n/a	n/a	n/a	n/a
560.753646364212	2.10084438323975	pressing button?	block_question_presentation	n/a	n/a	n/a	n/a
560.753646364212	0.3	pressing button?	block_question_presentation	n/a	n/a	n/a	n/a
578.960967531204	2.1008415222168	self-protection?	block_question_presentation	n/a	n/a	n/a	n/a
578.960967531204	0.3	self-protection?	block_question_presentation	n/a	n/a	n/a	n/a
