onset	duration	trial_type	response_angle	response_label	block_condition	mentalizing_level	stim_file
2.825	3.391	cue	n/a	n/a	likeability	n/a	n/a
6.217	5.005	video	n/a	n/a	likeability	n/a	task-shortvideos/ses-03_run-01_order-12_content-photography.mp4
11.312	2.76	rating	22.74	Moderate	likeability	n/a	n/a
11.912	2.16	rating_mouse_trajectory	22.74	Moderate	likeability	n/a	n/a
16.545	5.394	video	n/a	n/a	likeability	n/a	task-shortvideos/ses-03_run-01_order-19_content-beatbox.mp4
21.999	2.24	rating	57.53	Strong	likeability	n/a	n/a
22.699	1.54	rating_mouse_trajectory	57.53	Strong	likeability	n/a	n/a
27.144	5.328	video	n/a	n/a	likeability	n/a	task-shortvideos/ses-03_run-01_order-18_content-angrygrandpa.mp4
32.537	2.302	rating	18.51	Moderate	likeability	n/a	n/a
33.187	1.652	rating_mouse_trajectory	18.51	Moderate	likeability	n/a	n/a
37.572	3.142	cue	n/a	n/a	mentalizing	remember	n/a
40.714	5.561	video	n/a	n/a	mentalizing	remember	task-shortvideos/ses-03_run-01_order-11_content-menrunning.mp4
46.342	4.967	rating	26.78	Moderate	mentalizing	remember	n/a
49.508	1.8	rating_mouse_trajectory	26.78	Moderate	mentalizing	remember	n/a
51.427	5.229	video	n/a	n/a	mentalizing	remember	task-shortvideos/ses-03_run-01_order-10_content-captureflag.mp4
56.729	4.352	rating	16.59	Moderate	mentalizing	remember	n/a
59.579	1.502	rating_mouse_trajectory	16.59	Moderate	mentalizing	remember	n/a
61.848	5.508	video	n/a	n/a	mentalizing	remember	task-shortvideos/ses-03_run-01_order-15_content-giving.mp4
67.416	2.135	rating	90.0	Very strong	mentalizing	remember	n/a
68.133	1.418	rating_mouse_trajectory	90.0	Very strong	mentalizing	remember	n/a
72.451	3.148	cue	n/a	n/a	similarity	n/a	n/a
75.6	5.039	video	n/a	n/a	similarity	n/a	task-shortvideos/ses-03_run-01_order-01_content-visswar.mp4
80.705	2.218	rating	5.66	Weak	similarity	n/a	n/a
81.221	1.702	rating_mouse_trajectory	5.66	Weak	similarity	n/a	n/a
85.811	4.998	video	n/a	n/a	similarity	n/a	task-shortvideos/ses-03_run-01_order-12_content-photography.mp4
90.875	1.667	rating	5.57	Weak	similarity	n/a	n/a
91.475	1.067	rating_mouse_trajectory	5.57	Weak	similarity	n/a	n/a
95.945	5.227	video	n/a	n/a	similarity	n/a	task-shortvideos/ses-03_run-01_order-10_content-captureflag.mp4
101.229	2.326	rating	6.57	Weak	similarity	n/a	n/a
101.779	1.776	rating_mouse_trajectory	6.57	Weak	similarity	n/a	n/a
106.264	3.166	cue	n/a	n/a	likeability	n/a	n/a
109.43	5.175	video	n/a	n/a	likeability	n/a	task-shortvideos/ses-03_run-01_order-13_content-wanderers.mp4
114.667	1.755	rating	22.77	Moderate	likeability	n/a	n/a
115.334	1.088	rating_mouse_trajectory	22.77	Moderate	likeability	n/a	n/a
119.764	5.842	video	n/a	n/a	likeability	n/a	task-shortvideos/ses-03_run-01_order-03_content-bestfriendsweating.mp4
125.671	3.868	rating	16.45	Moderate	likeability	n/a	n/a
126.488	3.052	rating_mouse_trajectory	16.45	Moderate	likeability	n/a	n/a
130.775	6.117	video	n/a	n/a	likeability	n/a	task-shortvideos/ses-03_run-01_order-14_content-alwaysafamily.mp4
136.959	2.735	rating	59.67	Strong	likeability	n/a	n/a
137.609	2.085	rating_mouse_trajectory	59.67	Strong	likeability	n/a	n/a
141.994	3.119	cue	n/a	n/a	similarity	n/a	n/a
145.113	5.801	video	n/a	n/a	similarity	n/a	task-shortvideos/ses-03_run-01_order-16_content-huggingpets.mp4
150.981	2.051	rating	10.18	Moderate	similarity	n/a	n/a
151.464	1.568	rating_mouse_trajectory	10.18	Moderate	similarity	n/a	n/a
156.076	6.195	video	n/a	n/a	similarity	n/a	task-shortvideos/ses-03_run-01_order-08_content-dancewithdeath.mp4
162.335	3.104	rating	13.92	Moderate	similarity	n/a	n/a
163.018	2.42	rating_mouse_trajectory	13.92	Moderate	similarity	n/a	n/a
167.418	5.304	video	n/a	n/a	similarity	n/a	task-shortvideos/ses-03_run-01_order-07_content-youth.mp4
172.789	1.884	rating	13.01	Moderate	similarity	n/a	n/a
173.256	1.418	rating_mouse_trajectory	13.01	Moderate	similarity	n/a	n/a
177.824	3.12	cue	n/a	n/a	mentalizing	danger	n/a
180.944	5.301	video	n/a	n/a	mentalizing	danger	task-shortvideos/ses-03_run-01_order-07_content-youth.mp4
186.311	4.435	rating	18.07	Moderate	mentalizing	danger	n/a
187.994	2.752	rating_mouse_trajectory	18.07	Moderate	mentalizing	danger	n/a
191.415	6.35	video	n/a	n/a	mentalizing	danger	task-shortvideos/ses-03_run-01_order-17_content-freesolo.mp4
197.832	2.24	rating	56.09	Strong	mentalizing	danger	n/a
198.665	1.407	rating_mouse_trajectory	56.09	Strong	mentalizing	danger	n/a
202.97	5.116	video	n/a	n/a	mentalizing	danger	task-shortvideos/ses-03_run-01_order-06_content-war.mp4
208.152	4.203	rating	133.54	Strongest possible	mentalizing	danger	n/a
208.735	3.62	rating_mouse_trajectory	133.54	Strongest possible	mentalizing	danger	n/a
213.187	3.119	cue	n/a	n/a	similarity	n/a	n/a
216.306	5.501	video	n/a	n/a	similarity	n/a	task-shortvideos/ses-03_run-01_order-15_content-giving.mp4
221.874	1.984	rating	62.77	Strong	similarity	n/a	n/a
222.44	1.418	rating_mouse_trajectory	62.77	Strong	similarity	n/a	n/a
226.978	6.134	video	n/a	n/a	similarity	n/a	task-shortvideos/ses-03_run-01_order-14_content-alwaysafamily.mp4
233.178	2.001	rating	27.81	Moderate	similarity	n/a	n/a
233.578	1.601	rating_mouse_trajectory	27.81	Moderate	similarity	n/a	n/a
238.29	5.015	video	n/a	n/a	similarity	n/a	task-shortvideos/ses-03_run-01_order-21_content-iceblock.mp4
243.365	2.823	rating	8.16	Weak	similarity	n/a	n/a
244.699	1.49	rating_mouse_trajectory	8.16	Weak	similarity	n/a	n/a
248.4	3.136	cue	n/a	n/a	mentalizing	tired	n/a
251.536	5.002	video	n/a	n/a	mentalizing	tired	task-shortvideos/ses-03_run-01_order-12_content-photography.mp4
256.603	3.518	rating	47.21	Strong	mentalizing	tired	n/a
258.453	1.668	rating_mouse_trajectory	47.21	Strong	mentalizing	tired	n/a
261.683	6.191	video	n/a	n/a	mentalizing	tired	task-shortvideos/ses-03_run-01_order-08_content-dancewithdeath.mp4
267.941	3.101	rating	40.24	Strong	mentalizing	tired	n/a
268.841	2.201	rating_mouse_trajectory	40.24	Strong	mentalizing	tired	n/a
273.051	5.561	video	n/a	n/a	mentalizing	tired	task-shortvideos/ses-03_run-01_order-20_content-cupstacking.mp4
278.678	4.585	rating	32.35	Strong	mentalizing	tired	n/a
279.878	3.385	rating_mouse_trajectory	32.35	Strong	mentalizing	tired	n/a
283.814	3.186	cue	n/a	n/a	similarity	n/a	n/a
287.0	5.122	video	n/a	n/a	similarity	n/a	task-shortvideos/ses-03_run-01_order-06_content-war.mp4
292.183	1.939	rating	4.59	Weak	similarity	n/a	n/a
293.167	0.955	rating_mouse_trajectory	4.59	Weak	similarity	n/a	n/a
297.291	6.848	video	n/a	n/a	similarity	n/a	task-shortvideos/ses-03_run-01_order-04_content-unefille.mp4
304.205	2.384	rating	10.45	Moderate	similarity	n/a	n/a
304.838	1.751	rating_mouse_trajectory	10.45	Moderate	similarity	n/a	n/a
309.35	6.676	video	n/a	n/a	similarity	n/a	task-shortvideos/ses-03_run-01_order-02_content-HB.mp4
316.092	4.535	rating	18.51	Moderate	similarity	n/a	n/a
317.559	3.069	rating_mouse_trajectory	18.51	Moderate	similarity	n/a	n/a
321.178	3.121	cue	n/a	n/a	likeability	n/a	n/a
324.299	5.507	video	n/a	n/a	likeability	n/a	task-shortvideos/ses-03_run-01_order-15_content-giving.mp4
329.881	3.101	rating	94.76	Very strong	likeability	n/a	n/a
330.481	2.501	rating_mouse_trajectory	94.76	Very strong	likeability	n/a	n/a
334.987	6.352	video	n/a	n/a	likeability	n/a	task-shortvideos/ses-03_run-01_order-17_content-freesolo.mp4
341.402	2.087	rating	37.61	Strong	likeability	n/a	n/a
342.152	1.337	rating_mouse_trajectory	37.61	Strong	likeability	n/a	n/a
346.523	4.082	video	n/a	n/a	likeability	n/a	task-shortvideos/ses-03_run-01_order-05_content-parkour.mp4
350.672	1.934	rating	43.84	Strong	likeability	n/a	n/a
351.272	1.334	rating_mouse_trajectory	43.84	Strong	likeability	n/a	n/a
355.707	3.152	cue	n/a	n/a	mentalizing	heights	n/a
358.859	5.834	video	n/a	n/a	mentalizing	heights	task-shortvideos/ses-03_run-01_order-03_content-bestfriendsweating.mp4
364.76	4.767	rating	10.33	Moderate	mentalizing	heights	n/a
368.36	1.167	rating_mouse_trajectory	10.33	Moderate	mentalizing	heights	n/a
369.882	5.023	video	n/a	n/a	mentalizing	heights	task-shortvideos/ses-03_run-01_order-21_content-iceblock.mp4
374.964	1.691	rating	10.41	Moderate	mentalizing	heights	n/a
375.531	1.124	rating_mouse_trajectory	10.41	Moderate	mentalizing	heights	n/a
380.058	5.181	video	n/a	n/a	mentalizing	heights	task-shortvideos/ses-03_run-01_order-09_content-knifegame.mp4
385.301	1.904	rating	11.58	Moderate	mentalizing	heights	n/a
385.918	1.287	rating_mouse_trajectory	11.58	Moderate	mentalizing	heights	n/a
390.337	3.185	cue	n/a	n/a	likeability	n/a	n/a
393.522	6.685	video	n/a	n/a	likeability	n/a	task-shortvideos/ses-03_run-01_order-02_content-HB.mp4
400.274	4.667	rating	9.85	Weak	likeability	n/a	n/a
401.074	3.867	rating_mouse_trajectory	9.85	Weak	likeability	n/a	n/a
405.358	5.231	video	n/a	n/a	likeability	n/a	task-shortvideos/ses-03_run-01_order-10_content-captureflag.mp4
410.644	2.184	rating	13.21	Moderate	likeability	n/a	n/a
411.111	1.718	rating_mouse_trajectory	13.21	Moderate	likeability	n/a	n/a
415.723	5.299	video	n/a	n/a	likeability	n/a	task-shortvideos/ses-03_run-01_order-07_content-youth.mp4
421.081	2.99	rating	30.15	Strong	likeability	n/a	n/a
421.548	2.524	rating_mouse_trajectory	30.15	Strong	likeability	n/a	n/a
426.117	3.153	cue	n/a	n/a	mentalizing	angry	n/a
429.27	5.169	video	n/a	n/a	mentalizing	angry	task-shortvideos/ses-03_run-01_order-13_content-wanderers.mp4
434.503	2.835	rating	5.32	Weak	mentalizing	angry	n/a
436.103	1.235	rating_mouse_trajectory	5.32	Weak	mentalizing	angry	n/a
439.614	4.076	video	n/a	n/a	mentalizing	angry	task-shortvideos/ses-03_run-01_order-05_content-parkour.mp4
443.757	1.868	rating	16.32	Moderate	mentalizing	angry	n/a
444.39	1.234	rating_mouse_trajectory	16.32	Moderate	mentalizing	angry	n/a
448.909	6.679	video	n/a	n/a	mentalizing	angry	task-shortvideos/ses-03_run-01_order-02_content-HB.mp4
455.661	1.884	rating	59.98	Strong	mentalizing	angry	n/a
456.294	1.251	rating_mouse_trajectory	59.98	Strong	mentalizing	angry	n/a
460.696	3.174	cue	n/a	n/a	likeability	n/a	n/a
463.871	5.118	video	n/a	n/a	likeability	n/a	task-shortvideos/ses-03_run-01_order-06_content-war.mp4
469.049	1.589	rating	11.81	Moderate	likeability	n/a	n/a
469.483	1.156	rating_mouse_trajectory	11.81	Moderate	likeability	n/a	n/a
474.161	5.561	video	n/a	n/a	likeability	n/a	task-shortvideos/ses-03_run-01_order-20_content-cupstacking.mp4
479.787	2.702	rating	29.57	Strong	likeability	n/a	n/a
480.337	2.152	rating_mouse_trajectory	29.57	Strong	likeability	n/a	n/a
484.874	6.183	video	n/a	n/a	likeability	n/a	task-shortvideos/ses-03_run-01_order-08_content-dancewithdeath.mp4
491.124	2.118	rating	27.33	Moderate	likeability	n/a	n/a
491.774	1.468	rating_mouse_trajectory	27.33	Moderate	likeability	n/a	n/a
496.143	3.13	cue	n/a	n/a	similarity	n/a	n/a
499.272	5.557	video	n/a	n/a	similarity	n/a	task-shortvideos/ses-03_run-01_order-11_content-menrunning.mp4
504.896	2.735	rating	35.03	Strong	similarity	n/a	n/a
505.513	2.118	rating_mouse_trajectory	35.03	Strong	similarity	n/a	n/a
509.998	5.202	video	n/a	n/a	similarity	n/a	task-shortvideos/ses-03_run-01_order-09_content-knifegame.mp4
515.267	2.105	rating	15.3	Moderate	similarity	n/a	n/a
515.95	1.422	rating_mouse_trajectory	15.3	Moderate	similarity	n/a	n/a
520.359	5.397	video	n/a	n/a	similarity	n/a	task-shortvideos/ses-03_run-01_order-19_content-beatbox.mp4
525.837	2.718	rating	13.67	Moderate	similarity	n/a	n/a
526.371	2.185	rating_mouse_trajectory	13.67	Moderate	similarity	n/a	n/a
530.872	3.146	cue	n/a	n/a	likeability	n/a	n/a
534.019	6.837	video	n/a	n/a	likeability	n/a	task-shortvideos/ses-03_run-01_order-04_content-unefille.mp4
540.909	1.968	rating	26.46	Moderate	likeability	n/a	n/a
541.426	1.451	rating_mouse_trajectory	26.46	Moderate	likeability	n/a	n/a
546.023	5.19	video	n/a	n/a	likeability	n/a	task-shortvideos/ses-03_run-01_order-09_content-knifegame.mp4
551.28	2.418	rating	15.21	Moderate	likeability	n/a	n/a
551.83	1.868	rating_mouse_trajectory	15.21	Moderate	likeability	n/a	n/a
556.359	5.797	video	n/a	n/a	likeability	n/a	task-shortvideos/ses-03_run-01_order-16_content-huggingpets.mp4
562.217	2.621	rating	33.62	Strong	likeability	n/a	n/a
562.801	2.038	rating_mouse_trajectory	33.62	Strong	likeability	n/a	n/a
567.253	3.15	cue	n/a	n/a	mentalizing	calm	n/a
570.403	6.837	video	n/a	n/a	mentalizing	calm	task-shortvideos/ses-03_run-01_order-04_content-unefille.mp4
577.306	4.035	rating	79.7	Very strong	mentalizing	calm	n/a
578.873	2.468	rating_mouse_trajectory	79.7	Very strong	mentalizing	calm	n/a
582.409	5.052	video	n/a	n/a	mentalizing	calm	task-shortvideos/ses-03_run-01_order-01_content-visswar.mp4
587.527	1.684	rating	62.38	Strong	mentalizing	calm	n/a
588.144	1.068	rating_mouse_trajectory	62.38	Strong	mentalizing	calm	n/a
592.606	5.799	video	n/a	n/a	mentalizing	calm	task-shortvideos/ses-03_run-01_order-16_content-huggingpets.mp4
598.464	2.158	rating	111.0	Strongest possible	mentalizing	calm	n/a
598.964	1.658	rating_mouse_trajectory	111.0	Strongest possible	mentalizing	calm	n/a
603.499	3.136	cue	n/a	n/a	similarity	n/a	n/a
606.635	5.837	video	n/a	n/a	similarity	n/a	task-shortvideos/ses-03_run-01_order-03_content-bestfriendsweating.mp4
612.536	1.986	rating	3.28	Weak	similarity	n/a	n/a
613.086	1.436	rating_mouse_trajectory	3.28	Weak	similarity	n/a	n/a
617.659	5.182	video	n/a	n/a	similarity	n/a	task-shortvideos/ses-03_run-01_order-13_content-wanderers.mp4
622.907	1.901	rating	28.32	Moderate	similarity	n/a	n/a
623.523	1.284	rating_mouse_trajectory	28.32	Moderate	similarity	n/a	n/a
628.023	6.349	video	n/a	n/a	similarity	n/a	task-shortvideos/ses-03_run-01_order-17_content-freesolo.mp4
634.428	1.561	rating	9.77	Weak	similarity	n/a	n/a
634.844	1.144	rating_mouse_trajectory	9.77	Weak	similarity	n/a	n/a
639.446	3.161	cue	n/a	n/a	mentalizing	enjoy	n/a
642.607	5.326	video	n/a	n/a	mentalizing	enjoy	task-shortvideos/ses-03_run-01_order-18_content-angrygrandpa.mp4
647.999	3.856	rating	70.97	Very strong	mentalizing	enjoy	n/a
650.033	1.823	rating_mouse_trajectory	70.97	Very strong	mentalizing	enjoy	n/a
653.1	6.122	video	n/a	n/a	mentalizing	enjoy	task-shortvideos/ses-03_run-01_order-14_content-alwaysafamily.mp4
659.287	3.752	rating	4.38	Weak	mentalizing	enjoy	n/a
660.27	2.768	rating_mouse_trajectory	4.38	Weak	mentalizing	enjoy	n/a
664.356	5.402	video	n/a	n/a	mentalizing	enjoy	task-shortvideos/ses-03_run-01_order-19_content-beatbox.mp4
669.824	1.584	rating	68.39	Very strong	mentalizing	enjoy	n/a
670.474	0.934	rating_mouse_trajectory	68.39	Very strong	mentalizing	enjoy	n/a
674.859	3.145	cue	n/a	n/a	likeability	n/a	n/a
678.004	5.559	video	n/a	n/a	likeability	n/a	task-shortvideos/ses-03_run-01_order-11_content-menrunning.mp4
683.629	2.134	rating	34.04	Strong	likeability	n/a	n/a
684.463	1.301	rating_mouse_trajectory	34.04	Strong	likeability	n/a	n/a
688.744	5.023	video	n/a	n/a	likeability	n/a	task-shortvideos/ses-03_run-01_order-21_content-iceblock.mp4
693.85	1.739	rating	26.36	Moderate	likeability	n/a	n/a
694.5	1.089	rating_mouse_trajectory	26.36	Moderate	likeability	n/a	n/a
698.958	5.047	video	n/a	n/a	likeability	n/a	task-shortvideos/ses-03_run-01_order-01_content-visswar.mp4
704.07	2.368	rating	42.31	Strong	likeability	n/a	n/a
704.687	1.752	rating_mouse_trajectory	42.31	Strong	likeability	n/a	n/a
709.106	3.158	cue	n/a	n/a	similarity	n/a	n/a
712.264	5.332	video	n/a	n/a	similarity	n/a	task-shortvideos/ses-03_run-01_order-18_content-angrygrandpa.mp4
717.675	1.451	rating	10.63	Moderate	similarity	n/a	n/a
718.059	1.067	rating_mouse_trajectory	10.63	Moderate	similarity	n/a	n/a
722.803	5.569	video	n/a	n/a	similarity	n/a	task-shortvideos/ses-03_run-01_order-20_content-cupstacking.mp4
728.429	1.659	rating	7.9	Weak	similarity	n/a	n/a
728.896	1.193	rating_mouse_trajectory	7.9	Weak	similarity	n/a	n/a
733.556	4.082	video	n/a	n/a	similarity	n/a	task-shortvideos/ses-03_run-01_order-05_content-parkour.mp4
737.7	3.406	rating	5.09	Weak	similarity	n/a	n/a
738.216	2.889	rating_mouse_trajectory	5.09	Weak	similarity	n/a	n/a
