onset	duration	run_type	trial_type	trial_index	cue	stimulusintensity	rating_value	rating_glmslabel	rating_value_fillna	rating_glmslabel_fillna	rating_mouseonset	rating_mousedur	stim_file	pain_onset_ttl1	pain_onset_ttl2	pain_onset_ttl3	pain_onset_ttl4	pain_stimulus_delivery_success	cognitive_correct_response	cognitive_participant_response	cognitive_response_accuracy
4.81	0.98	pain	cue	1	high_cue	n/a	n/a	n/a	n/a	n/a	n/a	n/a	task-social/cue/runtype-pain/sch/h054.png	n/a	n/a	n/a	n/a	n/a	n/a	n/a	n/a
7.24	n/a	pain	expectrating	1	high_cue	n/a	n/a	n/a	64.98	Very Strong	2.05	3.58	task-social/cue/runtype-pain/sch/h054.png	n/a	n/a	n/a	n/a	n/a	n/a	n/a	n/a
15.91	11.91	pain	stimulus	1	high_cue	low_stim	n/a	n/a	n/a	n/a	n/a	n/a	n/a	15.91	19.41	24.41	27.81	success	n/a	n/a	n/a
27.2	2.49	pain	outcomerating	1	high_cue	low_stim	46.84	Strong	46.84	Strong	2.05	3.58	task-social/outcomerating/task-pain_scale.png	n/a	n/a	n/a	n/a	success	n/a	n/a	n/a
33.1	1.0	pain	cue	2	low_cue	n/a	n/a	n/a	n/a	n/a	n/a	n/a	task-social/cue/runtype-pain/scl/l028.png	n/a	n/a	n/a	n/a	n/a	n/a	n/a	n/a
34.9	3.08	pain	expectrating	2	low_cue	n/a	10.16	Moderate	10.16	Moderate	1.33	1.75	task-social/cue/runtype-pain/scl/l028.png	n/a	n/a	n/a	n/a	n/a	n/a	n/a	n/a
44.23	11.910000000000004	pain	stimulus	2	low_cue	low_stim	n/a	n/a	n/a	n/a	n/a	n/a	n/a	44.23	47.73	52.73	56.13	success	n/a	n/a	n/a
56.11	1.93	pain	outcomerating	2	low_cue	low_stim	9.31	Weak	9.31	Weak	1.33	1.75	task-social/outcomerating/task-pain_scale.png	n/a	n/a	n/a	n/a	success	n/a	n/a	n/a
61.1	1.0	pain	cue	3	low_cue	n/a	n/a	n/a	n/a	n/a	n/a	n/a	task-social/cue/runtype-pain/scl/l002.png	n/a	n/a	n/a	n/a	n/a	n/a	n/a	n/a
63.21	2.47	pain	expectrating	3	low_cue	n/a	9.04	Weak	9.04	Weak	0.68	1.79	task-social/cue/runtype-pain/scl/l002.png	n/a	n/a	n/a	n/a	n/a	n/a	n/a	n/a
69.83	12.370000000000005	pain	stimulus	3	low_cue	med_stim	n/a	n/a	n/a	n/a	n/a	n/a	n/a	69.83	73.59	78.59	82.2	success	n/a	n/a	n/a
81.4	3.17	pain	outcomerating	3	low_cue	med_stim	45.16	Strong	45.16	Strong	0.68	1.79	task-social/outcomerating/task-pain_scale.png	n/a	n/a	n/a	n/a	success	n/a	n/a	n/a
86.51	1.0	pain	cue	4	low_cue	n/a	n/a	n/a	n/a	n/a	n/a	n/a	task-social/cue/runtype-pain/scl/l042.png	n/a	n/a	n/a	n/a	n/a	n/a	n/a	n/a
89.61	3.04	pain	expectrating	4	low_cue	n/a	15.6	Moderate	15.6	Moderate	0.35	2.69	task-social/cue/runtype-pain/scl/l042.png	n/a	n/a	n/a	n/a	n/a	n/a	n/a	n/a
98.83	12.820000000000007	pain	stimulus	4	low_cue	high_stim	n/a	n/a	n/a	n/a	n/a	n/a	n/a	98.83	102.84	107.84	111.65	success	n/a	n/a	n/a
110.11	3.4	pain	outcomerating	4	low_cue	high_stim	52.17	Strong	52.17	Strong	0.35	2.69	task-social/outcomerating/task-pain_scale.png	n/a	n/a	n/a	n/a	success	n/a	n/a	n/a
114.8	1.0	pain	cue	5	high_cue	n/a	n/a	n/a	n/a	n/a	n/a	n/a	task-social/cue/runtype-pain/sch/h024.png	n/a	n/a	n/a	n/a	n/a	n/a	n/a	n/a
117.2	n/a	pain	expectrating	5	high_cue	n/a	n/a	n/a	71.49	Very Strong	0.65	3.87	task-social/cue/runtype-pain/sch/h024.png	n/a	n/a	n/a	n/a	n/a	n/a	n/a	n/a
122.62	12.370000000000005	pain	stimulus	5	high_cue	med_stim	n/a	n/a	n/a	n/a	n/a	n/a	n/a	122.62	126.38	131.38	134.99	success	n/a	n/a	n/a
133.91	n/a	pain	outcomerating	5	high_cue	med_stim	n/a	n/a	61.37	Strong	0.65	3.87	task-social/outcomerating/task-pain_scale.png	n/a	n/a	n/a	n/a	success	n/a	n/a	n/a
138.49	1.0	pain	cue	6	high_cue	n/a	n/a	n/a	n/a	n/a	n/a	n/a	task-social/cue/runtype-pain/sch/h050.png	n/a	n/a	n/a	n/a	n/a	n/a	n/a	n/a
140.61	n/a	pain	expectrating	6	high_cue	n/a	n/a	n/a	67.56	Very Strong	1.35	3.98	task-social/cue/runtype-pain/sch/h050.png	n/a	n/a	n/a	n/a	n/a	n/a	n/a	n/a
145.95	12.820000000000022	pain	stimulus	6	high_cue	high_stim	n/a	n/a	n/a	n/a	n/a	n/a	n/a	145.95	149.96	154.96	158.77	success	n/a	n/a	n/a
157.6	2.69	pain	outcomerating	6	high_cue	high_stim	72.88	Very Strong	72.88	Very Strong	1.35	3.98	task-social/outcomerating/task-pain_scale.png	n/a	n/a	n/a	n/a	success	n/a	n/a	n/a
163.5	1.0	pain	cue	7	high_cue	n/a	n/a	n/a	n/a	n/a	n/a	n/a	task-social/cue/runtype-pain/sch/h025.png	n/a	n/a	n/a	n/a	n/a	n/a	n/a	n/a
165.6	2.65	pain	expectrating	7	high_cue	n/a	79.86	Very Strong	79.86	Very Strong	0.47	2.18	task-social/cue/runtype-pain/sch/h025.png	n/a	n/a	n/a	n/a	n/a	n/a	n/a	n/a
176.44	11.900000000000006	pain	stimulus	7	high_cue	low_stim	n/a	n/a	n/a	n/a	n/a	n/a	n/a	176.44	179.94	184.94	188.34	success	n/a	n/a	n/a
197.6	2.45	pain	outcomerating	7	high_cue	low_stim	47.76	Strong	47.76	Strong	0.47	2.18	task-social/outcomerating/task-pain_scale.png	n/a	n/a	n/a	n/a	success	n/a	n/a	n/a
209.4	1.0	pain	cue	8	high_cue	n/a	n/a	n/a	n/a	n/a	n/a	n/a	task-social/cue/runtype-pain/sch/h023.png	n/a	n/a	n/a	n/a	n/a	n/a	n/a	n/a
211.5	2.55	pain	expectrating	8	high_cue	n/a	57.03	Strong	57.03	Strong	0.65	1.9	task-social/cue/runtype-pain/sch/h023.png	n/a	n/a	n/a	n/a	n/a	n/a	n/a	n/a
216.45	12.820000000000022	pain	stimulus	8	high_cue	high_stim	n/a	n/a	n/a	n/a	n/a	n/a	n/a	216.45	220.46	225.46	229.27	success	n/a	n/a	n/a
229.71	3.53	pain	outcomerating	8	high_cue	high_stim	78.69	Very Strong	78.69	Very Strong	0.65	1.9	task-social/outcomerating/task-pain_scale.png	n/a	n/a	n/a	n/a	success	n/a	n/a	n/a
234.59	1.0	pain	cue	9	low_cue	n/a	n/a	n/a	n/a	n/a	n/a	n/a	task-social/cue/runtype-pain/scl/l014.png	n/a	n/a	n/a	n/a	n/a	n/a	n/a	n/a
237.7	1.67	pain	expectrating	9	low_cue	n/a	17.56	Moderate	17.56	Moderate	0.23	1.44	task-social/cue/runtype-pain/scl/l014.png	n/a	n/a	n/a	n/a	n/a	n/a	n/a	n/a
250.56	11.899999999999977	pain	stimulus	9	low_cue	low_stim	n/a	n/a	n/a	n/a	n/a	n/a	n/a	250.56	254.06	259.06	262.46	success	n/a	n/a	n/a
265.11	3.27	pain	outcomerating	9	low_cue	low_stim	15.38	Moderate	15.38	Moderate	0.23	1.44	task-social/outcomerating/task-pain_scale.png	n/a	n/a	n/a	n/a	success	n/a	n/a	n/a
270.99	1.0	pain	cue	10	low_cue	n/a	n/a	n/a	n/a	n/a	n/a	n/a	task-social/cue/runtype-pain/scl/l018.png	n/a	n/a	n/a	n/a	n/a	n/a	n/a	n/a
274.11	2.0	pain	expectrating	10	low_cue	n/a	22.87	Moderate	22.87	Moderate	0.35	1.65	task-social/cue/runtype-pain/scl/l018.png	n/a	n/a	n/a	n/a	n/a	n/a	n/a	n/a
283.43	12.370000000000005	pain	stimulus	10	low_cue	med_stim	n/a	n/a	n/a	n/a	n/a	n/a	n/a	283.43	287.19	292.19	295.8	success	n/a	n/a	n/a
296.6	2.12	pain	outcomerating	10	low_cue	med_stim	53.08	Strong	53.08	Strong	0.35	1.65	task-social/outcomerating/task-pain_scale.png	n/a	n/a	n/a	n/a	success	n/a	n/a	n/a
317.59	1.0	pain	cue	11	low_cue	n/a	n/a	n/a	n/a	n/a	n/a	n/a	task-social/cue/runtype-pain/scl/l001.png	n/a	n/a	n/a	n/a	n/a	n/a	n/a	n/a
320.01	1.43	pain	expectrating	11	low_cue	n/a	5.07	Weak	5.07	Weak	0.08	1.35	task-social/cue/runtype-pain/scl/l001.png	n/a	n/a	n/a	n/a	n/a	n/a	n/a	n/a
325.42	12.819999999999993	pain	stimulus	11	low_cue	high_stim	n/a	n/a	n/a	n/a	n/a	n/a	n/a	325.42	329.43	334.43	338.24	success	n/a	n/a	n/a
337.1	2.19	pain	outcomerating	11	low_cue	high_stim	67.26	Very Strong	67.26	Very Strong	0.08	1.35	task-social/outcomerating/task-pain_scale.png	n/a	n/a	n/a	n/a	success	n/a	n/a	n/a
358.11	0.98	pain	cue	12	high_cue	n/a	n/a	n/a	n/a	n/a	n/a	n/a	task-social/cue/runtype-pain/sch/h010.png	n/a	n/a	n/a	n/a	n/a	n/a	n/a	n/a
361.21	2.87	pain	expectrating	12	high_cue	n/a	68.37	Very Strong	68.37	Very Strong	0.53	2.33	task-social/cue/runtype-pain/sch/h010.png	n/a	n/a	n/a	n/a	n/a	n/a	n/a	n/a
375.52	12.370000000000005	pain	stimulus	12	high_cue	med_stim	n/a	n/a	n/a	n/a	n/a	n/a	n/a	375.52	379.28	384.28	387.89	success	n/a	n/a	n/a
394.1	2.85	pain	outcomerating	12	high_cue	med_stim	54.97	Strong	54.97	Strong	0.53	2.33	task-social/outcomerating/task-pain_scale.png	n/a	n/a	n/a	n/a	success	n/a	n/a	n/a
