onset	duration	run_type	trial_type	trial_index	cue	stimulusintensity	rating_value	rating_glmslabel	rating_value_fillna	rating_glmslabel_fillna	rating_mouseonset	rating_mousedur	stim_file	pain_onset_ttl1	pain_onset_ttl2	pain_onset_ttl3	pain_onset_ttl4	pain_stimulus_delivery_success	cognitive_correct_response	cognitive_participant_response	cognitive_response_accuracy
5.68	0.99	cognitive	cue	1	high_cue	n/a	n/a	n/a	n/a	n/a	n/a	n/a	n/a	n/a	n/a	n/a	n/a	n/a	n/a	n/a	n/a
8.3	1.2	cognitive	expectrating	1	high_cue	n/a	40.75	Strong	40.75	Strong	0.08	1.12	task-social/cue/runtype-cognitive/sch/h004.png	n/a	n/a	n/a	n/a	n/a	n/a	n/a	n/a
14.9	5.0	cognitive	stimulus	1	high_cue	high_stim	n/a	n/a	n/a	n/a	n/a	n/a	task-social/stim/runtype-cognitive/29_150.jpg	n/a	n/a	n/a	n/a	n/a	same	same	True
23.89	1.8	cognitive	outcomerating	1	high_cue	high_stim	12.91	Moderate	12.91	Moderate	0.23	1.57	task-social/outcomerating/task-cognitive_scale.png	n/a	n/a	n/a	n/a	n/a	n/a	n/a	n/a
32.29	0.98	cognitive	cue	2	low_cue	n/a	n/a	n/a	n/a	n/a	n/a	n/a	n/a	n/a	n/a	n/a	n/a	n/a	n/a	n/a	n/a
35.3	2.97	cognitive	expectrating	2	low_cue	n/a	9.31	Weak	9.31	Weak	0.52	2.45	task-social/cue/runtype-cognitive/scl/l009.png	n/a	n/a	n/a	n/a	n/a	n/a	n/a	n/a
47.18	5.0	cognitive	stimulus	2	low_cue	high_stim	n/a	n/a	n/a	n/a	n/a	n/a	task-social/stim/runtype-cognitive/27_150_R.jpg	n/a	n/a	n/a	n/a	n/a	diff	diff	True
58.49	1.88	cognitive	outcomerating	2	low_cue	high_stim	3.91	Weak	3.91	Weak	0.13	1.75	task-social/outcomerating/task-cognitive_scale.png	n/a	n/a	n/a	n/a	n/a	n/a	n/a	n/a
63.09	0.99	cognitive	cue	3	low_cue	n/a	n/a	n/a	n/a	n/a	n/a	n/a	n/a	n/a	n/a	n/a	n/a	n/a	n/a	n/a	n/a
65.49	1.58	cognitive	expectrating	3	low_cue	n/a	3.75	Weak	3.75	Weak	0.5	1.08	task-social/cue/runtype-cognitive/scl/l050.png	n/a	n/a	n/a	n/a	n/a	n/a	n/a	n/a
72.09	5.0	cognitive	stimulus	3	low_cue	high_stim	n/a	n/a	n/a	n/a	n/a	n/a	task-social/stim/runtype-cognitive/34_150_R.jpg	n/a	n/a	n/a	n/a	n/a	diff	diff	True
81.9	3.12	cognitive	outcomerating	3	low_cue	high_stim	23.01	Moderate	23.01	Moderate	1.4	1.72	task-social/outcomerating/task-cognitive_scale.png	n/a	n/a	n/a	n/a	n/a	n/a	n/a	n/a
95.08	0.99	cognitive	cue	4	high_cue	n/a	n/a	n/a	n/a	n/a	n/a	n/a	n/a	n/a	n/a	n/a	n/a	n/a	n/a	n/a	n/a
97.48	n/a	cognitive	expectrating	4	high_cue	n/a	n/a	n/a	32.42	Strong	1.17	2.15	task-social/cue/runtype-cognitive/sch/h043.png	n/a	n/a	n/a	n/a	n/a	n/a	n/a	n/a
104.69	5.0	cognitive	stimulus	4	high_cue	high_stim	n/a	n/a	n/a	n/a	n/a	n/a	task-social/stim/runtype-cognitive/43_150_R.jpg	n/a	n/a	n/a	n/a	n/a	diff	n/a	False
115.59	2.62	cognitive	outcomerating	4	high_cue	high_stim	47.28	Strong	47.28	Strong	1.37	1.25	task-social/outcomerating/task-cognitive_scale.png	n/a	n/a	n/a	n/a	n/a	n/a	n/a	n/a
120.19	0.98	cognitive	cue	5	low_cue	n/a	n/a	n/a	n/a	n/a	n/a	n/a	n/a	n/a	n/a	n/a	n/a	n/a	n/a	n/a	n/a
123.19	3.12	cognitive	expectrating	5	low_cue	n/a	2.31	Barely detectable	2.31	Barely detectable	0.83	2.28	task-social/cue/runtype-cognitive/scl/l005.png	n/a	n/a	n/a	n/a	n/a	n/a	n/a	n/a
140.38	5.0	cognitive	stimulus	5	low_cue	low_stim	n/a	n/a	n/a	n/a	n/a	n/a	task-social/stim/runtype-cognitive/27_50_R.jpg	n/a	n/a	n/a	n/a	n/a	diff	diff	True
148.99	1.58	cognitive	outcomerating	5	low_cue	low_stim	9.85	Weak	9.85	Weak	0.3	1.28	task-social/outcomerating/task-cognitive_scale.png	n/a	n/a	n/a	n/a	n/a	n/a	n/a	n/a
159.89	0.99	cognitive	cue	6	high_cue	n/a	n/a	n/a	n/a	n/a	n/a	n/a	n/a	n/a	n/a	n/a	n/a	n/a	n/a	n/a	n/a
162.89	3.45	cognitive	expectrating	6	high_cue	n/a	33.05	Strong	33.05	Strong	0.47	2.98	task-social/cue/runtype-cognitive/sch/h037.png	n/a	n/a	n/a	n/a	n/a	n/a	n/a	n/a
188.99	5.0	cognitive	stimulus	6	high_cue	low_stim	n/a	n/a	n/a	n/a	n/a	n/a	task-social/stim/runtype-cognitive/17_50.jpg	n/a	n/a	n/a	n/a	n/a	same	same	True
208.39	3.48	cognitive	outcomerating	6	high_cue	low_stim	9.46	Weak	9.46	Weak	0.95	2.53	task-social/outcomerating/task-cognitive_scale.png	n/a	n/a	n/a	n/a	n/a	n/a	n/a	n/a
219.3	0.98	cognitive	cue	7	low_cue	n/a	n/a	n/a	n/a	n/a	n/a	n/a	n/a	n/a	n/a	n/a	n/a	n/a	n/a	n/a	n/a
221.5	2.92	cognitive	expectrating	7	low_cue	n/a	5.53	Weak	5.53	Weak	0.47	2.45	task-social/cue/runtype-cognitive/scl/l025.png	n/a	n/a	n/a	n/a	n/a	n/a	n/a	n/a
230.48	5.0	cognitive	stimulus	7	low_cue	med_stim	n/a	n/a	n/a	n/a	n/a	n/a	task-social/stim/runtype-cognitive/6_100_R.jpg	n/a	n/a	n/a	n/a	n/a	diff	diff	True
241.41	3.62	cognitive	outcomerating	7	low_cue	med_stim	9.95	Weak	9.95	Weak	1.4	2.22	task-social/outcomerating/task-cognitive_scale.png	n/a	n/a	n/a	n/a	n/a	n/a	n/a	n/a
252.49	0.98	cognitive	cue	8	high_cue	n/a	n/a	n/a	n/a	n/a	n/a	n/a	n/a	n/a	n/a	n/a	n/a	n/a	n/a	n/a	n/a
255.09	2.75	cognitive	expectrating	8	high_cue	n/a	31.2	Strong	31.2	Strong	0.17	2.58	task-social/cue/runtype-cognitive/sch/h028.png	n/a	n/a	n/a	n/a	n/a	n/a	n/a	n/a
262.1	5.0	cognitive	stimulus	8	high_cue	med_stim	n/a	n/a	n/a	n/a	n/a	n/a	task-social/stim/runtype-cognitive/4_100_R.jpg	n/a	n/a	n/a	n/a	n/a	diff	diff	True
273.98	2.55	cognitive	outcomerating	8	high_cue	med_stim	4.82	Weak	4.82	Weak	1.1	1.45	task-social/outcomerating/task-cognitive_scale.png	n/a	n/a	n/a	n/a	n/a	n/a	n/a	n/a
283.89	0.99	cognitive	cue	9	high_cue	n/a	n/a	n/a	n/a	n/a	n/a	n/a	n/a	n/a	n/a	n/a	n/a	n/a	n/a	n/a	n/a
285.79	1.9	cognitive	expectrating	9	high_cue	n/a	24.27	Moderate	24.27	Moderate	0.18	1.72	task-social/cue/runtype-cognitive/sch/h042.png	n/a	n/a	n/a	n/a	n/a	n/a	n/a	n/a
293.39	5.0	cognitive	stimulus	9	high_cue	med_stim	n/a	n/a	n/a	n/a	n/a	n/a	task-social/stim/runtype-cognitive/31_100.jpg	n/a	n/a	n/a	n/a	n/a	same	same	True
302.79	3.42	cognitive	outcomerating	9	high_cue	med_stim	9.77	Weak	9.77	Weak	1.03	2.38	task-social/outcomerating/task-cognitive_scale.png	n/a	n/a	n/a	n/a	n/a	n/a	n/a	n/a
311.88	1.0	cognitive	cue	10	low_cue	n/a	n/a	n/a	n/a	n/a	n/a	n/a	n/a	n/a	n/a	n/a	n/a	n/a	n/a	n/a	n/a
314.9	2.24	cognitive	expectrating	10	low_cue	n/a	2.76	Barely detectable	2.76	Barely detectable	0.25	1.99	task-social/cue/runtype-cognitive/scl/l051.png	n/a	n/a	n/a	n/a	n/a	n/a	n/a	n/a
322.49	5.0	cognitive	stimulus	10	low_cue	med_stim	n/a	n/a	n/a	n/a	n/a	n/a	task-social/stim/runtype-cognitive/27_100_R.jpg	n/a	n/a	n/a	n/a	n/a	diff	diff	True
334.99	2.27	cognitive	outcomerating	10	low_cue	med_stim	19.02	Moderate	19.02	Moderate	0.65	1.62	task-social/outcomerating/task-cognitive_scale.png	n/a	n/a	n/a	n/a	n/a	n/a	n/a	n/a
341.29	0.98	cognitive	cue	11	high_cue	n/a	n/a	n/a	n/a	n/a	n/a	n/a	n/a	n/a	n/a	n/a	n/a	n/a	n/a	n/a	n/a
343.19	2.55	cognitive	expectrating	11	high_cue	n/a	38.34	Strong	38.34	Strong	0.93	1.62	task-social/cue/runtype-cognitive/sch/h036.png	n/a	n/a	n/a	n/a	n/a	n/a	n/a	n/a
355.5	5.0	cognitive	stimulus	11	high_cue	low_stim	n/a	n/a	n/a	n/a	n/a	n/a	task-social/stim/runtype-cognitive/27_50.jpg	n/a	n/a	n/a	n/a	n/a	same	same	True
365.28	3.04	cognitive	outcomerating	11	high_cue	low_stim	3.99	Weak	3.99	Weak	0.67	2.37	task-social/outcomerating/task-cognitive_scale.png	n/a	n/a	n/a	n/a	n/a	n/a	n/a	n/a
371.59	0.99	cognitive	cue	12	low_cue	n/a	n/a	n/a	n/a	n/a	n/a	n/a	n/a	n/a	n/a	n/a	n/a	n/a	n/a	n/a	n/a
373.49	2.92	cognitive	expectrating	12	low_cue	n/a	15.82	Moderate	15.82	Moderate	0.8	2.12	task-social/cue/runtype-cognitive/scl/l031.png	n/a	n/a	n/a	n/a	n/a	n/a	n/a	n/a
380.29	5.0	cognitive	stimulus	12	low_cue	low_stim	n/a	n/a	n/a	n/a	n/a	n/a	task-social/stim/runtype-cognitive/8_50.jpg	n/a	n/a	n/a	n/a	n/a	same	same	True
395.0	3.37	cognitive	outcomerating	12	low_cue	low_stim	10.9	Moderate	10.9	Moderate	0.23	3.13	task-social/outcomerating/task-cognitive_scale.png	n/a	n/a	n/a	n/a	n/a	n/a	n/a	n/a
