onset	duration	run_type	trial_type	trial_index	cue	stimulusintensity	rating_value	rating_glmslabel	rating_value_fillna	rating_glmslabel_fillna	rating_mouseonset	rating_mousedur	stim_file_TODO	pain_onset_ttl1	pain_onset_ttl2	pain_onset_ttl3	pain_onset_ttl4	pain_stimulus_delivery_success	cognitive_correct_response	cognitive_participant_response	cognitive_response_accuracy
5.69	1.0	cognitive	cue	1	high_cue	n/a	n/a	n/a	n/a	n/a	n/a	n/a	task-social/cue/runtype-cognitive/sch/h004.png	n/a	n/a	n/a	n/a	n/a	n/a	n/a	n/a
8.3	2.0	cognitive	expectrating	1	high_cue	n/a	20.39	Moderate	20.39	Moderate	0.42	1.58	task-social/cue/runtype-cognitive/sch/h004.png	n/a	n/a	n/a	n/a	n/a	n/a	n/a	n/a
14.91	5.0	cognitive	stimulus	1	high_cue	high_stim	n/a	n/a	n/a	n/a	n/a	n/a	task-social/stim/runtype-cognitive/29_150.jpg	n/a	n/a	n/a	n/a	n/a	same	diff	False
23.89	1.57	cognitive	outcomerating	1	high_cue	high_stim	38.95	Strong	38.95	Strong	0.42	1.58	task-social/outcomerating/task-cognitive_scale.png	n/a	n/a	n/a	n/a	n/a	n/a	n/a	n/a
32.3	0.98	cognitive	cue	2	low_cue	n/a	n/a	n/a	n/a	n/a	n/a	n/a	task-social/cue/runtype-cognitive/scl/l009.png	n/a	n/a	n/a	n/a	n/a	n/a	n/a	n/a
35.3	2.14	cognitive	expectrating	2	low_cue	n/a	3.27	Weak	3.27	Weak	0.42	1.72	task-social/cue/runtype-cognitive/scl/l009.png	n/a	n/a	n/a	n/a	n/a	n/a	n/a	n/a
47.2	5.0	cognitive	stimulus	2	low_cue	high_stim	n/a	n/a	n/a	n/a	n/a	n/a	task-social/stim/runtype-cognitive/27_150_R.jpg	n/a	n/a	n/a	n/a	n/a	diff	n/a	False
58.49	2.32	cognitive	outcomerating	2	low_cue	high_stim	34.71	Strong	34.71	Strong	0.42	1.72	task-social/outcomerating/task-cognitive_scale.png	n/a	n/a	n/a	n/a	n/a	n/a	n/a	n/a
63.09	0.99	cognitive	cue	3	low_cue	n/a	n/a	n/a	n/a	n/a	n/a	n/a	task-social/cue/runtype-cognitive/scl/l050.png	n/a	n/a	n/a	n/a	n/a	n/a	n/a	n/a
65.49	1.88	cognitive	expectrating	3	low_cue	n/a	3.0	Barely detectable	3.0	Barely detectable	0.43	1.45	task-social/cue/runtype-cognitive/scl/l050.png	n/a	n/a	n/a	n/a	n/a	n/a	n/a	n/a
72.09	5.0	cognitive	stimulus	3	low_cue	high_stim	n/a	n/a	n/a	n/a	n/a	n/a	task-social/stim/runtype-cognitive/34_150_R.jpg	n/a	n/a	n/a	n/a	n/a	diff	diff	True
81.9	1.4	cognitive	outcomerating	3	low_cue	high_stim	18.73	Moderate	18.73	Moderate	0.43	1.45	task-social/outcomerating/task-cognitive_scale.png	n/a	n/a	n/a	n/a	n/a	n/a	n/a	n/a
95.09	0.99	cognitive	cue	4	high_cue	n/a	n/a	n/a	n/a	n/a	n/a	n/a	task-social/cue/runtype-cognitive/sch/h043.png	n/a	n/a	n/a	n/a	n/a	n/a	n/a	n/a
97.5	3.22	cognitive	expectrating	4	high_cue	n/a	35.22	Strong	35.22	Strong	0.57	2.65	task-social/cue/runtype-cognitive/sch/h043.png	n/a	n/a	n/a	n/a	n/a	n/a	n/a	n/a
104.69	5.0	cognitive	stimulus	4	high_cue	high_stim	n/a	n/a	n/a	n/a	n/a	n/a	task-social/stim/runtype-cognitive/43_150_R.jpg	n/a	n/a	n/a	n/a	n/a	diff	diff	True
115.59	2.14	cognitive	outcomerating	4	high_cue	high_stim	7.61	Weak	7.61	Weak	0.57	2.65	task-social/outcomerating/task-cognitive_scale.png	n/a	n/a	n/a	n/a	n/a	n/a	n/a	n/a
120.2	0.98	cognitive	cue	5	low_cue	n/a	n/a	n/a	n/a	n/a	n/a	n/a	task-social/cue/runtype-cognitive/scl/l005.png	n/a	n/a	n/a	n/a	n/a	n/a	n/a	n/a
123.2	2.21	cognitive	expectrating	5	low_cue	n/a	8.69	Weak	8.69	Weak	0.48	1.72	task-social/cue/runtype-cognitive/scl/l005.png	n/a	n/a	n/a	n/a	n/a	n/a	n/a	n/a
140.4	5.0	cognitive	stimulus	5	low_cue	low_stim	n/a	n/a	n/a	n/a	n/a	n/a	task-social/stim/runtype-cognitive/27_50_R.jpg	n/a	n/a	n/a	n/a	n/a	diff	diff	True
149.01	3.23	cognitive	outcomerating	5	low_cue	low_stim	5.76	Weak	5.76	Weak	0.48	1.72	task-social/outcomerating/task-cognitive_scale.png	n/a	n/a	n/a	n/a	n/a	n/a	n/a	n/a
159.89	0.99	cognitive	cue	6	high_cue	n/a	n/a	n/a	n/a	n/a	n/a	n/a	task-social/cue/runtype-cognitive/sch/h037.png	n/a	n/a	n/a	n/a	n/a	n/a	n/a	n/a
162.89	2.91	cognitive	expectrating	6	high_cue	n/a	45.33	Strong	45.33	Strong	1.25	1.66	task-social/cue/runtype-cognitive/sch/h037.png	n/a	n/a	n/a	n/a	n/a	n/a	n/a	n/a
188.99	5.0	cognitive	stimulus	6	high_cue	low_stim	n/a	n/a	n/a	n/a	n/a	n/a	task-social/stim/runtype-cognitive/17_50.jpg	n/a	n/a	n/a	n/a	n/a	same	same	True
208.4	3.67	cognitive	outcomerating	6	high_cue	low_stim	11.08	Moderate	11.08	Moderate	1.25	1.66	task-social/outcomerating/task-cognitive_scale.png	n/a	n/a	n/a	n/a	n/a	n/a	n/a	n/a
219.3	0.98	cognitive	cue	7	low_cue	n/a	n/a	n/a	n/a	n/a	n/a	n/a	task-social/cue/runtype-cognitive/scl/l025.png	n/a	n/a	n/a	n/a	n/a	n/a	n/a	n/a
221.5	3.19	cognitive	expectrating	7	low_cue	n/a	5.57	Weak	5.57	Weak	0.38	2.8	task-social/cue/runtype-cognitive/scl/l025.png	n/a	n/a	n/a	n/a	n/a	n/a	n/a	n/a
230.49	5.0	cognitive	stimulus	7	low_cue	med_stim	n/a	n/a	n/a	n/a	n/a	n/a	task-social/stim/runtype-cognitive/6_100_R.jpg	n/a	n/a	n/a	n/a	n/a	diff	diff	True
241.39	2.15	cognitive	outcomerating	7	low_cue	med_stim	7.01	Weak	7.01	Weak	0.38	2.8	task-social/outcomerating/task-cognitive_scale.png	n/a	n/a	n/a	n/a	n/a	n/a	n/a	n/a
252.49	0.99	cognitive	cue	8	high_cue	n/a	n/a	n/a	n/a	n/a	n/a	n/a	task-social/cue/runtype-cognitive/sch/h028.png	n/a	n/a	n/a	n/a	n/a	n/a	n/a	n/a
255.1	n/a	cognitive	expectrating	8	high_cue	n/a	n/a	n/a	43.2	Strong	0.82	2.45	task-social/cue/runtype-cognitive/sch/h028.png	n/a	n/a	n/a	n/a	n/a	n/a	n/a	n/a
262.1	5.0	cognitive	stimulus	8	high_cue	med_stim	n/a	n/a	n/a	n/a	n/a	n/a	task-social/stim/runtype-cognitive/4_100_R.jpg	n/a	n/a	n/a	n/a	n/a	diff	diff	True
274.0	n/a	cognitive	outcomerating	8	high_cue	med_stim	n/a	n/a	46.63	Strong	0.82	2.45	task-social/outcomerating/task-cognitive_scale.png	n/a	n/a	n/a	n/a	n/a	n/a	n/a	n/a
283.89	0.99	cognitive	cue	9	high_cue	n/a	n/a	n/a	n/a	n/a	n/a	n/a	task-social/cue/runtype-cognitive/sch/h042.png	n/a	n/a	n/a	n/a	n/a	n/a	n/a	n/a
285.79	2.23	cognitive	expectrating	9	high_cue	n/a	32.01	Strong	32.01	Strong	0.48	1.75	task-social/cue/runtype-cognitive/sch/h042.png	n/a	n/a	n/a	n/a	n/a	n/a	n/a	n/a
293.39	5.0	cognitive	stimulus	9	high_cue	med_stim	n/a	n/a	n/a	n/a	n/a	n/a	task-social/stim/runtype-cognitive/31_100.jpg	n/a	n/a	n/a	n/a	n/a	same	diff	False
302.8	1.56	cognitive	outcomerating	9	high_cue	med_stim	45.16	Strong	45.16	Strong	0.48	1.75	task-social/outcomerating/task-cognitive_scale.png	n/a	n/a	n/a	n/a	n/a	n/a	n/a	n/a
311.9	0.98	cognitive	cue	10	low_cue	n/a	n/a	n/a	n/a	n/a	n/a	n/a	task-social/cue/runtype-cognitive/scl/l051.png	n/a	n/a	n/a	n/a	n/a	n/a	n/a	n/a
314.9	1.95	cognitive	expectrating	10	low_cue	n/a	6.7	Weak	6.7	Weak	0.42	1.53	task-social/cue/runtype-cognitive/scl/l051.png	n/a	n/a	n/a	n/a	n/a	n/a	n/a	n/a
322.49	5.0	cognitive	stimulus	10	low_cue	med_stim	n/a	n/a	n/a	n/a	n/a	n/a	task-social/stim/runtype-cognitive/27_100_R.jpg	n/a	n/a	n/a	n/a	n/a	diff	diff	True
334.99	n/a	cognitive	outcomerating	10	low_cue	med_stim	n/a	n/a	8.13	Weak	0.42	1.53	task-social/outcomerating/task-cognitive_scale.png	n/a	n/a	n/a	n/a	n/a	n/a	n/a	n/a
341.29	0.99	cognitive	cue	11	high_cue	n/a	n/a	n/a	n/a	n/a	n/a	n/a	task-social/cue/runtype-cognitive/sch/h036.png	n/a	n/a	n/a	n/a	n/a	n/a	n/a	n/a
343.2	1.96	cognitive	expectrating	11	high_cue	n/a	30.61	Strong	30.61	Strong	0.45	1.51	task-social/cue/runtype-cognitive/sch/h036.png	n/a	n/a	n/a	n/a	n/a	n/a	n/a	n/a
355.5	5.0	cognitive	stimulus	11	high_cue	low_stim	n/a	n/a	n/a	n/a	n/a	n/a	task-social/stim/runtype-cognitive/27_50.jpg	n/a	n/a	n/a	n/a	n/a	same	same	True
365.3	2.83	cognitive	outcomerating	11	high_cue	low_stim	20.18	Moderate	20.18	Moderate	0.45	1.51	task-social/outcomerating/task-cognitive_scale.png	n/a	n/a	n/a	n/a	n/a	n/a	n/a	n/a
371.59	0.99	cognitive	cue	12	low_cue	n/a	n/a	n/a	n/a	n/a	n/a	n/a	task-social/cue/runtype-cognitive/scl/l031.png	n/a	n/a	n/a	n/a	n/a	n/a	n/a	n/a
373.49	n/a	cognitive	expectrating	12	low_cue	n/a	n/a	n/a	6.47	Weak	0.82	3.93	task-social/cue/runtype-cognitive/scl/l031.png	n/a	n/a	n/a	n/a	n/a	n/a	n/a	n/a
380.29	5.0	cognitive	stimulus	12	low_cue	low_stim	n/a	n/a	n/a	n/a	n/a	n/a	task-social/stim/runtype-cognitive/8_50.jpg	n/a	n/a	n/a	n/a	n/a	same	same	True
395.0	2.27	cognitive	outcomerating	12	low_cue	low_stim	3.95	Weak	3.95	Weak	0.82	3.93	task-social/outcomerating/task-cognitive_scale.png	n/a	n/a	n/a	n/a	n/a	n/a	n/a	n/a
