onset	duration	subtask_type	question	event_type	participant_response	normative_response	response_accuracy	stim_file	trial_index
0.085	2.034	tomspunt	reaching?	block_question_presentation	n/a	n/a	n/a	n/a	0
0.085	0.3	tomspunt	reaching?	block_question_presentation	n/a	n/a	n/a	n/a	1
0.085	0.3	tomspunt	reaching?	block_question_presentation	n/a	n/a	n/a	n/a	2
0.085	0.3	tomspunt	reaching?	block_question_presentation	n/a	n/a	n/a	n/a	3
0.085	0.3	tomspunt	reaching?	block_question_presentation	n/a	n/a	n/a	n/a	4
0.085	0.3	tomspunt	reaching?	block_question_presentation	n/a	n/a	n/a	n/a	5
0.085	0.3	tomspunt	reaching?	block_question_presentation	n/a	n/a	n/a	n/a	6
0.085	0.3	tomspunt	reaching?	block_question_presentation	n/a	n/a	n/a	n/a	7
5.029	0.041	tomspunt	reaching?	how_hand	yes	yes	correct	task-tomspunt/H_007.jpg	0
5.379	0.023	tomspunt	reaching?	how_hand	yes	no	incorrect	task-tomspunt/H_532.jpg	1
5.713	0.023	tomspunt	reaching?	how_hand	yes	yes	correct	task-tomspunt/H_474.jpg	2
6.046	n/a	tomspunt	reaching?	how_hand	n/a	no	incorrect	task-tomspunt/H_438.jpg	3
8.08	1.291	tomspunt	reaching?	how_hand	yes	yes	correct	task-tomspunt/H_364.jpg	4
9.681	0.804	tomspunt	reaching?	how_hand	yes	yes	correct	task-tomspunt/H_006.jpg	5
10.798	0.838	tomspunt	reaching?	how_hand	yes	yes	correct	task-tomspunt/H_003.jpg	6
11.948	0.887	tomspunt	reaching?	how_hand	no	no	correct	task-tomspunt/H_132.jpg	7
17.541	2.101	tomspunt	healthy?	block_question_presentation	n/a	n/a	n/a	n/a	8
17.541	0.3	tomspunt	healthy?	block_question_presentation	n/a	n/a	n/a	n/a	9
17.541	0.3	tomspunt	healthy?	block_question_presentation	n/a	n/a	n/a	n/a	10
17.541	0.3	tomspunt	healthy?	block_question_presentation	n/a	n/a	n/a	n/a	11
17.541	0.3	tomspunt	healthy?	block_question_presentation	n/a	n/a	n/a	n/a	12
17.541	0.3	tomspunt	healthy?	block_question_presentation	n/a	n/a	n/a	n/a	13
17.541	0.3	tomspunt	healthy?	block_question_presentation	n/a	n/a	n/a	n/a	14
17.541	0.3	tomspunt	healthy?	block_question_presentation	n/a	n/a	n/a	n/a	15
22.552	0.836	tomspunt	healthy?	why_hand	no	yes	incorrect	task-tomspunt/H_627.jpg	8
23.703	0.686	tomspunt	healthy?	why_hand	yes	yes	correct	task-tomspunt/H_438.jpg	9
24.703	0.736	tomspunt	healthy?	why_hand	no	yes	incorrect	task-tomspunt/H_364.jpg	10
25.754	0.869	tomspunt	healthy?	why_hand	yes	no	incorrect	task-tomspunt/H_130.jpg	11
26.937	1.148	tomspunt	healthy?	why_hand	yes	yes	correct	task-tomspunt/H_362.jpg	12
28.388	0.802	tomspunt	healthy?	why_hand	no	no	correct	task-tomspunt/H_007.jpg	13
29.505	0.63	tomspunt	healthy?	why_hand	yes	yes	correct	task-tomspunt/H_167.jpg	14
30.439	0.952	tomspunt	healthy?	why_hand	no	no	correct	task-tomspunt/H_019.jpg	15
36.649	2.101	tomspunt	admiring?	block_question_presentation	n/a	n/a	n/a	n/a	16
36.649	0.3	tomspunt	admiring?	block_question_presentation	n/a	n/a	n/a	n/a	17
36.649	0.3	tomspunt	admiring?	block_question_presentation	n/a	n/a	n/a	n/a	18
36.649	0.3	tomspunt	admiring?	block_question_presentation	n/a	n/a	n/a	n/a	19
36.649	0.3	tomspunt	admiring?	block_question_presentation	n/a	n/a	n/a	n/a	20
36.649	0.3	tomspunt	admiring?	block_question_presentation	n/a	n/a	n/a	n/a	21
36.649	0.3	tomspunt	admiring?	block_question_presentation	n/a	n/a	n/a	n/a	22
36.649	0.3	tomspunt	admiring?	block_question_presentation	n/a	n/a	n/a	n/a	23
41.659	0.519	tomspunt	admiring?	why_face	yes	yes	correct	task-tomspunt/F_779.jpg	16
42.493	0.493	tomspunt	admiring?	why_face	yes	yes	correct	task-tomspunt/F_593.jpg	17
43.293	0.67	tomspunt	admiring?	why_face	no	no	correct	task-tomspunt/F_110.jpg	18
44.277	0.492	tomspunt	admiring?	why_face	yes	yes	correct	task-tomspunt/F_590.jpg	19
45.077	0.691	tomspunt	admiring?	why_face	yes	no	incorrect	task-tomspunt/F_692.jpg	20
46.078	0.508	tomspunt	admiring?	why_face	yes	yes	correct	task-tomspunt/F_759.jpg	21
46.895	0.807	tomspunt	admiring?	why_face	yes	yes	correct	task-tomspunt/F_648.jpg	22
48.012	0.836	tomspunt	admiring?	why_face	no	no	correct	task-tomspunt/F_129.jpg	23
55.622	2.084	tomspunt	smiling?	block_question_presentation	n/a	n/a	n/a	n/a	24
55.622	0.3	tomspunt	smiling?	block_question_presentation	n/a	n/a	n/a	n/a	25
55.622	0.3	tomspunt	smiling?	block_question_presentation	n/a	n/a	n/a	n/a	26
55.622	0.3	tomspunt	smiling?	block_question_presentation	n/a	n/a	n/a	n/a	27
55.622	0.3	tomspunt	smiling?	block_question_presentation	n/a	n/a	n/a	n/a	28
55.622	0.3	tomspunt	smiling?	block_question_presentation	n/a	n/a	n/a	n/a	29
55.622	0.3	tomspunt	smiling?	block_question_presentation	n/a	n/a	n/a	n/a	30
55.622	0.3	tomspunt	smiling?	block_question_presentation	n/a	n/a	n/a	n/a	31
60.617	0.503	tomspunt	smiling?	how_face	yes	yes	correct	task-tomspunt/F_139.jpg	24
61.433	0.802	tomspunt	smiling?	how_face	no	no	correct	task-tomspunt/F_712.jpg	25
62.551	0.519	tomspunt	smiling?	how_face	yes	yes	correct	task-tomspunt/F_695.jpg	26
63.384	0.769	tomspunt	smiling?	how_face	no	no	correct	task-tomspunt/F_758.jpg	27
64.468	0.536	tomspunt	smiling?	how_face	yes	yes	correct	task-tomspunt/F_083.jpg	28
65.318	0.819	tomspunt	smiling?	how_face	yes	yes	correct	task-tomspunt/F_759.jpg	29
66.452	0.652	tomspunt	smiling?	how_face	no	no	correct	task-tomspunt/F_412.jpg	30
67.419	0.619	tomspunt	smiling?	how_face	yes	yes	correct	task-tomspunt/F_593.jpg	31
73.146	2.101	tomspunt	lifting?	block_question_presentation	n/a	n/a	n/a	n/a	32
73.146	0.3	tomspunt	lifting?	block_question_presentation	n/a	n/a	n/a	n/a	33
73.146	0.3	tomspunt	lifting?	block_question_presentation	n/a	n/a	n/a	n/a	34
73.146	0.3	tomspunt	lifting?	block_question_presentation	n/a	n/a	n/a	n/a	35
73.146	0.3	tomspunt	lifting?	block_question_presentation	n/a	n/a	n/a	n/a	36
73.146	0.3	tomspunt	lifting?	block_question_presentation	n/a	n/a	n/a	n/a	37
73.146	0.3	tomspunt	lifting?	block_question_presentation	n/a	n/a	n/a	n/a	38
73.146	0.3	tomspunt	lifting?	block_question_presentation	n/a	n/a	n/a	n/a	39
78.156	0.986	tomspunt	lifting?	how_hand	yes	yes	correct	task-tomspunt/H_136.jpg	32
79.457	1.145	tomspunt	lifting?	how_hand	yes	no	incorrect	task-tomspunt/H_038.jpg	33
80.907	0.862	tomspunt	lifting?	how_hand	yes	yes	correct	task-tomspunt/H_189.jpg	34
82.075	0.886	tomspunt	lifting?	how_hand	no	no	correct	task-tomspunt/H_077.jpg	35
83.275	0.727	tomspunt	lifting?	how_hand	yes	yes	correct	task-tomspunt/H_443.jpg	36
84.309	0.794	tomspunt	lifting?	how_hand	no	no	correct	task-tomspunt/H_012.jpg	37
85.409	0.652	tomspunt	lifting?	how_hand	yes	yes	correct	task-tomspunt/H_362.jpg	38
86.376	0.686	tomspunt	lifting?	how_hand	yes	yes	correct	task-tomspunt/H_170.jpg	39
95.621	2.101	tomspunt	helping?	block_question_presentation	n/a	n/a	n/a	n/a	40
95.621	0.3	tomspunt	helping?	block_question_presentation	n/a	n/a	n/a	n/a	41
95.621	0.3	tomspunt	helping?	block_question_presentation	n/a	n/a	n/a	n/a	42
95.621	0.3	tomspunt	helping?	block_question_presentation	n/a	n/a	n/a	n/a	43
95.621	0.3	tomspunt	helping?	block_question_presentation	n/a	n/a	n/a	n/a	44
95.621	0.3	tomspunt	helping?	block_question_presentation	n/a	n/a	n/a	n/a	45
95.621	0.3	tomspunt	helping?	block_question_presentation	n/a	n/a	n/a	n/a	46
95.621	0.3	tomspunt	helping?	block_question_presentation	n/a	n/a	n/a	n/a	47
100.631	0.671	tomspunt	helping?	why_hand	yes	yes	correct	task-tomspunt/H_077.jpg	40
101.615	0.62	tomspunt	helping?	why_hand	yes	yes	correct	task-tomspunt/H_349.jpg	41
102.549	0.836	tomspunt	helping?	why_hand	yes	yes	correct	task-tomspunt/H_474.jpg	42
103.699	0.836	tomspunt	helping?	why_hand	no	yes	incorrect	task-tomspunt/H_024.jpg	43
104.85	0.603	tomspunt	helping?	why_hand	yes	no	incorrect	task-tomspunt/H_012.jpg	44
105.767	1.219	tomspunt	helping?	why_hand	no	no	correct	task-tomspunt/H_159.jpg	45
107.301	0.919	tomspunt	helping?	why_hand	yes	yes	correct	task-tomspunt/H_111.jpg	46
108.534	0.886	tomspunt	helping?	why_hand	no	no	correct	task-tomspunt/H_091.jpg	47
113.494	2.101	tomspunt	proud?	block_question_presentation	n/a	n/a	n/a	n/a	48
113.494	0.3	tomspunt	proud?	block_question_presentation	n/a	n/a	n/a	n/a	49
113.494	0.3	tomspunt	proud?	block_question_presentation	n/a	n/a	n/a	n/a	50
113.494	0.3	tomspunt	proud?	block_question_presentation	n/a	n/a	n/a	n/a	51
113.494	0.3	tomspunt	proud?	block_question_presentation	n/a	n/a	n/a	n/a	52
113.494	0.3	tomspunt	proud?	block_question_presentation	n/a	n/a	n/a	n/a	53
113.494	0.3	tomspunt	proud?	block_question_presentation	n/a	n/a	n/a	n/a	54
113.494	0.3	tomspunt	proud?	block_question_presentation	n/a	n/a	n/a	n/a	55
118.505	0.585	tomspunt	proud?	why_face	yes	yes	correct	task-tomspunt/F_598.jpg	48
119.405	0.686	tomspunt	proud?	why_face	no	no	correct	task-tomspunt/F_760.jpg	49
120.405	0.569	tomspunt	proud?	why_face	yes	yes	correct	task-tomspunt/F_582.jpg	50
121.289	0.736	tomspunt	proud?	why_face	no	no	correct	task-tomspunt/F_412.jpg	51
122.34	0.553	tomspunt	proud?	why_face	yes	yes	correct	task-tomspunt/F_083.jpg	52
123.207	0.862	tomspunt	proud?	why_face	yes	no	incorrect	task-tomspunt/F_776.jpg	53
124.374	0.652	tomspunt	proud?	why_face	yes	yes	correct	task-tomspunt/F_618.jpg	54
125.341	0.787	tomspunt	proud?	why_face	yes	yes	correct	task-tomspunt/F_695.jpg	55
131.034	2.101	tomspunt	looking to side?	block_question_presentation	n/a	n/a	n/a	n/a	56
131.034	0.3	tomspunt	looking to side?	block_question_presentation	n/a	n/a	n/a	n/a	57
131.034	0.3	tomspunt	looking to side?	block_question_presentation	n/a	n/a	n/a	n/a	58
131.034	0.3	tomspunt	looking to side?	block_question_presentation	n/a	n/a	n/a	n/a	59
131.034	0.3	tomspunt	looking to side?	block_question_presentation	n/a	n/a	n/a	n/a	60
131.034	0.3	tomspunt	looking to side?	block_question_presentation	n/a	n/a	n/a	n/a	61
131.034	0.3	tomspunt	looking to side?	block_question_presentation	n/a	n/a	n/a	n/a	62
131.034	0.3	tomspunt	looking to side?	block_question_presentation	n/a	n/a	n/a	n/a	63
136.045	0.807	tomspunt	looking to side?	how_face	yes	yes	correct	task-tomspunt/F_590.jpg	56
137.162	0.657	tomspunt	looking to side?	how_face	yes	yes	correct	task-tomspunt/F_433.jpg	57
138.129	0.523	tomspunt	looking to side?	how_face	yes	yes	correct	task-tomspunt/F_716.jpg	58
138.962	0.607	tomspunt	looking to side?	how_face	no	no	correct	task-tomspunt/F_779.jpg	59
139.879	0.803	tomspunt	looking to side?	how_face	yes	yes	correct	task-tomspunt/F_760.jpg	60
140.996	0.739	tomspunt	looking to side?	how_face	no	no	correct	task-tomspunt/F_111.jpg	61
142.047	0.586	tomspunt	looking to side?	how_face	yes	yes	correct	task-tomspunt/F_110.jpg	62
142.947	0.888	tomspunt	looking to side?	how_face	no	no	correct	task-tomspunt/F_798.jpg	63
150.141	2.101	tomspunt	argument?	block_question_presentation	n/a	n/a	n/a	n/a	64
150.141	0.3	tomspunt	argument?	block_question_presentation	n/a	n/a	n/a	n/a	65
150.141	0.3	tomspunt	argument?	block_question_presentation	n/a	n/a	n/a	n/a	66
150.141	0.3	tomspunt	argument?	block_question_presentation	n/a	n/a	n/a	n/a	67
150.141	0.3	tomspunt	argument?	block_question_presentation	n/a	n/a	n/a	n/a	68
150.141	0.3	tomspunt	argument?	block_question_presentation	n/a	n/a	n/a	n/a	69
150.141	0.3	tomspunt	argument?	block_question_presentation	n/a	n/a	n/a	n/a	70
150.141	0.3	tomspunt	argument?	block_question_presentation	n/a	n/a	n/a	n/a	71
155.152	1.019	tomspunt	argument?	why_face	yes	yes	correct	task-tomspunt/F_716.jpg	64
156.486	0.736	tomspunt	argument?	why_face	no	no	correct	task-tomspunt/F_139.jpg	65
157.536	0.636	tomspunt	argument?	why_face	yes	yes	correct	task-tomspunt/F_712.jpg	66
158.486	0.952	tomspunt	argument?	why_face	no	no	correct	task-tomspunt/F_433.jpg	67
159.753	0.669	tomspunt	argument?	why_face	yes	yes	correct	task-tomspunt/F_403.jpg	68
160.737	0.969	tomspunt	argument?	why_face	yes	no	incorrect	task-tomspunt/F_844.jpg	69
162.021	0.619	tomspunt	argument?	why_face	yes	yes	correct	task-tomspunt/F_743.jpg	70
162.955	0.736	tomspunt	argument?	why_face	yes	yes	correct	task-tomspunt/F_758.jpg	71
167.981	2.101	tomspunt	open mouth?	block_question_presentation	n/a	n/a	n/a	n/a	72
167.981	0.3	tomspunt	open mouth?	block_question_presentation	n/a	n/a	n/a	n/a	73
167.981	0.3	tomspunt	open mouth?	block_question_presentation	n/a	n/a	n/a	n/a	74
167.981	0.3	tomspunt	open mouth?	block_question_presentation	n/a	n/a	n/a	n/a	75
167.981	0.3	tomspunt	open mouth?	block_question_presentation	n/a	n/a	n/a	n/a	76
167.981	0.3	tomspunt	open mouth?	block_question_presentation	n/a	n/a	n/a	n/a	77
167.981	0.3	tomspunt	open mouth?	block_question_presentation	n/a	n/a	n/a	n/a	78
167.981	0.3	tomspunt	open mouth?	block_question_presentation	n/a	n/a	n/a	n/a	79
172.992	0.719	tomspunt	open mouth?	how_face	yes	yes	correct	task-tomspunt/F_844.jpg	72
174.025	0.577	tomspunt	open mouth?	how_face	yes	yes	correct	task-tomspunt/F_776.jpg	73
174.909	0.603	tomspunt	open mouth?	how_face	no	no	correct	task-tomspunt/F_544.jpg	74
175.826	0.443	tomspunt	open mouth?	how_face	yes	yes	correct	task-tomspunt/F_692.jpg	75
176.576	0.676	tomspunt	open mouth?	how_face	no	no	correct	task-tomspunt/F_584.jpg	76
177.56	0.502	tomspunt	open mouth?	how_face	yes	yes	correct	task-tomspunt/F_403.jpg	77
178.377	0.625	tomspunt	open mouth?	how_face	yes	yes	correct	task-tomspunt/F_086.jpg	78
179.311	0.669	tomspunt	open mouth?	how_face	no	no	correct	task-tomspunt/F_648.jpg	79
185.871	2.101	tomspunt	pressing button?	block_question_presentation	n/a	n/a	n/a	n/a	80
185.871	0.3	tomspunt	pressing button?	block_question_presentation	n/a	n/a	n/a	n/a	81
185.871	0.3	tomspunt	pressing button?	block_question_presentation	n/a	n/a	n/a	n/a	82
185.871	0.3	tomspunt	pressing button?	block_question_presentation	n/a	n/a	n/a	n/a	83
185.871	0.3	tomspunt	pressing button?	block_question_presentation	n/a	n/a	n/a	n/a	84
185.871	0.3	tomspunt	pressing button?	block_question_presentation	n/a	n/a	n/a	n/a	85
185.871	0.3	tomspunt	pressing button?	block_question_presentation	n/a	n/a	n/a	n/a	86
185.871	0.3	tomspunt	pressing button?	block_question_presentation	n/a	n/a	n/a	n/a	87
190.882	0.637	tomspunt	pressing button?	how_hand	yes	yes	correct	task-tomspunt/H_019.jpg	80
191.832	0.637	tomspunt	pressing button?	how_hand	no	no	correct	task-tomspunt/H_024.jpg	81
192.782	0.686	tomspunt	pressing button?	how_hand	no	no	correct	task-tomspunt/H_130.jpg	82
193.783	0.536	tomspunt	pressing button?	how_hand	yes	yes	correct	task-tomspunt/H_502.jpg	83
194.633	0.702	tomspunt	pressing button?	how_hand	no	no	correct	task-tomspunt/H_261.jpg	84
195.65	0.586	tomspunt	pressing button?	how_hand	yes	yes	correct	task-tomspunt/H_332.jpg	85
196.551	0.736	tomspunt	pressing button?	how_hand	yes	yes	correct	task-tomspunt/H_126.jpg	86
197.601	0.886	tomspunt	pressing button?	how_hand	yes	yes	correct	task-tomspunt/H_483.jpg	87
203.661	2.101	tomspunt	competing?	block_question_presentation	n/a	n/a	n/a	n/a	88
203.661	0.3	tomspunt	competing?	block_question_presentation	n/a	n/a	n/a	n/a	89
203.661	0.3	tomspunt	competing?	block_question_presentation	n/a	n/a	n/a	n/a	90
203.661	0.3	tomspunt	competing?	block_question_presentation	n/a	n/a	n/a	n/a	91
203.661	0.3	tomspunt	competing?	block_question_presentation	n/a	n/a	n/a	n/a	92
203.661	0.3	tomspunt	competing?	block_question_presentation	n/a	n/a	n/a	n/a	93
203.661	0.3	tomspunt	competing?	block_question_presentation	n/a	n/a	n/a	n/a	94
203.661	0.3	tomspunt	competing?	block_question_presentation	n/a	n/a	n/a	n/a	95
208.672	0.581	tomspunt	competing?	why_hand	yes	yes	correct	task-tomspunt/H_261.jpg	88
209.555	0.719	tomspunt	competing?	why_hand	no	no	correct	task-tomspunt/H_483.jpg	89
210.589	0.485	tomspunt	competing?	why_hand	yes	yes	correct	task-tomspunt/H_132.jpg	90
211.389	0.763	tomspunt	competing?	why_hand	no	no	correct	task-tomspunt/H_126.jpg	91
212.456	0.829	tomspunt	competing?	why_hand	yes	yes	correct	task-tomspunt/H_136.jpg	92
213.59	0.812	tomspunt	competing?	why_hand	no	no	correct	task-tomspunt/H_502.jpg	93
214.707	0.695	tomspunt	competing?	why_hand	yes	yes	correct	task-tomspunt/H_003.jpg	94
215.708	0.636	tomspunt	competing?	why_hand	yes	yes	correct	task-tomspunt/H_170.jpg	95
221.734	2.101	tomspunt	self-doubt?	block_question_presentation	n/a	n/a	n/a	n/a	96
221.734	0.3	tomspunt	self-doubt?	block_question_presentation	n/a	n/a	n/a	n/a	97
221.734	0.3	tomspunt	self-doubt?	block_question_presentation	n/a	n/a	n/a	n/a	98
221.734	0.3	tomspunt	self-doubt?	block_question_presentation	n/a	n/a	n/a	n/a	99
221.734	0.3	tomspunt	self-doubt?	block_question_presentation	n/a	n/a	n/a	n/a	100
221.734	0.3	tomspunt	self-doubt?	block_question_presentation	n/a	n/a	n/a	n/a	101
221.734	0.3	tomspunt	self-doubt?	block_question_presentation	n/a	n/a	n/a	n/a	102
221.734	0.3	tomspunt	self-doubt?	block_question_presentation	n/a	n/a	n/a	n/a	103
226.745	0.757	tomspunt	self-doubt?	why_face	yes	yes	correct	task-tomspunt/F_544.jpg	96
227.812	0.807	tomspunt	self-doubt?	why_face	yes	no	incorrect	task-tomspunt/F_086.jpg	97
228.929	0.673	tomspunt	self-doubt?	why_face	yes	yes	correct	task-tomspunt/F_798.jpg	98
229.913	0.606	tomspunt	self-doubt?	why_face	yes	yes	correct	task-tomspunt/F_111.jpg	99
230.83	0.603	tomspunt	self-doubt?	why_face	no	no	correct	task-tomspunt/F_774.jpg	100
231.747	0.689	tomspunt	self-doubt?	why_face	yes	yes	correct	task-tomspunt/F_754.jpg	101
232.747	1.255	tomspunt	self-doubt?	why_face	no	no	correct	task-tomspunt/F_128.jpg	102
234.315	0.971	tomspunt	self-doubt?	why_face	yes	yes	correct	task-tomspunt/F_584.jpg	103
240.791	2.084	tomspunt	looking at camera?	block_question_presentation	n/a	n/a	n/a	n/a	104
240.791	0.3	tomspunt	looking at camera?	block_question_presentation	n/a	n/a	n/a	n/a	105
240.791	0.3	tomspunt	looking at camera?	block_question_presentation	n/a	n/a	n/a	n/a	106
240.791	0.3	tomspunt	looking at camera?	block_question_presentation	n/a	n/a	n/a	n/a	107
240.791	0.3	tomspunt	looking at camera?	block_question_presentation	n/a	n/a	n/a	n/a	108
240.791	0.3	tomspunt	looking at camera?	block_question_presentation	n/a	n/a	n/a	n/a	109
240.791	0.3	tomspunt	looking at camera?	block_question_presentation	n/a	n/a	n/a	n/a	110
240.791	0.3	tomspunt	looking at camera?	block_question_presentation	n/a	n/a	n/a	n/a	111
245.786	0.552	tomspunt	looking at camera?	how_face	yes	yes	correct	task-tomspunt/F_128.jpg	104
246.653	0.519	tomspunt	looking at camera?	how_face	yes	yes	correct	task-tomspunt/F_618.jpg	105
247.486	0.553	tomspunt	looking at camera?	how_face	yes	yes	correct	task-tomspunt/F_598.jpg	106
248.353	0.586	tomspunt	looking at camera?	how_face	no	no	correct	task-tomspunt/F_743.jpg	107
249.254	0.552	tomspunt	looking at camera?	how_face	yes	yes	correct	task-tomspunt/F_774.jpg	108
250.121	0.999	tomspunt	looking at camera?	how_face	yes	no	incorrect	task-tomspunt/F_582.jpg	109
251.421	0.848	tomspunt	looking at camera?	how_face	no	no	correct	task-tomspunt/F_754.jpg	110
252.571	0.586	tomspunt	looking at camera?	how_face	yes	yes	correct	task-tomspunt/F_129.jpg	111
259.582	2.084	tomspunt	both hands?	block_question_presentation	n/a	n/a	n/a	n/a	112
259.582	0.3	tomspunt	both hands?	block_question_presentation	n/a	n/a	n/a	n/a	113
259.582	0.3	tomspunt	both hands?	block_question_presentation	n/a	n/a	n/a	n/a	114
259.582	0.3	tomspunt	both hands?	block_question_presentation	n/a	n/a	n/a	n/a	115
259.582	0.3	tomspunt	both hands?	block_question_presentation	n/a	n/a	n/a	n/a	116
259.582	0.3	tomspunt	both hands?	block_question_presentation	n/a	n/a	n/a	n/a	117
259.582	0.3	tomspunt	both hands?	block_question_presentation	n/a	n/a	n/a	n/a	118
259.582	0.3	tomspunt	both hands?	block_question_presentation	n/a	n/a	n/a	n/a	119
264.576	0.919	tomspunt	both hands?	how_hand	yes	yes	correct	task-tomspunt/H_167.jpg	112
265.81	0.803	tomspunt	both hands?	how_hand	no	no	correct	task-tomspunt/H_091.jpg	113
266.927	0.702	tomspunt	both hands?	how_hand	no	no	correct	task-tomspunt/H_627.jpg	114
267.944	0.692	tomspunt	both hands?	how_hand	yes	yes	correct	task-tomspunt/H_027.jpg	115
268.944	0.775	tomspunt	both hands?	how_hand	yes	yes	correct	task-tomspunt/H_111.jpg	116
270.028	0.874	tomspunt	both hands?	how_hand	no	no	correct	task-tomspunt/H_159.jpg	117
271.212	0.774	tomspunt	both hands?	how_hand	yes	yes	correct	task-tomspunt/H_581.jpg	118
272.295	0.707	tomspunt	both hands?	how_hand	yes	yes	correct	task-tomspunt/H_349.jpg	119
278.372	2.084	tomspunt	self-protection?	block_question_presentation	n/a	n/a	n/a	n/a	120
278.372	0.3	tomspunt	self-protection?	block_question_presentation	n/a	n/a	n/a	n/a	121
278.372	0.3	tomspunt	self-protection?	block_question_presentation	n/a	n/a	n/a	n/a	122
278.372	0.3	tomspunt	self-protection?	block_question_presentation	n/a	n/a	n/a	n/a	123
278.372	0.3	tomspunt	self-protection?	block_question_presentation	n/a	n/a	n/a	n/a	124
278.372	0.3	tomspunt	self-protection?	block_question_presentation	n/a	n/a	n/a	n/a	125
278.372	0.3	tomspunt	self-protection?	block_question_presentation	n/a	n/a	n/a	n/a	126
278.372	0.3	tomspunt	self-protection?	block_question_presentation	n/a	n/a	n/a	n/a	127
283.366	0.569	tomspunt	self-protection?	why_hand	yes	yes	correct	task-tomspunt/H_443.jpg	120
284.25	0.703	tomspunt	self-protection?	why_hand	no	no	correct	task-tomspunt/H_006.jpg	121
285.267	0.602	tomspunt	self-protection?	why_hand	yes	yes	correct	task-tomspunt/H_581.jpg	122
286.184	0.902	tomspunt	self-protection?	why_hand	no	no	correct	task-tomspunt/H_532.jpg	123
287.401	0.851	tomspunt	self-protection?	why_hand	yes	yes	correct	task-tomspunt/H_027.jpg	124
288.552	0.902	tomspunt	self-protection?	why_hand	yes	yes	correct	task-tomspunt/H_038.jpg	125
289.769	0.936	tomspunt	self-protection?	why_hand	no	no	correct	task-tomspunt/H_332.jpg	126
291.019	1.152	tomspunt	self-protection?	why_hand	yes	yes	correct	task-tomspunt/H_189.jpg	127
299.847	2.101	tomspunt	smiling?	block_question_presentation	n/a	n/a	n/a	n/a	128
299.847	0.3	tomspunt	smiling?	block_question_presentation	n/a	n/a	n/a	n/a	129
299.847	0.3	tomspunt	smiling?	block_question_presentation	n/a	n/a	n/a	n/a	130
299.847	0.3	tomspunt	smiling?	block_question_presentation	n/a	n/a	n/a	n/a	131
299.847	0.3	tomspunt	smiling?	block_question_presentation	n/a	n/a	n/a	n/a	132
299.847	0.3	tomspunt	smiling?	block_question_presentation	n/a	n/a	n/a	n/a	133
299.847	0.3	tomspunt	smiling?	block_question_presentation	n/a	n/a	n/a	n/a	134
299.847	0.3	tomspunt	smiling?	block_question_presentation	n/a	n/a	n/a	n/a	135
304.858	0.636	tomspunt	smiling?	how_face	yes	yes	correct	task-tomspunt/F_759.jpg	128
305.808	0.028	tomspunt	smiling?	how_face	yes	no	incorrect	task-tomspunt/F_412.jpg	129
306.141	0.978	tomspunt	smiling?	how_face	yes	yes	correct	task-tomspunt/F_593.jpg	130
307.425	0.686	tomspunt	smiling?	how_face	no	no	correct	task-tomspunt/F_712.jpg	131
308.426	0.677	tomspunt	smiling?	how_face	yes	yes	correct	task-tomspunt/F_695.jpg	132
309.409	0.719	tomspunt	smiling?	how_face	yes	yes	correct	task-tomspunt/F_139.jpg	133
310.443	0.626	tomspunt	smiling?	how_face	yes	yes	correct	task-tomspunt/F_083.jpg	134
311.377	0.725	tomspunt	smiling?	how_face	no	no	correct	task-tomspunt/F_758.jpg	135
317.637	2.101	tomspunt	admiring?	block_question_presentation	n/a	n/a	n/a	n/a	136
317.637	0.3	tomspunt	admiring?	block_question_presentation	n/a	n/a	n/a	n/a	137
317.637	0.3	tomspunt	admiring?	block_question_presentation	n/a	n/a	n/a	n/a	138
317.637	0.3	tomspunt	admiring?	block_question_presentation	n/a	n/a	n/a	n/a	139
317.637	0.3	tomspunt	admiring?	block_question_presentation	n/a	n/a	n/a	n/a	140
317.637	0.3	tomspunt	admiring?	block_question_presentation	n/a	n/a	n/a	n/a	141
317.637	0.3	tomspunt	admiring?	block_question_presentation	n/a	n/a	n/a	n/a	142
317.637	0.3	tomspunt	admiring?	block_question_presentation	n/a	n/a	n/a	n/a	143
322.648	0.619	tomspunt	admiring?	why_face	yes	yes	correct	task-tomspunt/F_593.jpg	136
323.581	0.854	tomspunt	admiring?	why_face	no	no	correct	task-tomspunt/F_129.jpg	137
324.748	0.719	tomspunt	admiring?	why_face	yes	yes	correct	task-tomspunt/F_759.jpg	138
325.782	0.636	tomspunt	admiring?	why_face	no	no	correct	task-tomspunt/F_692.jpg	139
326.732	0.686	tomspunt	admiring?	why_face	yes	yes	correct	task-tomspunt/F_779.jpg	140
327.733	0.702	tomspunt	admiring?	why_face	yes	yes	correct	task-tomspunt/F_590.jpg	141
328.75	0.753	tomspunt	admiring?	why_face	yes	yes	correct	task-tomspunt/F_648.jpg	142
329.817	0.719	tomspunt	admiring?	why_face	no	no	correct	task-tomspunt/F_110.jpg	143
335.527	2.101	tomspunt	competing?	block_question_presentation	n/a	n/a	n/a	n/a	144
335.527	0.3	tomspunt	competing?	block_question_presentation	n/a	n/a	n/a	n/a	145
335.527	0.3	tomspunt	competing?	block_question_presentation	n/a	n/a	n/a	n/a	146
335.527	0.3	tomspunt	competing?	block_question_presentation	n/a	n/a	n/a	n/a	147
335.527	0.3	tomspunt	competing?	block_question_presentation	n/a	n/a	n/a	n/a	148
335.527	0.3	tomspunt	competing?	block_question_presentation	n/a	n/a	n/a	n/a	149
335.527	0.3	tomspunt	competing?	block_question_presentation	n/a	n/a	n/a	n/a	150
335.527	0.3	tomspunt	competing?	block_question_presentation	n/a	n/a	n/a	n/a	151
340.538	0.619	tomspunt	competing?	why_hand	yes	yes	correct	task-tomspunt/H_261.jpg	144
341.471	0.619	tomspunt	competing?	why_hand	yes	yes	correct	task-tomspunt/H_170.jpg	145
342.405	0.819	tomspunt	competing?	why_hand	no	no	correct	task-tomspunt/H_483.jpg	146
343.539	0.614	tomspunt	competing?	why_hand	yes	yes	correct	task-tomspunt/H_132.jpg	147
344.456	0.83	tomspunt	competing?	why_hand	yes	yes	correct	task-tomspunt/H_136.jpg	148
345.589	0.746	tomspunt	competing?	why_hand	yes	yes	correct	task-tomspunt/H_003.jpg	149
346.64	0.903	tomspunt	competing?	why_hand	no	no	correct	task-tomspunt/H_126.jpg	150
347.857	0.836	tomspunt	competing?	why_hand	no	no	correct	task-tomspunt/H_502.jpg	151
357.001	2.101	tomspunt	reaching?	block_question_presentation	n/a	n/a	n/a	n/a	152
357.001	0.3	tomspunt	reaching?	block_question_presentation	n/a	n/a	n/a	n/a	153
357.001	0.3	tomspunt	reaching?	block_question_presentation	n/a	n/a	n/a	n/a	154
357.001	0.3	tomspunt	reaching?	block_question_presentation	n/a	n/a	n/a	n/a	155
357.001	0.3	tomspunt	reaching?	block_question_presentation	n/a	n/a	n/a	n/a	156
357.001	0.3	tomspunt	reaching?	block_question_presentation	n/a	n/a	n/a	n/a	157
357.001	0.3	tomspunt	reaching?	block_question_presentation	n/a	n/a	n/a	n/a	158
357.001	0.3	tomspunt	reaching?	block_question_presentation	n/a	n/a	n/a	n/a	159
362.012	0.557	tomspunt	reaching?	how_hand	yes	yes	correct	task-tomspunt/H_003.jpg	152
362.879	0.64	tomspunt	reaching?	how_hand	yes	yes	correct	task-tomspunt/H_364.jpg	153
363.83	0.853	tomspunt	reaching?	how_hand	no	no	correct	task-tomspunt/H_532.jpg	154
364.997	0.722	tomspunt	reaching?	how_hand	yes	yes	correct	task-tomspunt/H_006.jpg	155
366.03	1.019	tomspunt	reaching?	how_hand	no	no	correct	task-tomspunt/H_438.jpg	156
367.364	0.688	tomspunt	reaching?	how_hand	yes	yes	correct	task-tomspunt/H_007.jpg	157
368.365	0.837	tomspunt	reaching?	how_hand	yes	yes	correct	task-tomspunt/H_474.jpg	158
369.515	0.921	tomspunt	reaching?	how_hand	no	no	correct	task-tomspunt/H_132.jpg	159
374.841	2.101	tomspunt	open mouth?	block_question_presentation	n/a	n/a	n/a	n/a	160
374.841	0.3	tomspunt	open mouth?	block_question_presentation	n/a	n/a	n/a	n/a	161
374.841	0.3	tomspunt	open mouth?	block_question_presentation	n/a	n/a	n/a	n/a	162
374.841	0.3	tomspunt	open mouth?	block_question_presentation	n/a	n/a	n/a	n/a	163
374.841	0.3	tomspunt	open mouth?	block_question_presentation	n/a	n/a	n/a	n/a	164
374.841	0.3	tomspunt	open mouth?	block_question_presentation	n/a	n/a	n/a	n/a	165
374.841	0.3	tomspunt	open mouth?	block_question_presentation	n/a	n/a	n/a	n/a	166
374.841	0.3	tomspunt	open mouth?	block_question_presentation	n/a	n/a	n/a	n/a	167
379.852	0.519	tomspunt	open mouth?	how_face	yes	yes	correct	task-tomspunt/F_403.jpg	160
380.686	0.536	tomspunt	open mouth?	how_face	no	no	correct	task-tomspunt/F_648.jpg	161
381.536	0.502	tomspunt	open mouth?	how_face	yes	yes	correct	task-tomspunt/F_776.jpg	162
382.353	0.549	tomspunt	open mouth?	how_face	no	no	correct	task-tomspunt/F_584.jpg	163
383.203	0.515	tomspunt	open mouth?	how_face	yes	yes	correct	task-tomspunt/F_844.jpg	164
384.02	0.653	tomspunt	open mouth?	how_face	yes	yes	correct	task-tomspunt/F_692.jpg	165
384.987	0.653	tomspunt	open mouth?	how_face	yes	yes	correct	task-tomspunt/F_086.jpg	166
385.955	0.703	tomspunt	open mouth?	how_face	no	no	correct	task-tomspunt/F_544.jpg	167
393.515	2.101	tomspunt	argument?	block_question_presentation	n/a	n/a	n/a	n/a	168
393.515	0.3	tomspunt	argument?	block_question_presentation	n/a	n/a	n/a	n/a	169
393.515	0.3	tomspunt	argument?	block_question_presentation	n/a	n/a	n/a	n/a	170
393.515	0.3	tomspunt	argument?	block_question_presentation	n/a	n/a	n/a	n/a	171
393.515	0.3	tomspunt	argument?	block_question_presentation	n/a	n/a	n/a	n/a	172
393.515	0.3	tomspunt	argument?	block_question_presentation	n/a	n/a	n/a	n/a	173
393.515	0.3	tomspunt	argument?	block_question_presentation	n/a	n/a	n/a	n/a	174
393.515	0.3	tomspunt	argument?	block_question_presentation	n/a	n/a	n/a	n/a	175
398.526	0.736	tomspunt	argument?	why_face	yes	yes	correct	task-tomspunt/F_403.jpg	168
399.576	0.569	tomspunt	argument?	why_face	no	no	correct	task-tomspunt/F_844.jpg	169
400.46	1.31	tomspunt	argument?	why_face	yes	yes	correct	task-tomspunt/F_712.jpg	170
402.077	0.725	tomspunt	argument?	why_face	yes	yes	correct	task-tomspunt/F_758.jpg	171
403.111	1.124	tomspunt	argument?	why_face	no	no	correct	task-tomspunt/F_433.jpg	172
404.545	0.936	tomspunt	argument?	why_face	yes	yes	correct	task-tomspunt/F_716.jpg	173
405.795	0.657	tomspunt	argument?	why_face	no	no	correct	task-tomspunt/F_139.jpg	174
406.762	0.707	tomspunt	argument?	why_face	yes	yes	correct	task-tomspunt/F_743.jpg	175
411.738	2.101	tomspunt	helping?	block_question_presentation	n/a	n/a	n/a	n/a	176
411.738	0.3	tomspunt	helping?	block_question_presentation	n/a	n/a	n/a	n/a	177
411.738	0.3	tomspunt	helping?	block_question_presentation	n/a	n/a	n/a	n/a	178
411.738	0.3	tomspunt	helping?	block_question_presentation	n/a	n/a	n/a	n/a	179
411.738	0.3	tomspunt	helping?	block_question_presentation	n/a	n/a	n/a	n/a	180
411.738	0.3	tomspunt	helping?	block_question_presentation	n/a	n/a	n/a	n/a	181
411.738	0.3	tomspunt	helping?	block_question_presentation	n/a	n/a	n/a	n/a	182
411.738	0.3	tomspunt	helping?	block_question_presentation	n/a	n/a	n/a	n/a	183
416.749	1.219	tomspunt	helping?	why_hand	yes	yes	correct	task-tomspunt/H_024.jpg	176
418.283	1.003	tomspunt	helping?	why_hand	yes	yes	correct	task-tomspunt/H_349.jpg	177
419.6	0.636	tomspunt	helping?	why_hand	yes	yes	correct	task-tomspunt/H_077.jpg	178
420.551	0.686	tomspunt	helping?	why_hand	yes	yes	correct	task-tomspunt/H_474.jpg	179
421.551	0.718	tomspunt	helping?	why_hand	no	no	correct	task-tomspunt/H_091.jpg	180
422.568	0.819	tomspunt	helping?	why_hand	no	no	correct	task-tomspunt/H_159.jpg	181
423.702	0.636	tomspunt	helping?	why_hand	yes	yes	correct	task-tomspunt/H_111.jpg	182
424.652	0.783	tomspunt	helping?	why_hand	no	no	correct	task-tomspunt/H_012.jpg	183
429.812	2.101	tomspunt	both hands?	block_question_presentation	n/a	n/a	n/a	n/a	184
429.812	0.3	tomspunt	both hands?	block_question_presentation	n/a	n/a	n/a	n/a	185
429.812	0.3	tomspunt	both hands?	block_question_presentation	n/a	n/a	n/a	n/a	186
429.812	0.3	tomspunt	both hands?	block_question_presentation	n/a	n/a	n/a	n/a	187
429.812	0.3	tomspunt	both hands?	block_question_presentation	n/a	n/a	n/a	n/a	188
429.812	0.3	tomspunt	both hands?	block_question_presentation	n/a	n/a	n/a	n/a	189
429.812	0.3	tomspunt	both hands?	block_question_presentation	n/a	n/a	n/a	n/a	190
429.812	0.3	tomspunt	both hands?	block_question_presentation	n/a	n/a	n/a	n/a	191
434.823	0.579	tomspunt	both hands?	how_hand	yes	yes	correct	task-tomspunt/H_111.jpg	184
435.706	0.729	tomspunt	both hands?	how_hand	yes	yes	correct	task-tomspunt/H_027.jpg	185
436.74	0.653	tomspunt	both hands?	how_hand	no	no	correct	task-tomspunt/H_091.jpg	186
437.707	0.652	tomspunt	both hands?	how_hand	yes	yes	correct	task-tomspunt/H_167.jpg	187
438.674	0.911	tomspunt	both hands?	how_hand	yes	yes	correct	task-tomspunt/H_581.jpg	188
439.891	0.678	tomspunt	both hands?	how_hand	no	no	correct	task-tomspunt/H_159.jpg	189
440.875	0.661	tomspunt	both hands?	how_hand	yes	yes	correct	task-tomspunt/H_349.jpg	190
441.842	0.844	tomspunt	both hands?	how_hand	no	no	correct	task-tomspunt/H_627.jpg	191
447.335	2.084	tomspunt	healthy?	block_question_presentation	n/a	n/a	n/a	n/a	192
447.335	0.3	tomspunt	healthy?	block_question_presentation	n/a	n/a	n/a	n/a	193
447.335	0.3	tomspunt	healthy?	block_question_presentation	n/a	n/a	n/a	n/a	194
447.335	0.3	tomspunt	healthy?	block_question_presentation	n/a	n/a	n/a	n/a	195
447.335	0.3	tomspunt	healthy?	block_question_presentation	n/a	n/a	n/a	n/a	196
447.335	0.3	tomspunt	healthy?	block_question_presentation	n/a	n/a	n/a	n/a	197
447.335	0.3	tomspunt	healthy?	block_question_presentation	n/a	n/a	n/a	n/a	198
447.335	0.3	tomspunt	healthy?	block_question_presentation	n/a	n/a	n/a	n/a	199
452.329	0.723	tomspunt	healthy?	why_hand	yes	yes	correct	task-tomspunt/H_438.jpg	192
453.363	0.889	tomspunt	healthy?	why_hand	yes	yes	correct	task-tomspunt/H_364.jpg	193
454.563	0.755	tomspunt	healthy?	why_hand	yes	yes	correct	task-tomspunt/H_362.jpg	194
455.63	0.788	tomspunt	healthy?	why_hand	no	no	correct	task-tomspunt/H_019.jpg	195
456.731	0.655	tomspunt	healthy?	why_hand	yes	yes	correct	task-tomspunt/H_167.jpg	196
457.698	0.704	tomspunt	healthy?	why_hand	no	no	correct	task-tomspunt/H_007.jpg	197
458.715	0.987	tomspunt	healthy?	why_hand	no	yes	incorrect	task-tomspunt/H_627.jpg	198
460.015	1.52	tomspunt	healthy?	why_hand	no	no	correct	task-tomspunt/H_130.jpg	199
466.376	2.101	tomspunt	pressing button?	block_question_presentation	n/a	n/a	n/a	n/a	200
466.376	0.3	tomspunt	pressing button?	block_question_presentation	n/a	n/a	n/a	n/a	201
466.376	0.3	tomspunt	pressing button?	block_question_presentation	n/a	n/a	n/a	n/a	202
466.376	0.3	tomspunt	pressing button?	block_question_presentation	n/a	n/a	n/a	n/a	203
466.376	0.3	tomspunt	pressing button?	block_question_presentation	n/a	n/a	n/a	n/a	204
466.376	0.3	tomspunt	pressing button?	block_question_presentation	n/a	n/a	n/a	n/a	205
466.376	0.3	tomspunt	pressing button?	block_question_presentation	n/a	n/a	n/a	n/a	206
466.376	0.3	tomspunt	pressing button?	block_question_presentation	n/a	n/a	n/a	n/a	207
471.386	0.536	tomspunt	pressing button?	how_hand	yes	yes	correct	task-tomspunt/H_126.jpg	200
472.237	0.569	tomspunt	pressing button?	how_hand	no	no	correct	task-tomspunt/H_130.jpg	201
473.12	0.566	tomspunt	pressing button?	how_hand	yes	yes	correct	task-tomspunt/H_483.jpg	202
473.987	0.569	tomspunt	pressing button?	how_hand	no	no	correct	task-tomspunt/H_024.jpg	203
474.871	0.581	tomspunt	pressing button?	how_hand	yes	yes	correct	task-tomspunt/H_332.jpg	204
475.755	0.619	tomspunt	pressing button?	how_hand	yes	yes	correct	task-tomspunt/H_019.jpg	205
476.688	0.602	tomspunt	pressing button?	how_hand	no	no	correct	task-tomspunt/H_261.jpg	206
477.605	0.586	tomspunt	pressing button?	how_hand	yes	yes	correct	task-tomspunt/H_502.jpg	207
483.915	2.101	tomspunt	looking at camera?	block_question_presentation	n/a	n/a	n/a	n/a	208
483.915	0.3	tomspunt	looking at camera?	block_question_presentation	n/a	n/a	n/a	n/a	209
483.915	0.3	tomspunt	looking at camera?	block_question_presentation	n/a	n/a	n/a	n/a	210
483.915	0.3	tomspunt	looking at camera?	block_question_presentation	n/a	n/a	n/a	n/a	211
483.915	0.3	tomspunt	looking at camera?	block_question_presentation	n/a	n/a	n/a	n/a	212
483.915	0.3	tomspunt	looking at camera?	block_question_presentation	n/a	n/a	n/a	n/a	213
483.915	0.3	tomspunt	looking at camera?	block_question_presentation	n/a	n/a	n/a	n/a	214
483.915	0.3	tomspunt	looking at camera?	block_question_presentation	n/a	n/a	n/a	n/a	215
488.926	0.452	tomspunt	looking at camera?	how_face	yes	yes	correct	task-tomspunt/F_618.jpg	208
489.693	0.609	tomspunt	looking at camera?	how_face	no	no	correct	task-tomspunt/F_754.jpg	209
490.61	0.519	tomspunt	looking at camera?	how_face	yes	yes	correct	task-tomspunt/F_129.jpg	210
491.444	0.725	tomspunt	looking at camera?	how_face	yes	yes	correct	task-tomspunt/F_598.jpg	211
492.478	0.858	tomspunt	looking at camera?	how_face	yes	yes	correct	task-tomspunt/F_128.jpg	212
493.645	0.924	tomspunt	looking at camera?	how_face	no	no	correct	task-tomspunt/F_582.jpg	213
494.878	0.552	tomspunt	looking at camera?	how_face	yes	yes	correct	task-tomspunt/F_774.jpg	214
495.745	0.624	tomspunt	looking at camera?	how_face	no	no	correct	task-tomspunt/F_743.jpg	215
502.872	2.101	tomspunt	self-doubt?	block_question_presentation	n/a	n/a	n/a	n/a	216
502.872	0.3	tomspunt	self-doubt?	block_question_presentation	n/a	n/a	n/a	n/a	217
502.872	0.3	tomspunt	self-doubt?	block_question_presentation	n/a	n/a	n/a	n/a	218
502.872	0.3	tomspunt	self-doubt?	block_question_presentation	n/a	n/a	n/a	n/a	219
502.872	0.3	tomspunt	self-doubt?	block_question_presentation	n/a	n/a	n/a	n/a	220
502.872	0.3	tomspunt	self-doubt?	block_question_presentation	n/a	n/a	n/a	n/a	221
502.872	0.3	tomspunt	self-doubt?	block_question_presentation	n/a	n/a	n/a	n/a	222
502.872	0.3	tomspunt	self-doubt?	block_question_presentation	n/a	n/a	n/a	n/a	223
507.883	1.036	tomspunt	self-doubt?	why_face	yes	yes	correct	task-tomspunt/F_798.jpg	216
509.234	0.752	tomspunt	self-doubt?	why_face	no	no	correct	task-tomspunt/F_086.jpg	217
510.284	0.619	tomspunt	self-doubt?	why_face	yes	yes	correct	task-tomspunt/F_544.jpg	218
511.218	0.652	tomspunt	self-doubt?	why_face	yes	yes	correct	task-tomspunt/F_754.jpg	219
512.185	0.636	tomspunt	self-doubt?	why_face	yes	yes	correct	task-tomspunt/F_111.jpg	220
513.135	0.703	tomspunt	self-doubt?	why_face	yes	yes	correct	task-tomspunt/F_584.jpg	221
514.152	0.953	tomspunt	self-doubt?	why_face	no	no	correct	task-tomspunt/F_128.jpg	222
515.419	0.752	tomspunt	self-doubt?	why_face	no	no	correct	task-tomspunt/F_774.jpg	223
520.396	2.101	tomspunt	self-protection?	block_question_presentation	n/a	n/a	n/a	n/a	224
520.396	0.3	tomspunt	self-protection?	block_question_presentation	n/a	n/a	n/a	n/a	225
520.396	0.3	tomspunt	self-protection?	block_question_presentation	n/a	n/a	n/a	n/a	226
520.396	0.3	tomspunt	self-protection?	block_question_presentation	n/a	n/a	n/a	n/a	227
520.396	0.3	tomspunt	self-protection?	block_question_presentation	n/a	n/a	n/a	n/a	228
520.396	0.3	tomspunt	self-protection?	block_question_presentation	n/a	n/a	n/a	n/a	229
520.396	0.3	tomspunt	self-protection?	block_question_presentation	n/a	n/a	n/a	n/a	230
520.396	0.3	tomspunt	self-protection?	block_question_presentation	n/a	n/a	n/a	n/a	231
525.407	1.686	tomspunt	self-protection?	why_hand	yes	yes	correct	task-tomspunt/H_581.jpg	224
527.407	0.796	tomspunt	self-protection?	why_hand	yes	yes	correct	task-tomspunt/H_443.jpg	225
528.508	0.869	tomspunt	self-protection?	why_hand	no	no	correct	task-tomspunt/H_332.jpg	226
529.691	0.661	tomspunt	self-protection?	why_hand	yes	yes	correct	task-tomspunt/H_027.jpg	227
530.658	0.803	tomspunt	self-protection?	why_hand	no	no	correct	task-tomspunt/H_532.jpg	228
531.776	0.743	tomspunt	self-protection?	why_hand	yes	yes	correct	task-tomspunt/H_189.jpg	229
532.826	1.026	tomspunt	self-protection?	why_hand	no	no	correct	task-tomspunt/H_006.jpg	230
534.16	0.976	tomspunt	self-protection?	why_hand	no	yes	incorrect	task-tomspunt/H_038.jpg	231
538.619	2.084	tomspunt	lifting?	block_question_presentation	n/a	n/a	n/a	n/a	232
538.619	0.3	tomspunt	lifting?	block_question_presentation	n/a	n/a	n/a	n/a	233
538.619	0.3	tomspunt	lifting?	block_question_presentation	n/a	n/a	n/a	n/a	234
538.619	0.3	tomspunt	lifting?	block_question_presentation	n/a	n/a	n/a	n/a	235
538.619	0.3	tomspunt	lifting?	block_question_presentation	n/a	n/a	n/a	n/a	236
538.619	0.3	tomspunt	lifting?	block_question_presentation	n/a	n/a	n/a	n/a	237
538.619	0.3	tomspunt	lifting?	block_question_presentation	n/a	n/a	n/a	n/a	238
538.619	0.3	tomspunt	lifting?	block_question_presentation	n/a	n/a	n/a	n/a	239
543.613	1.122	tomspunt	lifting?	how_hand	yes	yes	correct	task-tomspunt/H_443.jpg	232
545.047	1.587	tomspunt	lifting?	how_hand	no	no	correct	task-tomspunt/H_038.jpg	233
546.948	0.787	tomspunt	lifting?	how_hand	yes	yes	correct	task-tomspunt/H_136.jpg	234
548.048	0.604	tomspunt	lifting?	how_hand	no	no	correct	task-tomspunt/H_012.jpg	235
548.965	0.754	tomspunt	lifting?	how_hand	yes	yes	correct	task-tomspunt/H_362.jpg	236
550.032	1.07	tomspunt	lifting?	how_hand	no	yes	incorrect	task-tomspunt/H_189.jpg	237
551.416	1.136	tomspunt	lifting?	how_hand	no	yes	incorrect	task-tomspunt/H_170.jpg	238
552.867	0.969	tomspunt	lifting?	how_hand	no	no	correct	task-tomspunt/H_077.jpg	239
556.492	2.101	tomspunt	looking to side?	block_question_presentation	n/a	n/a	n/a	n/a	240
556.492	0.3	tomspunt	looking to side?	block_question_presentation	n/a	n/a	n/a	n/a	241
556.492	0.3	tomspunt	looking to side?	block_question_presentation	n/a	n/a	n/a	n/a	242
556.492	0.3	tomspunt	looking to side?	block_question_presentation	n/a	n/a	n/a	n/a	243
556.492	0.3	tomspunt	looking to side?	block_question_presentation	n/a	n/a	n/a	n/a	244
556.492	0.3	tomspunt	looking to side?	block_question_presentation	n/a	n/a	n/a	n/a	245
556.492	0.3	tomspunt	looking to side?	block_question_presentation	n/a	n/a	n/a	n/a	246
556.492	0.3	tomspunt	looking to side?	block_question_presentation	n/a	n/a	n/a	n/a	247
561.503	n/a	tomspunt	looking to side?	how_face	n/a	yes	incorrect	task-tomspunt/F_716.jpg	240
563.537	0.869	tomspunt	looking to side?	how_face	yes	no	incorrect	task-tomspunt/F_798.jpg	241
564.721	0.619	tomspunt	looking to side?	how_face	yes	yes	correct	task-tomspunt/F_760.jpg	242
565.655	0.019	tomspunt	looking to side?	how_face	yes	yes	correct	task-tomspunt/F_110.jpg	243
565.988	0.736	tomspunt	looking to side?	how_face	no	no	correct	task-tomspunt/F_779.jpg	244
567.039	0.586	tomspunt	looking to side?	how_face	yes	yes	correct	task-tomspunt/F_590.jpg	245
567.939	0.936	tomspunt	looking to side?	how_face	yes	no	incorrect	task-tomspunt/F_111.jpg	246
569.19	0.48	tomspunt	looking to side?	how_face	no	yes	incorrect	task-tomspunt/F_433.jpg	247
578.968	2.101	tomspunt	proud?	block_question_presentation	n/a	n/a	n/a	n/a	248
578.968	0.3	tomspunt	proud?	block_question_presentation	n/a	n/a	n/a	n/a	249
578.968	0.3	tomspunt	proud?	block_question_presentation	n/a	n/a	n/a	n/a	250
578.968	0.3	tomspunt	proud?	block_question_presentation	n/a	n/a	n/a	n/a	251
578.968	0.3	tomspunt	proud?	block_question_presentation	n/a	n/a	n/a	n/a	252
578.968	0.3	tomspunt	proud?	block_question_presentation	n/a	n/a	n/a	n/a	253
578.968	0.3	tomspunt	proud?	block_question_presentation	n/a	n/a	n/a	n/a	254
578.968	0.3	tomspunt	proud?	block_question_presentation	n/a	n/a	n/a	n/a	255
583.978	0.507	tomspunt	proud?	why_face	yes	yes	correct	task-tomspunt/F_083.jpg	248
584.795	0.624	tomspunt	proud?	why_face	yes	yes	correct	task-tomspunt/F_582.jpg	249
585.729	0.59	tomspunt	proud?	why_face	yes	yes	correct	task-tomspunt/F_618.jpg	250
586.629	1.286	tomspunt	proud?	why_face	no	no	correct	task-tomspunt/F_776.jpg	251
588.23	0.822	tomspunt	proud?	why_face	yes	yes	correct	task-tomspunt/F_598.jpg	252
589.364	0.838	tomspunt	proud?	why_face	no	no	correct	task-tomspunt/F_760.jpg	253
590.514	0.753	tomspunt	proud?	why_face	no	no	correct	task-tomspunt/F_412.jpg	254
591.581	0.704	tomspunt	proud?	why_face	yes	yes	correct	task-tomspunt/F_695.jpg	255
