onset	duration	subtask_type	question	event_type	participant_response	normative_response	response_accuracy	stim_file
5.024	1.323	tomspunt	reaching?	how_hand	yes	yes	correct	task-tomspunt/H_007.jpg
6.657	1.104	tomspunt	reaching?	how_hand	no	no	correct	task-tomspunt/H_532.jpg
8.075	0.972	tomspunt	reaching?	how_hand	yes	yes	correct	task-tomspunt/H_474.jpg
9.358	0.687	tomspunt	reaching?	how_hand	yes	no	incorrect	task-tomspunt/H_438.jpg
10.359	0.787	tomspunt	reaching?	how_hand	yes	yes	correct	task-tomspunt/H_364.jpg
11.459	0.836	tomspunt	reaching?	how_hand	yes	yes	correct	task-tomspunt/H_006.jpg
12.61	0.985	tomspunt	reaching?	how_hand	yes	yes	correct	task-tomspunt/H_003.jpg
13.91	0.818	tomspunt	reaching?	how_hand	no	no	correct	task-tomspunt/H_132.jpg
22.547	1.218	tomspunt	healthy?	why_hand	yes	yes	correct	task-tomspunt/H_627.jpg
24.081	1.336	tomspunt	healthy?	why_hand	yes	yes	correct	task-tomspunt/H_438.jpg
25.731	0.881	tomspunt	healthy?	why_hand	yes	yes	correct	task-tomspunt/H_364.jpg
26.915	0.835	tomspunt	healthy?	why_hand	no	no	correct	task-tomspunt/H_130.jpg
28.065	0.802	tomspunt	healthy?	why_hand	yes	yes	correct	task-tomspunt/H_362.jpg
29.183	1.03	tomspunt	healthy?	why_hand	no	no	correct	task-tomspunt/H_007.jpg
30.516	0.718	tomspunt	healthy?	why_hand	yes	yes	correct	task-tomspunt/H_167.jpg
31.55	1.029	tomspunt	healthy?	why_hand	no	no	correct	task-tomspunt/H_019.jpg
41.654	1.735	tomspunt	admiring?	why_face	yes	yes	correct	task-tomspunt/F_779.jpg
43.688	0.758	tomspunt	admiring?	why_face	yes	yes	correct	task-tomspunt/F_593.jpg
44.755	1.124	tomspunt	admiring?	why_face	no	no	correct	task-tomspunt/F_110.jpg
46.189	0.774	tomspunt	admiring?	why_face	yes	yes	correct	task-tomspunt/F_590.jpg
47.273	1.073	tomspunt	admiring?	why_face	no	no	correct	task-tomspunt/F_692.jpg
48.656	0.689	tomspunt	admiring?	why_face	yes	yes	correct	task-tomspunt/F_759.jpg
49.657	0.755	tomspunt	admiring?	why_face	yes	yes	correct	task-tomspunt/F_648.jpg
50.724	0.955	tomspunt	admiring?	why_face	no	no	correct	task-tomspunt/F_129.jpg
60.628	0.735	tomspunt	smiling?	how_face	yes	yes	correct	task-tomspunt/F_139.jpg
61.678	0.685	tomspunt	smiling?	how_face	no	no	correct	task-tomspunt/F_712.jpg
62.678	0.802	tomspunt	smiling?	how_face	yes	yes	correct	task-tomspunt/F_695.jpg
63.795	0.785	tomspunt	smiling?	how_face	no	no	correct	task-tomspunt/F_758.jpg
64.896	0.635	tomspunt	smiling?	how_face	yes	yes	correct	task-tomspunt/F_083.jpg
65.846	0.652	tomspunt	smiling?	how_face	yes	yes	correct	task-tomspunt/F_759.jpg
66.813	0.702	tomspunt	smiling?	how_face	no	no	correct	task-tomspunt/F_412.jpg
67.83	0.785	tomspunt	smiling?	how_face	yes	yes	correct	task-tomspunt/F_593.jpg
78.151	1.002	tomspunt	lifting?	how_hand	no	yes	incorrect	task-tomspunt/H_136.jpg
79.468	1.394	tomspunt	lifting?	how_hand	no	no	correct	task-tomspunt/H_038.jpg
81.169	0.943	tomspunt	lifting?	how_hand	yes	yes	correct	task-tomspunt/H_189.jpg
82.419	0.719	tomspunt	lifting?	how_hand	no	no	correct	task-tomspunt/H_077.jpg
83.453	0.969	tomspunt	lifting?	how_hand	yes	yes	correct	task-tomspunt/H_443.jpg
84.737	0.801	tomspunt	lifting?	how_hand	no	no	correct	task-tomspunt/H_012.jpg
85.854	0.759	tomspunt	lifting?	how_hand	yes	yes	correct	task-tomspunt/H_362.jpg
86.921	0.942	tomspunt	lifting?	how_hand	no	yes	incorrect	task-tomspunt/H_170.jpg
100.643	0.819	tomspunt	helping?	why_hand	yes	yes	correct	task-tomspunt/H_077.jpg
101.776	0.985	tomspunt	helping?	why_hand	yes	yes	correct	task-tomspunt/H_349.jpg
103.077	1.135	tomspunt	helping?	why_hand	no	yes	incorrect	task-tomspunt/H_474.jpg
104.527	1.702	tomspunt	helping?	why_hand	yes	yes	correct	task-tomspunt/H_024.jpg
106.545	1.201	tomspunt	helping?	why_hand	no	no	correct	task-tomspunt/H_012.jpg
108.062	1.335	tomspunt	helping?	why_hand	no	no	correct	task-tomspunt/H_159.jpg
109.713	1.085	tomspunt	helping?	why_hand	yes	yes	correct	task-tomspunt/H_111.jpg
111.113	1.268	tomspunt	helping?	why_hand	no	no	correct	task-tomspunt/H_091.jpg
118.516	0.918	tomspunt	proud?	why_face	yes	yes	correct	task-tomspunt/F_598.jpg
119.75	0.018	tomspunt	proud?	why_face	yes	no	incorrect	task-tomspunt/F_760.jpg
120.083	1.797	tomspunt	proud?	why_face	yes	yes	correct	task-tomspunt/F_582.jpg
122.117	0.745	tomspunt	proud?	why_face	no	no	correct	task-tomspunt/F_412.jpg
123.168	0.868	tomspunt	proud?	why_face	yes	yes	correct	task-tomspunt/F_083.jpg
124.351	1.035	tomspunt	proud?	why_face	no	no	correct	task-tomspunt/F_776.jpg
125.702	0.835	tomspunt	proud?	why_face	yes	yes	correct	task-tomspunt/F_618.jpg
126.852	1.285	tomspunt	proud?	why_face	yes	yes	correct	task-tomspunt/F_695.jpg
136.039	0.601	tomspunt	looking to side?	how_face	yes	yes	correct	task-tomspunt/F_590.jpg
136.956	0.656	tomspunt	looking to side?	how_face	yes	yes	correct	task-tomspunt/F_433.jpg
137.923	0.685	tomspunt	looking to side?	how_face	yes	yes	correct	task-tomspunt/F_716.jpg
138.923	1.606	tomspunt	looking to side?	how_face	yes	no	incorrect	task-tomspunt/F_779.jpg
140.841	0.971	tomspunt	looking to side?	how_face	no	yes	incorrect	task-tomspunt/F_760.jpg
142.125	1.088	tomspunt	looking to side?	how_face	no	no	correct	task-tomspunt/F_111.jpg
143.525	1.452	tomspunt	looking to side?	how_face	no	yes	incorrect	task-tomspunt/F_110.jpg
145.293	1.086	tomspunt	looking to side?	how_face	no	no	correct	task-tomspunt/F_798.jpg
155.146	0.802	tomspunt	argument?	why_face	yes	yes	correct	task-tomspunt/F_716.jpg
156.263	0.682	tomspunt	argument?	why_face	no	no	correct	task-tomspunt/F_139.jpg
157.247	0.635	tomspunt	argument?	why_face	yes	yes	correct	task-tomspunt/F_712.jpg
158.197	1.035	tomspunt	argument?	why_face	yes	no	incorrect	task-tomspunt/F_433.jpg
159.548	0.768	tomspunt	argument?	why_face	yes	yes	correct	task-tomspunt/F_403.jpg
160.632	1.002	tomspunt	argument?	why_face	no	no	correct	task-tomspunt/F_844.jpg
161.949	0.697	tomspunt	argument?	why_face	yes	yes	correct	task-tomspunt/F_743.jpg
162.949	0.963	tomspunt	argument?	why_face	yes	yes	correct	task-tomspunt/F_758.jpg
172.986	0.918	tomspunt	open mouth?	how_face	yes	yes	correct	task-tomspunt/F_844.jpg
174.22	0.751	tomspunt	open mouth?	how_face	yes	yes	correct	task-tomspunt/F_776.jpg
175.287	0.735	tomspunt	open mouth?	how_face	no	no	correct	task-tomspunt/F_544.jpg
176.337	0.541	tomspunt	open mouth?	how_face	yes	yes	correct	task-tomspunt/F_692.jpg
177.188	0.641	tomspunt	open mouth?	how_face	no	no	correct	task-tomspunt/F_584.jpg
178.138	0.591	tomspunt	open mouth?	how_face	yes	yes	correct	task-tomspunt/F_403.jpg
179.038	0.591	tomspunt	open mouth?	how_face	yes	yes	correct	task-tomspunt/F_086.jpg
179.939	0.624	tomspunt	open mouth?	how_face	no	no	correct	task-tomspunt/F_648.jpg
190.876	0.836	tomspunt	pressing button?	how_hand	yes	yes	correct	task-tomspunt/H_019.jpg
192.027	0.752	tomspunt	pressing button?	how_hand	no	no	correct	task-tomspunt/H_024.jpg
193.094	0.701	tomspunt	pressing button?	how_hand	no	no	correct	task-tomspunt/H_130.jpg
194.111	0.618	tomspunt	pressing button?	how_hand	yes	yes	correct	task-tomspunt/H_502.jpg
195.044	1.019	tomspunt	pressing button?	how_hand	no	no	correct	task-tomspunt/H_261.jpg
196.378	0.669	tomspunt	pressing button?	how_hand	yes	yes	correct	task-tomspunt/H_332.jpg
197.362	0.718	tomspunt	pressing button?	how_hand	yes	yes	correct	task-tomspunt/H_126.jpg
198.396	0.802	tomspunt	pressing button?	how_hand	yes	yes	correct	task-tomspunt/H_483.jpg
208.666	0.568	tomspunt	competing?	why_hand	yes	yes	correct	task-tomspunt/H_261.jpg
209.55	0.702	tomspunt	competing?	why_hand	no	no	correct	task-tomspunt/H_483.jpg
210.567	0.612	tomspunt	competing?	why_hand	yes	yes	correct	task-tomspunt/H_132.jpg
211.484	0.935	tomspunt	competing?	why_hand	no	no	correct	task-tomspunt/H_126.jpg
212.734	0.701	tomspunt	competing?	why_hand	yes	yes	correct	task-tomspunt/H_136.jpg
213.751	1.118	tomspunt	competing?	why_hand	no	no	correct	task-tomspunt/H_502.jpg
215.185	0.668	tomspunt	competing?	why_hand	yes	yes	correct	task-tomspunt/H_003.jpg
216.169	0.61	tomspunt	competing?	why_hand	yes	yes	correct	task-tomspunt/H_170.jpg
226.74	0.839	tomspunt	self-doubt?	why_face	yes	yes	correct	task-tomspunt/F_544.jpg
227.89	0.772	tomspunt	self-doubt?	why_face	no	no	correct	task-tomspunt/F_086.jpg
228.974	0.639	tomspunt	self-doubt?	why_face	yes	yes	correct	task-tomspunt/F_798.jpg
229.924	0.638	tomspunt	self-doubt?	why_face	yes	yes	correct	task-tomspunt/F_111.jpg
230.874	0.755	tomspunt	self-doubt?	why_face	no	no	correct	task-tomspunt/F_774.jpg
231.941	0.804	tomspunt	self-doubt?	why_face	yes	yes	correct	task-tomspunt/F_754.jpg
233.059	0.986	tomspunt	self-doubt?	why_face	no	no	correct	task-tomspunt/F_128.jpg
234.359	1.103	tomspunt	self-doubt?	why_face	no	yes	incorrect	task-tomspunt/F_584.jpg
245.797	1.018	tomspunt	looking at camera?	how_face	yes	yes	correct	task-tomspunt/F_128.jpg
247.13	0.585	tomspunt	looking at camera?	how_face	yes	yes	correct	task-tomspunt/F_618.jpg
248.031	0.748	tomspunt	looking at camera?	how_face	yes	yes	correct	task-tomspunt/F_598.jpg
249.081	0.564	tomspunt	looking at camera?	how_face	no	no	correct	task-tomspunt/F_743.jpg
249.948	0.702	tomspunt	looking at camera?	how_face	yes	yes	correct	task-tomspunt/F_774.jpg
250.965	1.085	tomspunt	looking at camera?	how_face	no	no	correct	task-tomspunt/F_582.jpg
252.366	0.779	tomspunt	looking at camera?	how_face	no	no	correct	task-tomspunt/F_754.jpg
253.45	0.702	tomspunt	looking at camera?	how_face	yes	yes	correct	task-tomspunt/F_129.jpg
264.587	1.091	tomspunt	both hands?	how_hand	yes	yes	correct	task-tomspunt/H_167.jpg
265.988	0.841	tomspunt	both hands?	how_hand	no	no	correct	task-tomspunt/H_091.jpg
267.138	0.841	tomspunt	both hands?	how_hand	no	no	correct	task-tomspunt/H_627.jpg
268.288	0.819	tomspunt	both hands?	how_hand	yes	yes	correct	task-tomspunt/H_027.jpg
269.422	0.852	tomspunt	both hands?	how_hand	yes	yes	correct	task-tomspunt/H_111.jpg
270.589	0.756	tomspunt	both hands?	how_hand	no	no	correct	task-tomspunt/H_159.jpg
271.656	0.856	tomspunt	both hands?	how_hand	yes	yes	correct	task-tomspunt/H_581.jpg
272.823	0.706	tomspunt	both hands?	how_hand	yes	yes	correct	task-tomspunt/H_349.jpg
283.377	1.485	tomspunt	self-protection?	why_hand	yes	yes	correct	task-tomspunt/H_443.jpg
285.178	1.101	tomspunt	self-protection?	why_hand	no	no	correct	task-tomspunt/H_006.jpg
286.595	1.352	tomspunt	self-protection?	why_hand	yes	yes	correct	task-tomspunt/H_581.jpg
288.263	1.218	tomspunt	self-protection?	why_hand	no	no	correct	task-tomspunt/H_532.jpg
289.796	0.852	tomspunt	self-protection?	why_hand	yes	yes	correct	task-tomspunt/H_027.jpg
290.964	0.915	tomspunt	self-protection?	why_hand	yes	yes	correct	task-tomspunt/H_038.jpg
292.181	0.919	tomspunt	self-protection?	why_hand	no	no	correct	task-tomspunt/H_332.jpg
293.414	1.435	tomspunt	self-protection?	why_hand	yes	yes	correct	task-tomspunt/H_189.jpg
304.852	0.968	tomspunt	smiling?	how_face	yes	yes	correct	task-tomspunt/F_759.jpg
306.136	0.576	tomspunt	smiling?	how_face	no	no	correct	task-tomspunt/F_412.jpg
307.019	0.976	tomspunt	smiling?	how_face	yes	yes	correct	task-tomspunt/F_593.jpg
308.303	0.843	tomspunt	smiling?	how_face	no	no	correct	task-tomspunt/F_712.jpg
309.454	0.652	tomspunt	smiling?	how_face	yes	yes	correct	task-tomspunt/F_695.jpg
310.421	0.641	tomspunt	smiling?	how_face	yes	yes	correct	task-tomspunt/F_139.jpg
311.371	0.585	tomspunt	smiling?	how_face	yes	yes	correct	task-tomspunt/F_083.jpg
312.271	0.907	tomspunt	smiling?	how_face	no	no	correct	task-tomspunt/F_758.jpg
322.642	0.804	tomspunt	admiring?	why_face	yes	yes	correct	task-tomspunt/F_593.jpg
323.759	0.803	tomspunt	admiring?	why_face	no	no	correct	task-tomspunt/F_129.jpg
324.876	0.586	tomspunt	admiring?	why_face	yes	yes	correct	task-tomspunt/F_759.jpg
325.776	1.252	tomspunt	admiring?	why_face	no	no	correct	task-tomspunt/F_692.jpg
327.344	0.651	tomspunt	admiring?	why_face	yes	yes	correct	task-tomspunt/F_779.jpg
328.311	1.035	tomspunt	admiring?	why_face	yes	yes	correct	task-tomspunt/F_590.jpg
329.661	1.219	tomspunt	admiring?	why_face	yes	yes	correct	task-tomspunt/F_648.jpg
331.195	0.935	tomspunt	admiring?	why_face	no	no	correct	task-tomspunt/F_110.jpg
340.532	0.98	tomspunt	competing?	why_hand	yes	yes	correct	task-tomspunt/H_261.jpg
341.816	0.618	tomspunt	competing?	why_hand	yes	yes	correct	task-tomspunt/H_170.jpg
342.749	0.779	tomspunt	competing?	why_hand	no	no	correct	task-tomspunt/H_483.jpg
343.833	0.579	tomspunt	competing?	why_hand	yes	yes	correct	task-tomspunt/H_132.jpg
344.717	0.652	tomspunt	competing?	why_hand	yes	yes	correct	task-tomspunt/H_136.jpg
345.684	0.612	tomspunt	competing?	why_hand	yes	yes	correct	task-tomspunt/H_003.jpg
346.601	0.761	tomspunt	competing?	why_hand	no	no	correct	task-tomspunt/H_126.jpg
347.668	1.085	tomspunt	competing?	why_hand	no	no	correct	task-tomspunt/H_502.jpg
362.007	0.822	tomspunt	reaching?	how_hand	yes	yes	correct	task-tomspunt/H_003.jpg
363.14	0.722	tomspunt	reaching?	how_hand	yes	yes	correct	task-tomspunt/H_364.jpg
364.174	0.772	tomspunt	reaching?	how_hand	no	no	correct	task-tomspunt/H_532.jpg
365.258	1.205	tomspunt	reaching?	how_hand	yes	yes	correct	task-tomspunt/H_006.jpg
366.775	0.987	tomspunt	reaching?	how_hand	no	no	correct	task-tomspunt/H_438.jpg
368.076	0.803	tomspunt	reaching?	how_hand	yes	yes	correct	task-tomspunt/H_007.jpg
369.193	0.92	tomspunt	reaching?	how_hand	yes	yes	correct	task-tomspunt/H_474.jpg
370.426	0.886	tomspunt	reaching?	how_hand	no	no	correct	task-tomspunt/H_132.jpg
379.847	0.819	tomspunt	open mouth?	how_face	yes	yes	correct	task-tomspunt/F_403.jpg
380.98	0.635	tomspunt	open mouth?	how_face	no	no	correct	task-tomspunt/F_648.jpg
381.931	0.564	tomspunt	open mouth?	how_face	yes	yes	correct	task-tomspunt/F_776.jpg
382.798	0.715	tomspunt	open mouth?	how_face	no	no	correct	task-tomspunt/F_584.jpg
383.815	0.685	tomspunt	open mouth?	how_face	yes	yes	correct	task-tomspunt/F_844.jpg
384.815	0.964	tomspunt	open mouth?	how_face	yes	yes	correct	task-tomspunt/F_692.jpg
386.082	0.602	tomspunt	open mouth?	how_face	yes	yes	correct	task-tomspunt/F_086.jpg
386.999	0.819	tomspunt	open mouth?	how_face	no	no	correct	task-tomspunt/F_544.jpg
398.537	1.392	tomspunt	argument?	why_face	yes	yes	correct	task-tomspunt/F_403.jpg
400.238	0.608	tomspunt	argument?	why_face	no	no	correct	task-tomspunt/F_844.jpg
401.155	0.585	tomspunt	argument?	why_face	yes	yes	correct	task-tomspunt/F_712.jpg
402.055	0.707	tomspunt	argument?	why_face	yes	yes	correct	task-tomspunt/F_758.jpg
403.072	0.89	tomspunt	argument?	why_face	yes	no	incorrect	task-tomspunt/F_433.jpg
404.272	0.635	tomspunt	argument?	why_face	yes	yes	correct	task-tomspunt/F_716.jpg
405.223	0.652	tomspunt	argument?	why_face	no	no	correct	task-tomspunt/F_139.jpg
406.19	0.672	tomspunt	argument?	why_face	yes	yes	correct	task-tomspunt/F_743.jpg
416.744	1.502	tomspunt	helping?	why_hand	yes	yes	correct	task-tomspunt/H_024.jpg
418.561	0.869	tomspunt	helping?	why_hand	yes	yes	correct	task-tomspunt/H_349.jpg
419.745	0.818	tomspunt	helping?	why_hand	yes	yes	correct	task-tomspunt/H_077.jpg
420.879	0.985	tomspunt	helping?	why_hand	yes	yes	correct	task-tomspunt/H_474.jpg
422.179	0.935	tomspunt	helping?	why_hand	no	no	correct	task-tomspunt/H_091.jpg
423.43	0.852	tomspunt	helping?	why_hand	no	no	correct	task-tomspunt/H_159.jpg
424.597	0.751	tomspunt	helping?	why_hand	yes	yes	correct	task-tomspunt/H_111.jpg
425.664	0.851	tomspunt	helping?	why_hand	no	no	correct	task-tomspunt/H_012.jpg
434.817	0.919	tomspunt	both hands?	how_hand	yes	yes	correct	task-tomspunt/H_111.jpg
436.051	0.619	tomspunt	both hands?	how_hand	yes	yes	correct	task-tomspunt/H_027.jpg
436.985	0.727	tomspunt	both hands?	how_hand	no	no	correct	task-tomspunt/H_091.jpg
438.018	0.778	tomspunt	both hands?	how_hand	yes	yes	correct	task-tomspunt/H_167.jpg
439.102	0.86	tomspunt	both hands?	how_hand	yes	yes	correct	task-tomspunt/H_581.jpg
440.269	0.668	tomspunt	both hands?	how_hand	no	no	correct	task-tomspunt/H_159.jpg
441.253	0.651	tomspunt	both hands?	how_hand	yes	yes	correct	task-tomspunt/H_349.jpg
442.22	0.701	tomspunt	both hands?	how_hand	no	no	correct	task-tomspunt/H_627.jpg
452.34	1.138	tomspunt	healthy?	why_hand	yes	yes	correct	task-tomspunt/H_438.jpg
453.791	0.851	tomspunt	healthy?	why_hand	yes	yes	correct	task-tomspunt/H_364.jpg
454.958	0.737	tomspunt	healthy?	why_hand	yes	yes	correct	task-tomspunt/H_362.jpg
456.008	0.835	tomspunt	healthy?	why_hand	no	no	correct	task-tomspunt/H_019.jpg
457.159	0.735	tomspunt	healthy?	why_hand	yes	yes	correct	task-tomspunt/H_167.jpg
458.209	0.953	tomspunt	healthy?	why_hand	no	no	correct	task-tomspunt/H_007.jpg
459.476	0.702	tomspunt	healthy?	why_hand	yes	yes	correct	task-tomspunt/H_627.jpg
460.493	0.719	tomspunt	healthy?	why_hand	no	no	correct	task-tomspunt/H_130.jpg
471.397	0.568	tomspunt	pressing button?	how_hand	yes	yes	correct	task-tomspunt/H_126.jpg
472.281	0.585	tomspunt	pressing button?	how_hand	no	no	correct	task-tomspunt/H_130.jpg
473.181	0.635	tomspunt	pressing button?	how_hand	yes	yes	correct	task-tomspunt/H_483.jpg
474.132	0.902	tomspunt	pressing button?	how_hand	no	no	correct	task-tomspunt/H_024.jpg
475.349	0.58	tomspunt	pressing button?	how_hand	yes	yes	correct	task-tomspunt/H_332.jpg
476.233	0.551	tomspunt	pressing button?	how_hand	yes	yes	correct	task-tomspunt/H_019.jpg
477.1	0.719	tomspunt	pressing button?	how_hand	no	no	correct	task-tomspunt/H_261.jpg
478.133	0.613	tomspunt	pressing button?	how_hand	yes	yes	correct	task-tomspunt/H_502.jpg
488.921	0.702	tomspunt	looking at camera?	how_face	yes	yes	correct	task-tomspunt/F_618.jpg
489.938	0.641	tomspunt	looking at camera?	how_face	no	no	correct	task-tomspunt/F_754.jpg
490.888	0.607	tomspunt	looking at camera?	how_face	yes	yes	correct	task-tomspunt/F_129.jpg
491.805	1.057	tomspunt	looking at camera?	how_face	yes	yes	correct	task-tomspunt/F_598.jpg
493.172	0.806	tomspunt	looking at camera?	how_face	yes	yes	correct	task-tomspunt/F_128.jpg
494.289	0.951	tomspunt	looking at camera?	how_face	no	no	correct	task-tomspunt/F_582.jpg
495.556	0.552	tomspunt	looking at camera?	how_face	yes	yes	correct	task-tomspunt/F_774.jpg
496.423	0.789	tomspunt	looking at camera?	how_face	no	no	correct	task-tomspunt/F_743.jpg
507.878	0.969	tomspunt	self-doubt?	why_face	yes	yes	correct	task-tomspunt/F_798.jpg
509.162	0.668	tomspunt	self-doubt?	why_face	no	no	correct	task-tomspunt/F_086.jpg
510.129	0.685	tomspunt	self-doubt?	why_face	yes	yes	correct	task-tomspunt/F_544.jpg
511.129	0.668	tomspunt	self-doubt?	why_face	yes	yes	correct	task-tomspunt/F_754.jpg
512.113	0.719	tomspunt	self-doubt?	why_face	yes	yes	correct	task-tomspunt/F_111.jpg
513.146	0.901	tomspunt	self-doubt?	why_face	no	yes	incorrect	task-tomspunt/F_584.jpg
514.363	1.052	tomspunt	self-doubt?	why_face	no	no	correct	task-tomspunt/F_128.jpg
515.731	1.085	tomspunt	self-doubt?	why_face	no	no	correct	task-tomspunt/F_774.jpg
525.401	1.595	tomspunt	self-protection?	why_hand	yes	yes	correct	task-tomspunt/H_581.jpg
527.302	0.818	tomspunt	self-protection?	why_hand	yes	yes	correct	task-tomspunt/H_443.jpg
528.435	1.252	tomspunt	self-protection?	why_hand	no	no	correct	task-tomspunt/H_332.jpg
530.003	0.61	tomspunt	self-protection?	why_hand	yes	yes	correct	task-tomspunt/H_027.jpg
530.92	0.892	tomspunt	self-protection?	why_hand	no	no	correct	task-tomspunt/H_532.jpg
532.12	0.685	tomspunt	self-protection?	why_hand	yes	yes	correct	task-tomspunt/H_189.jpg
533.12	0.768	tomspunt	self-protection?	why_hand	no	no	correct	task-tomspunt/H_006.jpg
534.204	0.619	tomspunt	self-protection?	why_hand	yes	yes	correct	task-tomspunt/H_038.jpg
543.624	1.005	tomspunt	lifting?	how_hand	yes	yes	correct	task-tomspunt/H_443.jpg
544.942	0.821	tomspunt	lifting?	how_hand	no	no	correct	task-tomspunt/H_038.jpg
546.075	1.087	tomspunt	lifting?	how_hand	no	yes	incorrect	task-tomspunt/H_136.jpg
547.476	1.236	tomspunt	lifting?	how_hand	no	no	correct	task-tomspunt/H_012.jpg
549.026	0.453	tomspunt	lifting?	how_hand	yes	yes	correct	task-tomspunt/H_362.jpg
549.793	0.868	tomspunt	lifting?	how_hand	yes	yes	correct	task-tomspunt/H_189.jpg
550.977	0.752	tomspunt	lifting?	how_hand	yes	yes	correct	task-tomspunt/H_170.jpg
552.044	1.135	tomspunt	lifting?	how_hand	no	no	correct	task-tomspunt/H_077.jpg
561.498	1.118	tomspunt	looking to side?	how_face	yes	yes	correct	task-tomspunt/F_716.jpg
562.932	0.668	tomspunt	looking to side?	how_face	no	no	correct	task-tomspunt/F_798.jpg
563.915	0.88	tomspunt	looking to side?	how_face	yes	yes	correct	task-tomspunt/F_760.jpg
565.099	0.93	tomspunt	looking to side?	how_face	yes	yes	correct	task-tomspunt/F_110.jpg
566.333	1.252	tomspunt	looking to side?	how_face	no	no	correct	task-tomspunt/F_779.jpg
567.9	1.029	tomspunt	looking to side?	how_face	yes	yes	correct	task-tomspunt/F_590.jpg
569.234	0.768	tomspunt	looking to side?	how_face	no	no	correct	task-tomspunt/F_111.jpg
570.318	0.852	tomspunt	looking to side?	how_face	yes	yes	correct	task-tomspunt/F_433.jpg
583.973	0.835	tomspunt	proud?	why_face	yes	yes	correct	task-tomspunt/F_083.jpg
585.123	0.836	tomspunt	proud?	why_face	yes	yes	correct	task-tomspunt/F_582.jpg
586.274	0.739	tomspunt	proud?	why_face	yes	yes	correct	task-tomspunt/F_618.jpg
587.324	0.905	tomspunt	proud?	why_face	no	no	correct	task-tomspunt/F_776.jpg
588.541	0.821	tomspunt	proud?	why_face	yes	yes	correct	task-tomspunt/F_598.jpg
589.675	1.054	tomspunt	proud?	why_face	no	no	correct	task-tomspunt/F_760.jpg
591.042	1.554	tomspunt	proud?	why_face	no	no	correct	task-tomspunt/F_412.jpg
592.909	0.736	tomspunt	proud?	why_face	yes	yes	correct	task-tomspunt/F_695.jpg
0.096	2.017	tomspunt	reaching?	block_question_presentation	n/a	n/a	n/a	n/a
0.096	0.3	tomspunt	reaching?	block_question_presentation	n/a	n/a	n/a	n/a
17.536	2.101	tomspunt	healthy?	block_question_presentation	n/a	n/a	n/a	n/a
17.536	0.3	tomspunt	healthy?	block_question_presentation	n/a	n/a	n/a	n/a
36.643	2.101	tomspunt	admiring?	block_question_presentation	n/a	n/a	n/a	n/a
36.643	0.3	tomspunt	admiring?	block_question_presentation	n/a	n/a	n/a	n/a
55.617	2.101	tomspunt	smiling?	block_question_presentation	n/a	n/a	n/a	n/a
55.617	0.3	tomspunt	smiling?	block_question_presentation	n/a	n/a	n/a	n/a
73.14	2.101	tomspunt	lifting?	block_question_presentation	n/a	n/a	n/a	n/a
73.14	0.3	tomspunt	lifting?	block_question_presentation	n/a	n/a	n/a	n/a
95.632	2.101	tomspunt	helping?	block_question_presentation	n/a	n/a	n/a	n/a
95.632	0.3	tomspunt	helping?	block_question_presentation	n/a	n/a	n/a	n/a
113.505	2.101	tomspunt	proud?	block_question_presentation	n/a	n/a	n/a	n/a
113.505	0.3	tomspunt	proud?	block_question_presentation	n/a	n/a	n/a	n/a
131.028	2.101	tomspunt	looking to side?	block_question_presentation	n/a	n/a	n/a	n/a
131.028	0.3	tomspunt	looking to side?	block_question_presentation	n/a	n/a	n/a	n/a
150.135	2.101	tomspunt	argument?	block_question_presentation	n/a	n/a	n/a	n/a
150.135	0.3	tomspunt	argument?	block_question_presentation	n/a	n/a	n/a	n/a
167.975	2.101	tomspunt	open mouth?	block_question_presentation	n/a	n/a	n/a	n/a
167.975	0.3	tomspunt	open mouth?	block_question_presentation	n/a	n/a	n/a	n/a
185.865	2.101	tomspunt	pressing button?	block_question_presentation	n/a	n/a	n/a	n/a
185.865	0.3	tomspunt	pressing button?	block_question_presentation	n/a	n/a	n/a	n/a
203.655	2.101	tomspunt	competing?	block_question_presentation	n/a	n/a	n/a	n/a
203.655	0.3	tomspunt	competing?	block_question_presentation	n/a	n/a	n/a	n/a
221.729	2.101	tomspunt	self-doubt?	block_question_presentation	n/a	n/a	n/a	n/a
221.729	0.3	tomspunt	self-doubt?	block_question_presentation	n/a	n/a	n/a	n/a
240.786	2.101	tomspunt	looking at camera?	block_question_presentation	n/a	n/a	n/a	n/a
240.786	0.3	tomspunt	looking at camera?	block_question_presentation	n/a	n/a	n/a	n/a
259.576	2.101	tomspunt	both hands?	block_question_presentation	n/a	n/a	n/a	n/a
259.576	0.3	tomspunt	both hands?	block_question_presentation	n/a	n/a	n/a	n/a
278.366	2.101	tomspunt	self-protection?	block_question_presentation	n/a	n/a	n/a	n/a
278.366	0.3	tomspunt	self-protection?	block_question_presentation	n/a	n/a	n/a	n/a
299.841	2.101	tomspunt	smiling?	block_question_presentation	n/a	n/a	n/a	n/a
299.841	0.3	tomspunt	smiling?	block_question_presentation	n/a	n/a	n/a	n/a
317.631	2.101	tomspunt	admiring?	block_question_presentation	n/a	n/a	n/a	n/a
317.631	0.3	tomspunt	admiring?	block_question_presentation	n/a	n/a	n/a	n/a
335.521	2.101	tomspunt	competing?	block_question_presentation	n/a	n/a	n/a	n/a
335.521	0.3	tomspunt	competing?	block_question_presentation	n/a	n/a	n/a	n/a
356.996	2.101	tomspunt	reaching?	block_question_presentation	n/a	n/a	n/a	n/a
356.996	0.3	tomspunt	reaching?	block_question_presentation	n/a	n/a	n/a	n/a
374.836	2.101	tomspunt	open mouth?	block_question_presentation	n/a	n/a	n/a	n/a
374.836	0.3	tomspunt	open mouth?	block_question_presentation	n/a	n/a	n/a	n/a
393.526	2.084	tomspunt	argument?	block_question_presentation	n/a	n/a	n/a	n/a
393.526	0.3	tomspunt	argument?	block_question_presentation	n/a	n/a	n/a	n/a
411.733	2.101	tomspunt	helping?	block_question_presentation	n/a	n/a	n/a	n/a
411.733	0.3	tomspunt	helping?	block_question_presentation	n/a	n/a	n/a	n/a
429.806	2.101	tomspunt	both hands?	block_question_presentation	n/a	n/a	n/a	n/a
429.806	0.3	tomspunt	both hands?	block_question_presentation	n/a	n/a	n/a	n/a
447.33	2.101	tomspunt	healthy?	block_question_presentation	n/a	n/a	n/a	n/a
447.33	0.3	tomspunt	healthy?	block_question_presentation	n/a	n/a	n/a	n/a
466.387	2.101	tomspunt	pressing button?	block_question_presentation	n/a	n/a	n/a	n/a
466.387	0.3	tomspunt	pressing button?	block_question_presentation	n/a	n/a	n/a	n/a
483.91	2.101	tomspunt	looking at camera?	block_question_presentation	n/a	n/a	n/a	n/a
483.91	0.3	tomspunt	looking at camera?	block_question_presentation	n/a	n/a	n/a	n/a
502.867	2.101	tomspunt	self-doubt?	block_question_presentation	n/a	n/a	n/a	n/a
502.867	0.3	tomspunt	self-doubt?	block_question_presentation	n/a	n/a	n/a	n/a
520.39	2.101	tomspunt	self-protection?	block_question_presentation	n/a	n/a	n/a	n/a
520.39	0.3	tomspunt	self-protection?	block_question_presentation	n/a	n/a	n/a	n/a
538.614	2.101	tomspunt	lifting?	block_question_presentation	n/a	n/a	n/a	n/a
538.614	0.3	tomspunt	lifting?	block_question_presentation	n/a	n/a	n/a	n/a
556.487	2.101	tomspunt	looking to side?	block_question_presentation	n/a	n/a	n/a	n/a
556.487	0.3	tomspunt	looking to side?	block_question_presentation	n/a	n/a	n/a	n/a
578.962	2.101	tomspunt	proud?	block_question_presentation	n/a	n/a	n/a	n/a
578.962	0.3	tomspunt	proud?	block_question_presentation	n/a	n/a	n/a	n/a
