onset	duration	run_type	trial_type	trial_index	cue	stimulusintensity	rating_value	rating_glmslabel	rating_value_fillna	rating_glmslabel_fillna	rating_mouseonset	rating_mousedur	stim_file	pain_onset_ttl1	pain_onset_ttl2	pain_onset_ttl3	pain_onset_ttl4	pain_stimulus_delivery_success	cognitive_correct_response	cognitive_participant_response	cognitive_response_accuracy
3.87	1.0	pain	cue	1	high_cue	n/a	n/a	n/a	n/a	n/a	n/a	n/a	task-social/cue/runtype-pain/sch/h029.png	n/a	n/a	n/a	n/a	n/a	n/a	n/a	n/a
5.69	1.32	pain	expectrating	1	high_cue	n/a	0	n/a	0	n/a	0.28	1.04	task-social/cue/runtype-pain/sch/h029.png	n/a	n/a	n/a	n/a	n/a	n/a	n/a	n/a
17.62	12.36	pain	stimulus	1	high_cue	med_stim	n/a	n/a	n/a	n/a	n/a	n/a	n/a	17.62	21.38	26.38	29.99	fail	n/a	n/a	n/a
30.28	2.18	pain	outcomerating	1	high_cue	med_stim	0	n/a	0	n/a	0.43	1.75	task-social/outcomerating/task-pain_scale.png	n/a	n/a	n/a	n/a	fail	n/a	n/a	n/a
36.18	0.98	pain	cue	2	low_cue	n/a	n/a	n/a	n/a	n/a	n/a	n/a	task-social/cue/runtype-pain/scl/l036.png	n/a	n/a	n/a	n/a	n/a	n/a	n/a	n/a
38.68	2.9	pain	expectrating	2	low_cue	n/a	0	n/a	0	n/a	0.35	2.55	task-social/cue/runtype-pain/scl/l036.png	n/a	n/a	n/a	n/a	n/a	n/a	n/a	n/a
43.62	12.36	pain	stimulus	2	low_cue	med_stim	n/a	n/a	n/a	n/a	n/a	n/a	n/a	43.62	47.38	52.38	55.99	fail	n/a	n/a	n/a
56.27	2.54	pain	outcomerating	2	low_cue	med_stim	0	n/a	0	n/a	0.4	2.14	task-social/outcomerating/task-pain_scale.png	n/a	n/a	n/a	n/a	fail	n/a	n/a	n/a
63.58	1.0	pain	cue	3	high_cue	n/a	n/a	n/a	n/a	n/a	n/a	n/a	task-social/cue/runtype-pain/sch/h048.png	n/a	n/a	n/a	n/a	n/a	n/a	n/a	n/a
66.08	2.55	pain	expectrating	3	high_cue	n/a	0	n/a	0	n/a	0.45	2.1	task-social/cue/runtype-pain/sch/h048.png	n/a	n/a	n/a	n/a	n/a	n/a	n/a	n/a
75.83	11.909999999999997	pain	stimulus	3	high_cue	low_stim	n/a	n/a	n/a	n/a	n/a	n/a	n/a	75.83	79.33	84.33	87.73	fail	n/a	n/a	n/a
90.89	3.02	pain	outcomerating	3	high_cue	low_stim	0	n/a	0	n/a	0.52	2.5	task-social/outcomerating/task-pain_scale.png	n/a	n/a	n/a	n/a	fail	n/a	n/a	n/a
103.47	1.0	pain	cue	4	low_cue	n/a	n/a	n/a	n/a	n/a	n/a	n/a	task-social/cue/runtype-pain/scl/l039.png	n/a	n/a	n/a	n/a	n/a	n/a	n/a	n/a
105.98	2.49	pain	expectrating	4	low_cue	n/a	0	n/a	0	n/a	0.72	1.77	task-social/cue/runtype-pain/scl/l039.png	n/a	n/a	n/a	n/a	n/a	n/a	n/a	n/a
116.92	12.36	pain	stimulus	4	low_cue	med_stim	n/a	n/a	n/a	n/a	n/a	n/a	n/a	116.92	120.68	125.68	129.29	fail	n/a	n/a	n/a
131.78	2.17	pain	outcomerating	4	low_cue	med_stim	0	n/a	0	n/a	0.6	1.57	task-social/outcomerating/task-pain_scale.png	n/a	n/a	n/a	n/a	fail	n/a	n/a	n/a
138.97	1.0	pain	cue	5	high_cue	n/a	n/a	n/a	n/a	n/a	n/a	n/a	task-social/cue/runtype-pain/sch/h034.png	n/a	n/a	n/a	n/a	n/a	n/a	n/a	n/a
142.89	1.52	pain	expectrating	5	high_cue	n/a	0	n/a	0	n/a	0.45	1.07	task-social/cue/runtype-pain/sch/h034.png	n/a	n/a	n/a	n/a	n/a	n/a	n/a	n/a
155.49	12.829999999999984	pain	stimulus	5	high_cue	high_stim	n/a	n/a	n/a	n/a	n/a	n/a	n/a	155.49	159.5	164.5	168.31	fail	n/a	n/a	n/a
170.28	2.75	pain	outcomerating	5	high_cue	high_stim	0	n/a	0	n/a	0.53	2.22	task-social/outcomerating/task-pain_scale.png	n/a	n/a	n/a	n/a	fail	n/a	n/a	n/a
190.57	1.0	pain	cue	6	low_cue	n/a	n/a	n/a	n/a	n/a	n/a	n/a	task-social/cue/runtype-pain/scl/l055.png	n/a	n/a	n/a	n/a	n/a	n/a	n/a	n/a
192.97	2.45	pain	expectrating	6	low_cue	n/a	0	n/a	0	n/a	0.38	2.07	task-social/cue/runtype-pain/scl/l055.png	n/a	n/a	n/a	n/a	n/a	n/a	n/a	n/a
201.5	11.909999999999997	pain	stimulus	6	low_cue	low_stim	n/a	n/a	n/a	n/a	n/a	n/a	n/a	201.5	205.0	210.0	213.4	fail	n/a	n/a	n/a
212.08	2.55	pain	outcomerating	6	low_cue	low_stim	0	n/a	0	n/a	0.37	2.18	task-social/outcomerating/task-pain_scale.png	n/a	n/a	n/a	n/a	fail	n/a	n/a	n/a
219.17	1.0	pain	cue	7	low_cue	n/a	n/a	n/a	n/a	n/a	n/a	n/a	task-social/cue/runtype-pain/scl/l023.png	n/a	n/a	n/a	n/a	n/a	n/a	n/a	n/a
220.98	2.3	pain	expectrating	7	low_cue	n/a	0	n/a	0	n/a	0.42	1.88	task-social/cue/runtype-pain/scl/l023.png	n/a	n/a	n/a	n/a	n/a	n/a	n/a	n/a
229.46	12.819999999999993	pain	stimulus	7	low_cue	high_stim	n/a	n/a	n/a	n/a	n/a	n/a	n/a	229.46	233.47	238.47	242.28	fail	n/a	n/a	n/a
243.48	2.15	pain	outcomerating	7	low_cue	high_stim	0	n/a	0	n/a	0.45	1.7	task-social/outcomerating/task-pain_scale.png	n/a	n/a	n/a	n/a	fail	n/a	n/a	n/a
252.58	1.0	pain	cue	8	high_cue	n/a	n/a	n/a	n/a	n/a	n/a	n/a	task-social/cue/runtype-pain/sch/h022.png	n/a	n/a	n/a	n/a	n/a	n/a	n/a	n/a
254.18	2.05	pain	expectrating	8	high_cue	n/a	0	n/a	0	n/a	0.33	1.72	task-social/cue/runtype-pain/sch/h022.png	n/a	n/a	n/a	n/a	n/a	n/a	n/a	n/a
261.63	12.360000000000014	pain	stimulus	8	high_cue	med_stim	n/a	n/a	n/a	n/a	n/a	n/a	n/a	261.63	265.39	270.39	274.0	fail	n/a	n/a	n/a
273.47	2.59	pain	outcomerating	8	high_cue	med_stim	0	n/a	0	n/a	0.52	2.07	task-social/outcomerating/task-pain_scale.png	n/a	n/a	n/a	n/a	fail	n/a	n/a	n/a
281.67	1.0	pain	cue	9	high_cue	n/a	n/a	n/a	n/a	n/a	n/a	n/a	task-social/cue/runtype-pain/sch/h028.png	n/a	n/a	n/a	n/a	n/a	n/a	n/a	n/a
283.27	1.85	pain	expectrating	9	high_cue	n/a	0	n/a	0	n/a	0.32	1.54	task-social/cue/runtype-pain/sch/h028.png	n/a	n/a	n/a	n/a	n/a	n/a	n/a	n/a
288.24	11.899999999999977	pain	stimulus	9	high_cue	low_stim	n/a	n/a	n/a	n/a	n/a	n/a	n/a	288.24	291.74	296.74	300.14	fail	n/a	n/a	n/a
307.08	2.45	pain	outcomerating	9	high_cue	low_stim	0	n/a	0	n/a	0.23	2.22	task-social/outcomerating/task-pain_scale.png	n/a	n/a	n/a	n/a	fail	n/a	n/a	n/a
312.17	1.0	pain	cue	10	low_cue	n/a	n/a	n/a	n/a	n/a	n/a	n/a	task-social/cue/runtype-pain/scl/l002.png	n/a	n/a	n/a	n/a	n/a	n/a	n/a	n/a
316.07	2.16	pain	expectrating	10	low_cue	n/a	0	n/a	0	n/a	0.38	1.78	task-social/cue/runtype-pain/scl/l002.png	n/a	n/a	n/a	n/a	n/a	n/a	n/a	n/a
328.75	12.819999999999993	pain	stimulus	10	low_cue	high_stim	n/a	n/a	n/a	n/a	n/a	n/a	n/a	328.75	332.76	337.76	341.57	fail	n/a	n/a	n/a
341.98	3.32	pain	outcomerating	10	low_cue	high_stim	0	n/a	0	n/a	0.15	3.17	task-social/outcomerating/task-pain_scale.png	n/a	n/a	n/a	n/a	fail	n/a	n/a	n/a
348.78	0.98	pain	cue	11	high_cue	n/a	n/a	n/a	n/a	n/a	n/a	n/a	task-social/cue/runtype-pain/sch/h023.png	n/a	n/a	n/a	n/a	n/a	n/a	n/a	n/a
350.48	1.95	pain	expectrating	11	high_cue	n/a	0	n/a	0	n/a	0.4	1.55	task-social/cue/runtype-pain/sch/h023.png	n/a	n/a	n/a	n/a	n/a	n/a	n/a	n/a
355.21	12.819999999999993	pain	stimulus	11	high_cue	high_stim	n/a	n/a	n/a	n/a	n/a	n/a	n/a	355.21	359.22	364.22	368.03	fail	n/a	n/a	n/a
368.27	1.94	pain	outcomerating	11	high_cue	high_stim	0	n/a	0	n/a	0.4	1.54	task-social/outcomerating/task-pain_scale.png	n/a	n/a	n/a	n/a	fail	n/a	n/a	n/a
375.58	1.0	pain	cue	12	low_cue	n/a	n/a	n/a	n/a	n/a	n/a	n/a	task-social/cue/runtype-pain/scl/l018.png	n/a	n/a	n/a	n/a	n/a	n/a	n/a	n/a
379.48	2.44	pain	expectrating	12	low_cue	n/a	0	n/a	0	n/a	0.52	1.92	task-social/cue/runtype-pain/scl/l018.png	n/a	n/a	n/a	n/a	n/a	n/a	n/a	n/a
385.2	11.900000000000034	pain	stimulus	12	low_cue	low_stim	n/a	n/a	n/a	n/a	n/a	n/a	n/a	385.2	388.7	393.7	397.1	fail	n/a	n/a	n/a
395.28	2.63	pain	outcomerating	12	low_cue	low_stim	0	n/a	0	n/a	0.65	1.98	task-social/outcomerating/task-pain_scale.png	n/a	n/a	n/a	n/a	fail	n/a	n/a	n/a
