onset	duration	run_type	trial_type	trial_index	cue	stimulusintensity	rating_value	rating_glmslabel	rating_value_fillna	rating_glmslabel_fillna	rating_mouseonset	rating_mousedur	stim_file	pain_onset_ttl1	pain_onset_ttl2	pain_onset_ttl3	pain_onset_ttl4	pain_stimulus_delivery_success	cognitive_correct_response	cognitive_participant_response	cognitive_response_accuracy
5.01	1.0	pain	cue	1	high_cue	n/a	n/a	n/a	n/a	n/a	n/a	n/a	task-social/cue/runtype-pain/sch/h045.png	n/a	n/a	n/a	n/a	n/a	n/a	n/a	n/a
7.22	n/a	pain	expectrating	1	high_cue	n/a	n/a	n/a	84.36	Very Strong	0.42	3.23	task-social/cue/runtype-pain/sch/h045.png	n/a	n/a	n/a	n/a	n/a	n/a	n/a	n/a
17.25	11.899999999999999	pain	stimulus	1	high_cue	low_stim	n/a	n/a	n/a	n/a	n/a	n/a	n/a	17.25	20.75	25.75	29.15	success	n/a	n/a	n/a
27.41	n/a	pain	outcomerating	1	high_cue	low_stim	n/a	n/a	78.78	Very Strong	0.42	3.23	task-social/outcomerating/task-pain_scale.png	n/a	n/a	n/a	n/a	success	n/a	n/a	n/a
39.6	1.0	pain	cue	2	high_cue	n/a	n/a	n/a	n/a	n/a	n/a	n/a	task-social/cue/runtype-pain/sch/h035.png	n/a	n/a	n/a	n/a	n/a	n/a	n/a	n/a
42.8	n/a	pain	expectrating	2	high_cue	n/a	n/a	n/a	87.42	Very Strong	0.27	1.17	task-social/cue/runtype-pain/sch/h035.png	n/a	n/a	n/a	n/a	n/a	n/a	n/a	n/a
48.54	11.899999999999999	pain	stimulus	2	high_cue	low_stim	n/a	n/a	n/a	n/a	n/a	n/a	n/a	48.54	52.04	57.04	60.44	success	n/a	n/a	n/a
61.81	n/a	pain	outcomerating	2	high_cue	low_stim	n/a	n/a	52.17	Strong	0.27	1.17	task-social/outcomerating/task-pain_scale.png	n/a	n/a	n/a	n/a	success	n/a	n/a	n/a
72.5	1.0	pain	cue	3	high_cue	n/a	n/a	n/a	n/a	n/a	n/a	n/a	task-social/cue/runtype-pain/sch/h052.png	n/a	n/a	n/a	n/a	n/a	n/a	n/a	n/a
74.51	n/a	pain	expectrating	3	high_cue	n/a	n/a	n/a	63.54	Strong	0.38	1.0	task-social/cue/runtype-pain/sch/h052.png	n/a	n/a	n/a	n/a	n/a	n/a	n/a	n/a
80.23	12.36	pain	stimulus	3	high_cue	med_stim	n/a	n/a	n/a	n/a	n/a	n/a	n/a	80.23	83.99	88.99	92.6	success	n/a	n/a	n/a
93.1	n/a	pain	outcomerating	3	high_cue	med_stim	n/a	n/a	106.04	Strongest sensation of any kind	0.38	1.0	task-social/outcomerating/task-pain_scale.png	n/a	n/a	n/a	n/a	success	n/a	n/a	n/a
105.31	0.98	pain	cue	4	low_cue	n/a	n/a	n/a	n/a	n/a	n/a	n/a	task-social/cue/runtype-pain/scl/l046.png	n/a	n/a	n/a	n/a	n/a	n/a	n/a	n/a
107.31	n/a	pain	expectrating	4	low_cue	n/a	n/a	n/a	66.71	Very Strong	0.15	0.82	task-social/cue/runtype-pain/scl/l046.png	n/a	n/a	n/a	n/a	n/a	n/a	n/a	n/a
113.04	12.36999999999999	pain	stimulus	4	low_cue	med_stim	n/a	n/a	n/a	n/a	n/a	n/a	n/a	113.04	116.8	121.8	125.41	success	n/a	n/a	n/a
123.2	n/a	pain	outcomerating	4	low_cue	med_stim	n/a	n/a	95.34	Very Strong	0.15	0.82	task-social/outcomerating/task-pain_scale.png	n/a	n/a	n/a	n/a	success	n/a	n/a	n/a
129.4	1.0	pain	cue	5	high_cue	n/a	n/a	n/a	n/a	n/a	n/a	n/a	task-social/cue/runtype-pain/sch/h007.png	n/a	n/a	n/a	n/a	n/a	n/a	n/a	n/a
133.3	n/a	pain	expectrating	5	high_cue	n/a	n/a	n/a	70.18	Very Strong	0.35	1.08	task-social/cue/runtype-pain/sch/h007.png	n/a	n/a	n/a	n/a	n/a	n/a	n/a	n/a
148.93	12.819999999999993	pain	stimulus	5	high_cue	high_stim	n/a	n/a	n/a	n/a	n/a	n/a	n/a	148.93	152.94	157.94	161.75	success	n/a	n/a	n/a
163.11	n/a	pain	outcomerating	5	high_cue	high_stim	n/a	n/a	93.45	Very Strong	0.35	1.08	task-social/outcomerating/task-pain_scale.png	n/a	n/a	n/a	n/a	success	n/a	n/a	n/a
167.9	1.0	pain	cue	6	low_cue	n/a	n/a	n/a	n/a	n/a	n/a	n/a	task-social/cue/runtype-pain/scl/l016.png	n/a	n/a	n/a	n/a	n/a	n/a	n/a	n/a
171.1	n/a	pain	expectrating	6	low_cue	n/a	n/a	n/a	71.57	Very Strong	0.05	2.37	task-social/cue/runtype-pain/scl/l016.png	n/a	n/a	n/a	n/a	n/a	n/a	n/a	n/a
180.34	12.819999999999993	pain	stimulus	6	low_cue	high_stim	n/a	n/a	n/a	n/a	n/a	n/a	n/a	180.34	184.35	189.35	193.16	success	n/a	n/a	n/a
191.11	n/a	pain	outcomerating	6	low_cue	high_stim	n/a	n/a	86.09	Very Strong	0.05	2.37	task-social/outcomerating/task-pain_scale.png	n/a	n/a	n/a	n/a	success	n/a	n/a	n/a
200.49	1.0	pain	cue	7	high_cue	n/a	n/a	n/a	n/a	n/a	n/a	n/a	task-social/cue/runtype-pain/sch/h039.png	n/a	n/a	n/a	n/a	n/a	n/a	n/a	n/a
202.51	n/a	pain	expectrating	7	high_cue	n/a	n/a	n/a	94.16	Very Strong	0.5	1.58	task-social/cue/runtype-pain/sch/h039.png	n/a	n/a	n/a	n/a	n/a	n/a	n/a	n/a
212.92	12.830000000000013	pain	stimulus	7	high_cue	high_stim	n/a	n/a	n/a	n/a	n/a	n/a	n/a	212.92	216.93	221.93	225.74	success	n/a	n/a	n/a
226.7	n/a	pain	outcomerating	7	high_cue	high_stim	n/a	n/a	81.8	Very Strong	0.5	1.58	task-social/outcomerating/task-pain_scale.png	n/a	n/a	n/a	n/a	success	n/a	n/a	n/a
237.01	1.0	pain	cue	8	high_cue	n/a	n/a	n/a	n/a	n/a	n/a	n/a	task-social/cue/runtype-pain/sch/h046.png	n/a	n/a	n/a	n/a	n/a	n/a	n/a	n/a
240.21	n/a	pain	expectrating	8	high_cue	n/a	n/a	n/a	83.07	Very Strong	0.38	1.63	task-social/cue/runtype-pain/sch/h046.png	n/a	n/a	n/a	n/a	n/a	n/a	n/a	n/a
249.44	12.360000000000014	pain	stimulus	8	high_cue	med_stim	n/a	n/a	n/a	n/a	n/a	n/a	n/a	249.44	253.2	258.2	261.81	success	n/a	n/a	n/a
262.7	n/a	pain	outcomerating	8	high_cue	med_stim	n/a	n/a	59.33	Strong	0.38	1.63	task-social/outcomerating/task-pain_scale.png	n/a	n/a	n/a	n/a	success	n/a	n/a	n/a
268.5	1.0	pain	cue	9	low_cue	n/a	n/a	n/a	n/a	n/a	n/a	n/a	task-social/cue/runtype-pain/scl/l041.png	n/a	n/a	n/a	n/a	n/a	n/a	n/a	n/a
271.7	n/a	pain	expectrating	9	low_cue	n/a	n/a	n/a	77.68	Very Strong	0.32	2.78	task-social/cue/runtype-pain/scl/l041.png	n/a	n/a	n/a	n/a	n/a	n/a	n/a	n/a
278.73	11.899999999999977	pain	stimulus	9	low_cue	low_stim	n/a	n/a	n/a	n/a	n/a	n/a	n/a	278.73	282.23	287.23	290.63	success	n/a	n/a	n/a
288.91	n/a	pain	outcomerating	9	low_cue	low_stim	n/a	n/a	24.2	Moderate	0.32	2.78	task-social/outcomerating/task-pain_scale.png	n/a	n/a	n/a	n/a	success	n/a	n/a	n/a
296.4	1.0	pain	cue	10	low_cue	n/a	n/a	n/a	n/a	n/a	n/a	n/a	task-social/cue/runtype-pain/scl/l021.png	n/a	n/a	n/a	n/a	n/a	n/a	n/a	n/a
298.3	n/a	pain	expectrating	10	low_cue	n/a	n/a	n/a	56.65	Strong	0.47	1.02	task-social/cue/runtype-pain/scl/l021.png	n/a	n/a	n/a	n/a	n/a	n/a	n/a	n/a
306.73	12.819999999999993	pain	stimulus	10	low_cue	high_stim	n/a	n/a	n/a	n/a	n/a	n/a	n/a	306.73	310.74	315.74	319.55	success	n/a	n/a	n/a
320.01	n/a	pain	outcomerating	10	low_cue	high_stim	n/a	n/a	88.55	Very Strong	0.47	1.02	task-social/outcomerating/task-pain_scale.png	n/a	n/a	n/a	n/a	success	n/a	n/a	n/a
330.71	0.98	pain	cue	11	low_cue	n/a	n/a	n/a	n/a	n/a	n/a	n/a	task-social/cue/runtype-pain/scl/l024.png	n/a	n/a	n/a	n/a	n/a	n/a	n/a	n/a
332.41	n/a	pain	expectrating	11	low_cue	n/a	n/a	n/a	68.5	Very Strong	1.32	1.83	task-social/cue/runtype-pain/scl/l024.png	n/a	n/a	n/a	n/a	n/a	n/a	n/a	n/a
340.03	11.910000000000025	pain	stimulus	11	low_cue	low_stim	n/a	n/a	n/a	n/a	n/a	n/a	n/a	340.03	343.53	348.53	351.93	success	n/a	n/a	n/a
365.81	n/a	pain	outcomerating	11	low_cue	low_stim	n/a	n/a	16.26	Moderate	1.32	1.83	task-social/outcomerating/task-pain_scale.png	n/a	n/a	n/a	n/a	success	n/a	n/a	n/a
372.01	1.0	pain	cue	12	low_cue	n/a	n/a	n/a	n/a	n/a	n/a	n/a	task-social/cue/runtype-pain/scl/l049.png	n/a	n/a	n/a	n/a	n/a	n/a	n/a	n/a
373.61	n/a	pain	expectrating	12	low_cue	n/a	n/a	n/a	54.7	Strong	0.88	3.52	task-social/cue/runtype-pain/scl/l049.png	n/a	n/a	n/a	n/a	n/a	n/a	n/a	n/a
381.23	12.359999999999957	pain	stimulus	12	low_cue	med_stim	n/a	n/a	n/a	n/a	n/a	n/a	n/a	381.23	384.99	389.99	393.6	success	n/a	n/a	n/a
395.2	n/a	pain	outcomerating	12	low_cue	med_stim	n/a	n/a	53.62	Strong	0.88	3.52	task-social/outcomerating/task-pain_scale.png	n/a	n/a	n/a	n/a	success	n/a	n/a	n/a
