onset	duration	trial_type	response_x	response_y	situation	context	modality	stim_file
11.829	22.112	narrative_presentation	n/a	n/a	An enemy loved	forest	Text	task-narratives/Narrative2Situation1.txt
33.941	2.6	rating_feeling	787	542	An enemy loved	forest	Text	n/a
35.041	1.5	feeling_mouse_trajectory	787	542	An enemy loved	forest	Text	n/a
38.04	2.518	rating_expectation	798.0	513.0	An enemy loved	forest	Text	n/a
39.207	1.351	expectation_mouse_trajectory	798.0	513.0	An enemy loved	forest	Text	n/a
44.107	36.183	narrative_presentation	n/a	n/a	Enmity of kin	forest	Text	task-narratives/Narrative2Situation2.txt
80.29	2.651	rating_feeling	752	503	Enmity of kin	forest	Text	n/a
81.64	1.301	feeling_mouse_trajectory	752	503	Enmity of kin	forest	Text	n/a
84.308	3.718	rating_expectation	768.0	499.0	Enmity of kin	forest	Text	n/a
86.774	1.252	expectation_mouse_trajectory	768.0	499.0	Enmity of kin	forest	Text	n/a
92.375	9.379	narrative_presentation	n/a	n/a	Necessity of sacrificing loved ones	forest	Text	task-narratives/Narrative2Situation3.txt
101.754	2.389	rating_feeling	747	480	Necessity of sacrificing loved ones	forest	Text	n/a
102.954	1.189	feeling_mouse_trajectory	747	480	Necessity of sacrificing loved ones	forest	Text	n/a
105.786	1.871	rating_expectation	783.0	455.0	Necessity of sacrificing loved ones	forest	Text	n/a
106.586	1.071	expectation_mouse_trajectory	783.0	455.0	Necessity of sacrificing loved ones	forest	Text	n/a
112.85	18.427	narrative_presentation	n/a	n/a	Murderous adultury	town	Text	task-narratives/Narrative2Situation4.txt
131.277	3.635	rating_feeling	726	441	Murderous adultury	town	Text	n/a
132.36	2.552	feeling_mouse_trajectory	726	441	Murderous adultury	town	Text	n/a
135.31	2.076	rating_expectation	739.0	471.0	Murderous adultury	town	Text	n/a
136.56	0.826	expectation_mouse_trajectory	739.0	471.0	Murderous adultury	town	Text	n/a
142.377	16.744	narrative_presentation	n/a	n/a	Daring Enterprise	town	Text	task-narratives/Narrative2Situation5.txt
159.121	2.484	rating_feeling	763	498	Daring Enterprise	town	Text	n/a
160.338	1.268	feeling_mouse_trajectory	763	498	Daring Enterprise	town	Text	n/a
163.137	2.434	rating_expectation	762.0	487.0	Daring Enterprise	town	Text	n/a
164.104	1.468	expectation_mouse_trajectory	762.0	487.0	Daring Enterprise	town	Text	n/a
169.204	5.689	narrative_presentation	n/a	n/a	Ambition	town	Text	task-narratives/Narrative2Situation6.txt
174.893	1.934	rating_feeling	793	466	Ambition	town	Text	n/a
175.793	1.034	feeling_mouse_trajectory	793	466	Ambition	town	Text	n/a
178.91	2.143	rating_expectation	769.0	512.0	Ambition	town	Text	n/a
179.943	1.11	expectation_mouse_trajectory	769.0	512.0	Ambition	town	Text	n/a
183.976	19.095	narrative_presentation	n/a	n/a	Mistaken jealousy	hospital	Text	task-narratives/Narrative2Situation7.txt
203.071	3.735	rating_feeling	1052	594	Mistaken jealousy	hospital	Text	n/a
204.688	2.118	feeling_mouse_trajectory	1052	594	Mistaken jealousy	hospital	Text	n/a
207.087	2.202	rating_expectation	991.0	512.0	Mistaken jealousy	hospital	Text	n/a
208.537	0.752	expectation_mouse_trajectory	991.0	512.0	Mistaken jealousy	hospital	Text	n/a
214.154	18.094	narrative_presentation	n/a	n/a	Discovery of dishonour of loved one	hospital	Text	task-narratives/Narrative2Situation8.txt
232.248	2.707	rating_feeling	816	514	Discovery of dishonour of loved one	hospital	Text	n/a
233.114	1.84	feeling_mouse_trajectory	816	514	Discovery of dishonour of loved one	hospital	Text	n/a
236.269	3.772	rating_expectation	805.0	487.0	Discovery of dishonour of loved one	hospital	Text	n/a
237.219	2.822	expectation_mouse_trajectory	805.0	487.0	Discovery of dishonour of loved one	hospital	Text	n/a
243.348	15.409	narrative_presentation	n/a	n/a	Self-sacrifice for an ideal	hospital	Text	task-narratives/Narrative2Situation9.txt
258.757	3.085	rating_feeling	1158	519	Self-sacrifice for an ideal	hospital	Text	n/a
259.09	2.751	feeling_mouse_trajectory	1158	519	Self-sacrifice for an ideal	hospital	Text	n/a
262.774	3.201	rating_expectation	1118.0	535.0	Self-sacrifice for an ideal	hospital	Text	n/a
264.224	1.751	expectation_mouse_trajectory	1118.0	535.0	Self-sacrifice for an ideal	hospital	Text	n/a
269.841	10.397	narrative_presentation	n/a	n/a	Supplication	hospital	Text	task-narratives/Narrative1Situation1.txt
280.238	2.322	rating_feeling	992	541	Supplication	hospital	Text	n/a
281.505	1.056	feeling_mouse_trajectory	992	541	Supplication	hospital	Text	n/a
284.269	n/a	rating_expectation	n/a	n/a	Supplication	hospital	Text	n/a
n/a	n/a	expectation_mouse_trajectory	n/a	n/a	Supplication	hospital	Text	n/a
290.332	14.409	narrative_presentation	n/a	n/a	Madness	hospital	Text	task-narratives/Narrative1Situation2.txt
304.741	2.351	rating_feeling	883	469	Madness	hospital	Text	n/a
305.741	1.351	feeling_mouse_trajectory	883	469	Madness	hospital	Text	n/a
308.758	n/a	rating_expectation	n/a	n/a	Madness	hospital	Text	n/a
n/a	n/a	expectation_mouse_trajectory	n/a	n/a	Madness	hospital	Text	n/a
313.841	20.78	narrative_presentation	n/a	n/a	Murderous adultury	hospital	Text	task-narratives/Narrative1Situation3.txt
334.621	2.885	rating_feeling	855	581	Murderous adultury	hospital	Text	n/a
336.105	1.402	feeling_mouse_trajectory	855	581	Murderous adultury	hospital	Text	n/a
338.636	3.251	rating_expectation	836.0	546.0	Murderous adultury	hospital	Text	n/a
340.903	0.985	expectation_mouse_trajectory	836.0	546.0	Murderous adultury	hospital	Text	n/a
345.703	18.426	narrative_presentation	n/a	n/a	Recovery of a lost one	town	Text	task-narratives/Narrative1Situation4.txt
364.129	2.208	rating_feeling	787	558	Recovery of a lost one	town	Text	n/a
365.546	0.791	feeling_mouse_trajectory	787	558	Recovery of a lost one	town	Text	n/a
368.147	2.039	rating_expectation	812.0	504.0	Recovery of a lost one	town	Text	n/a
369.014	1.173	expectation_mouse_trajectory	812.0	504.0	Recovery of a lost one	town	Text	n/a
375.214	11.057	narrative_presentation	n/a	n/a	Slaying of kin unrecognized	town	Text	task-narratives/Narrative1Situation5.txt
386.271	2.218	rating_feeling	773	548	Slaying of kin unrecognized	town	Text	n/a
387.355	1.134	feeling_mouse_trajectory	773	548	Slaying of kin unrecognized	town	Text	n/a
390.288	1.567	rating_expectation	818.0	519.0	Slaying of kin unrecognized	town	Text	n/a
390.771	1.084	expectation_mouse_trajectory	818.0	519.0	Slaying of kin unrecognized	town	Text	n/a
395.355	25.134	narrative_presentation	n/a	n/a	An enemy loved	town	Text	task-narratives/Narrative1Situation6.txt
420.489	2.82	rating_feeling	815	561	An enemy loved	town	Text	n/a
421.222	2.087	feeling_mouse_trajectory	815	561	An enemy loved	town	Text	n/a
424.519	1.852	rating_expectation	829.0	557.0	An enemy loved	town	Text	n/a
425.469	0.902	expectation_mouse_trajectory	829.0	557.0	An enemy loved	town	Text	n/a
431.585	22.111	narrative_presentation	n/a	n/a	Fatal imprudence	prison	Text	task-narratives/Narrative1Situation7.txt
453.696	2.3	rating_feeling	803	523	Fatal imprudence	prison	Text	n/a
455.23	0.767	feeling_mouse_trajectory	803	523	Fatal imprudence	prison	Text	n/a
457.72	2.723	rating_expectation	766.0	529.0	Fatal imprudence	prison	Text	n/a
459.103	1.339	expectation_mouse_trajectory	766.0	529.0	Fatal imprudence	prison	Text	n/a
462.813	12.392	narrative_presentation	n/a	n/a	Discovery of dishonour of loved one	prison	Text	task-narratives/Narrative1Situation8.txt
475.205	2.334	rating_feeling	785	524	Discovery of dishonour of loved one	prison	Text	n/a
476.238	1.301	feeling_mouse_trajectory	785	524	Discovery of dishonour of loved one	prison	Text	n/a
479.221	3.868	rating_expectation	781.0	506.0	Discovery of dishonour of loved one	prison	Text	n/a
481.438	1.652	expectation_mouse_trajectory	781.0	506.0	Discovery of dishonour of loved one	prison	Text	n/a
491.291	29.48	narrative_presentation	n/a	n/a	Abduction	prison	Text	task-narratives/Narrative1Situation9.txt
520.771	1.884	rating_feeling	739	493	Abduction	prison	Text	n/a
521.688	0.968	feeling_mouse_trajectory	739	493	Abduction	prison	Text	n/a
524.789	1.534	rating_expectation	743.0	491.0	Abduction	prison	Text	n/a
525.389	0.934	expectation_mouse_trajectory	743.0	491.0	Abduction	prison	Text	n/a
