onset	duration	run_type	trial_type	trial_index	cue	stimulusintensity	rating_value	rating_glmslabel	rating_value_fillna	rating_glmslabel_fillna	rating_mouseonset	rating_mousedur	stim_file	pain_onset_ttl1	pain_onset_ttl2	pain_onset_ttl3	pain_onset_ttl4	pain_stimulus_delivery_success	cognitive_correct_response	cognitive_participant_response	cognitive_response_accuracy
5.4	1.0	pain	cue	1	high_cue	n/a	n/a	n/a	n/a	n/a	n/a	n/a	task-social/cue/runtype-pain/sch/h006.png	n/a	n/a	n/a	n/a	n/a	n/a	n/a	n/a
8.22	1.4	pain	expectrating	1	high_cue	n/a	75.04	Very-Strong	75.04	Very-Strong	0.33	1.07	task-social/cue/runtype-pain/sch/h006.png	n/a	n/a	n/a	n/a	n/a	n/a	n/a	n/a
17.05	11.91	pain	stimulus	1	high_cue	low_stim	n/a	n/a	n/a	n/a	n/a	n/a	n/a	17.05	20.55	25.55	28.95	success	n/a	n/a	n/a
30.29	2.52	pain	outcomerating	1	high_cue	low_stim	105.82	Strongest-sensation-of-any-kind	105.82	Strongest-sensation-of-any-kind	0.33	1.07	task-social/outcomerating/task-pain_scale.png	n/a	n/a	n/a	n/a	success	n/a	n/a	n/a
35.09	1.0	pain	cue	2	high_cue	n/a	n/a	n/a	n/a	n/a	n/a	n/a	task-social/cue/runtype-pain/sch/h004.png	n/a	n/a	n/a	n/a	n/a	n/a	n/a	n/a
37.49	1.57	pain	expectrating	2	high_cue	n/a	54.06	Strong	54.06	Strong	0.05	1.52	task-social/cue/runtype-pain/sch/h004.png	n/a	n/a	n/a	n/a	n/a	n/a	n/a	n/a
46.33	12.829999999999998	pain	stimulus	2	high_cue	high_stim	n/a	n/a	n/a	n/a	n/a	n/a	n/a	46.33	50.34	55.34	59.15	success	n/a	n/a	n/a
58.8	1.9	pain	outcomerating	2	high_cue	high_stim	114.03	Strongest-sensation-of-any-kind	114.03	Strongest-sensation-of-any-kind	0.05	1.52	task-social/outcomerating/task-pain_scale.png	n/a	n/a	n/a	n/a	success	n/a	n/a	n/a
68.69	1.0	pain	cue	3	high_cue	n/a	n/a	n/a	n/a	n/a	n/a	n/a	task-social/cue/runtype-pain/sch/h012.png	n/a	n/a	n/a	n/a	n/a	n/a	n/a	n/a
71.11	2.18	pain	expectrating	3	high_cue	n/a	84.47	Very-Strong	84.47	Very-Strong	0.07	2.12	task-social/cue/runtype-pain/sch/h012.png	n/a	n/a	n/a	n/a	n/a	n/a	n/a	n/a
79.42	12.36	pain	stimulus	3	high_cue	med_stim	n/a	n/a	n/a	n/a	n/a	n/a	n/a	79.42	83.18	88.18	91.79	success	n/a	n/a	n/a
91.9	3.56	pain	outcomerating	3	high_cue	med_stim	108.0	Strongest-sensation-of-any-kind	108.0	Strongest-sensation-of-any-kind	0.07	2.12	task-social/outcomerating/task-pain_scale.png	n/a	n/a	n/a	n/a	success	n/a	n/a	n/a
96.6	1.0	pain	cue	4	low_cue	n/a	n/a	n/a	n/a	n/a	n/a	n/a	task-social/cue/runtype-pain/scl/l013.png	n/a	n/a	n/a	n/a	n/a	n/a	n/a	n/a
98.1	2.55	pain	expectrating	4	low_cue	n/a	33.5	Strong	33.5	Strong	0.4	2.15	task-social/cue/runtype-pain/scl/l013.png	n/a	n/a	n/a	n/a	n/a	n/a	n/a	n/a
103.73	11.909999999999997	pain	stimulus	4	low_cue	low_stim	n/a	n/a	n/a	n/a	n/a	n/a	n/a	103.73	107.23	112.23	115.63	success	n/a	n/a	n/a
117.71	1.45	pain	outcomerating	4	low_cue	low_stim	96.63	Very-Strong	96.63	Very-Strong	0.4	2.15	task-social/outcomerating/task-pain_scale.png	n/a	n/a	n/a	n/a	success	n/a	n/a	n/a
123.99	1.0	pain	cue	5	high_cue	n/a	n/a	n/a	n/a	n/a	n/a	n/a	task-social/cue/runtype-pain/sch/h024.png	n/a	n/a	n/a	n/a	n/a	n/a	n/a	n/a
126.79	2.03	pain	expectrating	5	high_cue	n/a	134.19	Strongest-sensation-of-any-kind	134.19	Strongest-sensation-of-any-kind	0.37	1.67	task-social/cue/runtype-pain/sch/h024.png	n/a	n/a	n/a	n/a	n/a	n/a	n/a	n/a
132.44	12.819999999999993	pain	stimulus	5	high_cue	high_stim	n/a	n/a	n/a	n/a	n/a	n/a	n/a	132.44	136.45	141.45	145.26	success	n/a	n/a	n/a
151.7	2.12	pain	outcomerating	5	high_cue	high_stim	122.6	Strongest-sensation-of-any-kind	122.6	Strongest-sensation-of-any-kind	0.37	1.67	task-social/outcomerating/task-pain_scale.png	n/a	n/a	n/a	n/a	success	n/a	n/a	n/a
167.29	1.0	pain	cue	6	high_cue	n/a	n/a	n/a	n/a	n/a	n/a	n/a	task-social/cue/runtype-pain/sch/h020.png	n/a	n/a	n/a	n/a	n/a	n/a	n/a	n/a
170.09	1.9	pain	expectrating	6	high_cue	n/a	125.54	Strongest-sensation-of-any-kind	125.54	Strongest-sensation-of-any-kind	0.48	1.42	task-social/cue/runtype-pain/sch/h020.png	n/a	n/a	n/a	n/a	n/a	n/a	n/a	n/a
178.52	11.899999999999977	pain	stimulus	6	high_cue	low_stim	n/a	n/a	n/a	n/a	n/a	n/a	n/a	178.52	182.02	187.02	190.42	success	n/a	n/a	n/a
192.9	2.04	pain	outcomerating	6	high_cue	low_stim	118.21	Strongest-sensation-of-any-kind	118.21	Strongest-sensation-of-any-kind	0.48	1.42	task-social/outcomerating/task-pain_scale.png	n/a	n/a	n/a	n/a	success	n/a	n/a	n/a
203.29	1.0	pain	cue	7	low_cue	n/a	n/a	n/a	n/a	n/a	n/a	n/a	task-social/cue/runtype-pain/scl/l036.png	n/a	n/a	n/a	n/a	n/a	n/a	n/a	n/a
205.21	1.57	pain	expectrating	7	low_cue	n/a	39.03	Strong	39.03	Strong	0.15	1.42	task-social/cue/runtype-pain/scl/l036.png	n/a	n/a	n/a	n/a	n/a	n/a	n/a	n/a
218.63	12.360000000000014	pain	stimulus	7	low_cue	med_stim	n/a	n/a	n/a	n/a	n/a	n/a	n/a	218.63	222.39	227.39	231.0	success	n/a	n/a	n/a
228.7	1.89	pain	outcomerating	7	low_cue	med_stim	121.88	Strongest-sensation-of-any-kind	121.88	Strongest-sensation-of-any-kind	0.15	1.42	task-social/outcomerating/task-pain_scale.png	n/a	n/a	n/a	n/a	success	n/a	n/a	n/a
238.7	0.98	pain	cue	8	low_cue	n/a	n/a	n/a	n/a	n/a	n/a	n/a	task-social/cue/runtype-pain/scl/l016.png	n/a	n/a	n/a	n/a	n/a	n/a	n/a	n/a
241.9	1.68	pain	expectrating	8	low_cue	n/a	32.54	Strong	32.54	Strong	0.05	1.63	task-social/cue/runtype-pain/scl/l016.png	n/a	n/a	n/a	n/a	n/a	n/a	n/a	n/a
254.92	12.830000000000013	pain	stimulus	8	low_cue	high_stim	n/a	n/a	n/a	n/a	n/a	n/a	n/a	254.92	258.93	263.93	267.74	success	n/a	n/a	n/a
267.8	1.87	pain	outcomerating	8	low_cue	high_stim	120.57	Strongest-sensation-of-any-kind	120.57	Strongest-sensation-of-any-kind	0.05	1.63	task-social/outcomerating/task-pain_scale.png	n/a	n/a	n/a	n/a	success	n/a	n/a	n/a
276.9	1.0	pain	cue	9	low_cue	n/a	n/a	n/a	n/a	n/a	n/a	n/a	task-social/cue/runtype-pain/scl/l002.png	n/a	n/a	n/a	n/a	n/a	n/a	n/a	n/a
280.1	1.99	pain	expectrating	9	low_cue	n/a	23.68	Moderate	23.68	Moderate	0.33	1.65	task-social/cue/runtype-pain/scl/l002.png	n/a	n/a	n/a	n/a	n/a	n/a	n/a	n/a
288.55	12.360000000000014	pain	stimulus	9	low_cue	med_stim	n/a	n/a	n/a	n/a	n/a	n/a	n/a	288.55	292.31	297.31	300.92	success	n/a	n/a	n/a
305.69	1.73	pain	outcomerating	9	low_cue	med_stim	126.73	Strongest-sensation-of-any-kind	126.73	Strongest-sensation-of-any-kind	0.33	1.65	task-social/outcomerating/task-pain_scale.png	n/a	n/a	n/a	n/a	success	n/a	n/a	n/a
312.3	1.0	pain	cue	10	low_cue	n/a	n/a	n/a	n/a	n/a	n/a	n/a	task-social/cue/runtype-pain/scl/l028.png	n/a	n/a	n/a	n/a	n/a	n/a	n/a	n/a
315.1	1.49	pain	expectrating	10	low_cue	n/a	58.48	Strong	58.48	Strong	0.05	1.44	task-social/cue/runtype-pain/scl/l028.png	n/a	n/a	n/a	n/a	n/a	n/a	n/a	n/a
323.45	11.900000000000034	pain	stimulus	10	low_cue	low_stim	n/a	n/a	n/a	n/a	n/a	n/a	n/a	323.45	326.95	331.95	335.35	success	n/a	n/a	n/a
335.61	1.82	pain	outcomerating	10	low_cue	low_stim	106.55	Strongest-sensation-of-any-kind	106.55	Strongest-sensation-of-any-kind	0.05	1.44	task-social/outcomerating/task-pain_scale.png	n/a	n/a	n/a	n/a	success	n/a	n/a	n/a
347.39	1.0	pain	cue	11	high_cue	n/a	n/a	n/a	n/a	n/a	n/a	n/a	task-social/cue/runtype-pain/sch/h041.png	n/a	n/a	n/a	n/a	n/a	n/a	n/a	n/a
349.09	1.87	pain	expectrating	11	high_cue	n/a	127.29	Strongest-sensation-of-any-kind	127.29	Strongest-sensation-of-any-kind	0.05	1.82	task-social/cue/runtype-pain/sch/h041.png	n/a	n/a	n/a	n/a	n/a	n/a	n/a	n/a
354.72	12.369999999999948	pain	stimulus	11	high_cue	med_stim	n/a	n/a	n/a	n/a	n/a	n/a	n/a	354.72	358.48	363.48	367.09	success	n/a	n/a	n/a
366.9	2.59	pain	outcomerating	11	high_cue	med_stim	136.14	Strongest-sensation-of-any-kind	136.14	Strongest-sensation-of-any-kind	0.05	1.82	task-social/outcomerating/task-pain_scale.png	n/a	n/a	n/a	n/a	success	n/a	n/a	n/a
373.2	0.98	pain	cue	12	low_cue	n/a	n/a	n/a	n/a	n/a	n/a	n/a	task-social/cue/runtype-pain/scl/l038.png	n/a	n/a	n/a	n/a	n/a	n/a	n/a	n/a
375.7	2.15	pain	expectrating	12	low_cue	n/a	71.27	Very-Strong	71.27	Very-Strong	0.05	2.1	task-social/cue/runtype-pain/scl/l038.png	n/a	n/a	n/a	n/a	n/a	n/a	n/a	n/a
383.65	12.82000000000005	pain	stimulus	12	low_cue	high_stim	n/a	n/a	n/a	n/a	n/a	n/a	n/a	383.65	387.66	392.66	396.47	success	n/a	n/a	n/a
394.79	2.82	pain	outcomerating	12	low_cue	high_stim	135.33	Strongest-sensation-of-any-kind	135.33	Strongest-sensation-of-any-kind	0.05	2.1	task-social/outcomerating/task-pain_scale.png	n/a	n/a	n/a	n/a	success	n/a	n/a	n/a
