onset	duration	run_type	trial_type	trial_index	cue	stimulusintensity	rating_value	rating_glmslabel	rating_value_fillna	rating_glmslabel_fillna	rating_mouseonset	rating_mousedur	stim_file_TODO	pain_onset_ttl1	pain_onset_ttl2	pain_onset_ttl3	pain_onset_ttl4	pain_stimulus_delivery_success	cognitive_correct_response	cognitive_participant_response	cognitive_response_accuracy
5.69	0.99	vicarious	cue	1	high_cue	n/a	n/a	n/a	n/a	n/a	n/a	n/a	task-social/cue/runtype-vicarious/sch/h003.png	n/a	n/a	n/a	n/a	n/a	n/a	n/a	n/a
8.31	3.45	vicarious	expectrating	1	high_cue	n/a	25.23	Moderate	25.23	Moderate	0.5	2.95	task-social/cue/runtype-vicarious/sch/h003.png	n/a	n/a	n/a	n/a	n/a	n/a	n/a	n/a
14.88	5.0	vicarious	stimulus	1	high_cue	high_stim	n/a	n/a	n/a	n/a	n/a	n/a	task-social/stim/runtype-vicarious/ch092t2aiaff_H.mp4	n/a	n/a	n/a	n/a	n/a	n/a	n/a	n/a
23.9	2.2	vicarious	outcomerating	1	high_cue	high_stim	19.89	Moderate	19.89	Moderate	0.5	2.95	task-social/outcomerating/task-vicarious_scale.png	n/a	n/a	n/a	n/a	n/a	n/a	n/a	n/a
32.29	0.99	vicarious	cue	2	low_cue	n/a	n/a	n/a	n/a	n/a	n/a	n/a	task-social/cue/runtype-vicarious/scl/l035.png	n/a	n/a	n/a	n/a	n/a	n/a	n/a	n/a
35.29	3.7	vicarious	expectrating	2	low_cue	n/a	15.32	Moderate	15.32	Moderate	0.05	3.65	task-social/cue/runtype-vicarious/scl/l035.png	n/a	n/a	n/a	n/a	n/a	n/a	n/a	n/a
47.18	5.0	vicarious	stimulus	2	low_cue	high_stim	n/a	n/a	n/a	n/a	n/a	n/a	task-social/stim/runtype-vicarious/mg101t2aeaff_H.mp4	n/a	n/a	n/a	n/a	n/a	n/a	n/a	n/a
58.5	n/a	vicarious	outcomerating	2	low_cue	high_stim	n/a	n/a	61.17	Strong	0.05	3.65	task-social/outcomerating/task-vicarious_scale.png	n/a	n/a	n/a	n/a	n/a	n/a	n/a	n/a
63.08	1.0	vicarious	cue	3	low_cue	n/a	n/a	n/a	n/a	n/a	n/a	n/a	task-social/cue/runtype-vicarious/scl/l025.png	n/a	n/a	n/a	n/a	n/a	n/a	n/a	n/a
65.5	3.0	vicarious	expectrating	3	low_cue	n/a	41.42	Strong	41.42	Strong	0.92	2.09	task-social/cue/runtype-vicarious/scl/l025.png	n/a	n/a	n/a	n/a	n/a	n/a	n/a	n/a
72.08	5.0	vicarious	stimulus	3	low_cue	high_stim	n/a	n/a	n/a	n/a	n/a	n/a	task-social/stim/runtype-vicarious/ak064t1aaaff_H.mp4	n/a	n/a	n/a	n/a	n/a	n/a	n/a	n/a
81.91	3.43	vicarious	outcomerating	3	low_cue	high_stim	60.78	Strong	60.78	Strong	0.92	2.09	task-social/outcomerating/task-vicarious_scale.png	n/a	n/a	n/a	n/a	n/a	n/a	n/a	n/a
95.1	0.98	vicarious	cue	4	high_cue	n/a	n/a	n/a	n/a	n/a	n/a	n/a	task-social/cue/runtype-vicarious/sch/h023.png	n/a	n/a	n/a	n/a	n/a	n/a	n/a	n/a
97.5	n/a	vicarious	expectrating	4	high_cue	n/a	n/a	n/a	47.28	Strong	0.48	1.73	task-social/cue/runtype-vicarious/sch/h023.png	n/a	n/a	n/a	n/a	n/a	n/a	n/a	n/a
104.68	5.0	vicarious	stimulus	4	high_cue	high_stim	n/a	n/a	n/a	n/a	n/a	n/a	task-social/stim/runtype-vicarious/tv095t1afaff_H.mp4	n/a	n/a	n/a	n/a	n/a	n/a	n/a	n/a
115.6	n/a	vicarious	outcomerating	4	high_cue	high_stim	n/a	n/a	59.51	Strong	0.48	1.73	task-social/outcomerating/task-vicarious_scale.png	n/a	n/a	n/a	n/a	n/a	n/a	n/a	n/a
120.19	0.99	vicarious	cue	5	low_cue	n/a	n/a	n/a	n/a	n/a	n/a	n/a	task-social/cue/runtype-vicarious/scl/l018.png	n/a	n/a	n/a	n/a	n/a	n/a	n/a	n/a
123.19	2.57	vicarious	expectrating	5	low_cue	n/a	33.95	Strong	33.95	Strong	0.4	2.17	task-social/cue/runtype-vicarious/scl/l018.png	n/a	n/a	n/a	n/a	n/a	n/a	n/a	n/a
140.38	5.0	vicarious	stimulus	5	low_cue	low_stim	n/a	n/a	n/a	n/a	n/a	n/a	task-social/stim/runtype-vicarious/ak064t1afunaff_L.mp4	n/a	n/a	n/a	n/a	n/a	n/a	n/a	n/a
149.0	2.26	vicarious	outcomerating	5	low_cue	low_stim	1.61	Barely detectable	1.61	Barely detectable	0.4	2.17	task-social/outcomerating/task-vicarious_scale.png	n/a	n/a	n/a	n/a	n/a	n/a	n/a	n/a
159.89	0.99	vicarious	cue	6	high_cue	n/a	n/a	n/a	n/a	n/a	n/a	n/a	task-social/cue/runtype-vicarious/sch/h021.png	n/a	n/a	n/a	n/a	n/a	n/a	n/a	n/a
162.89	2.2	vicarious	expectrating	6	high_cue	n/a	53.55	Strong	53.55	Strong	0.33	1.87	task-social/cue/runtype-vicarious/sch/h021.png	n/a	n/a	n/a	n/a	n/a	n/a	n/a	n/a
188.98	5.0	vicarious	stimulus	6	high_cue	low_stim	n/a	n/a	n/a	n/a	n/a	n/a	task-social/stim/runtype-vicarious/bm049t1afaff_L.mp4	n/a	n/a	n/a	n/a	n/a	n/a	n/a	n/a
208.41	2.95	vicarious	outcomerating	6	high_cue	low_stim	4.59	Weak	4.59	Weak	0.33	1.87	task-social/outcomerating/task-vicarious_scale.png	n/a	n/a	n/a	n/a	n/a	n/a	n/a	n/a
219.3	0.98	vicarious	cue	7	low_cue	n/a	n/a	n/a	n/a	n/a	n/a	n/a	task-social/cue/runtype-vicarious/scl/l012.png	n/a	n/a	n/a	n/a	n/a	n/a	n/a	n/a
221.5	2.1	vicarious	expectrating	7	low_cue	n/a	12.04	Moderate	12.04	Moderate	0.47	1.63	task-social/cue/runtype-vicarious/scl/l012.png	n/a	n/a	n/a	n/a	n/a	n/a	n/a	n/a
230.48	5.0	vicarious	stimulus	7	low_cue	med_stim	n/a	n/a	n/a	n/a	n/a	n/a	task-social/stim/runtype-vicarious/tv095t2afaff_M.mp4	n/a	n/a	n/a	n/a	n/a	n/a	n/a	n/a
241.41	2.75	vicarious	outcomerating	7	low_cue	med_stim	21.5	Moderate	21.5	Moderate	0.47	1.63	task-social/outcomerating/task-vicarious_scale.png	n/a	n/a	n/a	n/a	n/a	n/a	n/a	n/a
252.49	0.99	vicarious	cue	8	high_cue	n/a	n/a	n/a	n/a	n/a	n/a	n/a	task-social/cue/runtype-vicarious/sch/h055.png	n/a	n/a	n/a	n/a	n/a	n/a	n/a	n/a
255.09	1.68	vicarious	expectrating	8	high_cue	n/a	46.46	Strong	46.46	Strong	0.45	1.23	task-social/cue/runtype-vicarious/sch/h055.png	n/a	n/a	n/a	n/a	n/a	n/a	n/a	n/a
262.08	5.0	vicarious	stimulus	8	high_cue	med_stim	n/a	n/a	n/a	n/a	n/a	n/a	task-social/stim/runtype-vicarious/dn124t1aeunaff_M.mp4	n/a	n/a	n/a	n/a	n/a	n/a	n/a	n/a
274.0	3.67	vicarious	outcomerating	8	high_cue	med_stim	8.07	Weak	8.07	Weak	0.45	1.23	task-social/outcomerating/task-vicarious_scale.png	n/a	n/a	n/a	n/a	n/a	n/a	n/a	n/a
283.89	0.99	vicarious	cue	9	high_cue	n/a	n/a	n/a	n/a	n/a	n/a	n/a	task-social/cue/runtype-vicarious/sch/h042.png	n/a	n/a	n/a	n/a	n/a	n/a	n/a	n/a
285.79	n/a	vicarious	expectrating	9	high_cue	n/a	n/a	n/a	23.89	Moderate	1.18	1.8	task-social/cue/runtype-vicarious/sch/h042.png	n/a	n/a	n/a	n/a	n/a	n/a	n/a	n/a
293.38	5.0	vicarious	stimulus	9	high_cue	med_stim	n/a	n/a	n/a	n/a	n/a	n/a	task-social/stim/runtype-vicarious/bm049t2aeaff_M.mp4	n/a	n/a	n/a	n/a	n/a	n/a	n/a	n/a
302.8	3.99	vicarious	outcomerating	9	high_cue	med_stim	5.3	Weak	5.3	Weak	1.18	1.8	task-social/outcomerating/task-vicarious_scale.png	n/a	n/a	n/a	n/a	n/a	n/a	n/a	n/a
311.88	1.0	vicarious	cue	10	low_cue	n/a	n/a	n/a	n/a	n/a	n/a	n/a	task-social/cue/runtype-vicarious/scl/l015.png	n/a	n/a	n/a	n/a	n/a	n/a	n/a	n/a
314.9	3.03	vicarious	expectrating	10	low_cue	n/a	12.0	Moderate	12.0	Moderate	0.23	2.8	task-social/cue/runtype-vicarious/scl/l015.png	n/a	n/a	n/a	n/a	n/a	n/a	n/a	n/a
322.48	5.0	vicarious	stimulus	10	low_cue	med_stim	n/a	n/a	n/a	n/a	n/a	n/a	task-social/stim/runtype-vicarious/mg101t2aeunaff_M.mp4	n/a	n/a	n/a	n/a	n/a	n/a	n/a	n/a
334.99	2.49	vicarious	outcomerating	10	low_cue	med_stim	5.96	Weak	5.96	Weak	0.23	2.8	task-social/outcomerating/task-vicarious_scale.png	n/a	n/a	n/a	n/a	n/a	n/a	n/a	n/a
341.3	0.98	vicarious	cue	11	high_cue	n/a	n/a	n/a	n/a	n/a	n/a	n/a	task-social/cue/runtype-vicarious/sch/h054.png	n/a	n/a	n/a	n/a	n/a	n/a	n/a	n/a
343.2	2.05	vicarious	expectrating	11	high_cue	n/a	8.55	Weak	8.55	Weak	0.45	1.6	task-social/cue/runtype-vicarious/sch/h054.png	n/a	n/a	n/a	n/a	n/a	n/a	n/a	n/a
355.48	5.0	vicarious	stimulus	11	high_cue	low_stim	n/a	n/a	n/a	n/a	n/a	n/a	task-social/stim/runtype-vicarious/dn124t1aaunaff_L.mp4	n/a	n/a	n/a	n/a	n/a	n/a	n/a	n/a
365.31	2.48	vicarious	outcomerating	11	high_cue	low_stim	47.77	Strong	47.77	Strong	0.45	1.6	task-social/outcomerating/task-vicarious_scale.png	n/a	n/a	n/a	n/a	n/a	n/a	n/a	n/a
371.59	0.99	vicarious	cue	12	low_cue	n/a	n/a	n/a	n/a	n/a	n/a	n/a	task-social/cue/runtype-vicarious/scl/l002.png	n/a	n/a	n/a	n/a	n/a	n/a	n/a	n/a
373.49	3.22	vicarious	expectrating	12	low_cue	n/a	14.71	Moderate	14.71	Moderate	1.5	1.72	task-social/cue/runtype-vicarious/scl/l002.png	n/a	n/a	n/a	n/a	n/a	n/a	n/a	n/a
380.28	5.0	vicarious	stimulus	12	low_cue	low_stim	n/a	n/a	n/a	n/a	n/a	n/a	task-social/stim/runtype-vicarious/tv095t2aeunaff_L.mp4	n/a	n/a	n/a	n/a	n/a	n/a	n/a	n/a
395.0	3.23	vicarious	outcomerating	12	low_cue	low_stim	4.2	Weak	4.2	Weak	1.5	1.72	task-social/outcomerating/task-vicarious_scale.png	n/a	n/a	n/a	n/a	n/a	n/a	n/a	n/a
