onset	duration	subtask_type	event_type	response_accuracy	cue_location	target_location	button_press	trial_index
6.07958197593689	0.2	posner	valid_cue	correct	right	n/a	n/a	1
6.27965688705444	0.619911193847656	posner	target_response	correct	right	right	right	1
9.26410222053528	0.2	posner	invalid_cue	correct	right	n/a	n/a	2
9.46417760848999	0.446481466293335	posner	target_response	correct	right	left	left	2
14.6327707767487	0.2	posner	valid_cue	correct	right	n/a	n/a	3
14.8328466415405	0.43741250038147	posner	target_response	correct	right	right	right	3
17.9006569385529	0.2	posner	invalid_cue	correct	right	n/a	n/a	4
18.1007313728333	0.482453584671021	posner	target_response	correct	right	left	left	4
23.9695866107941	0.2	posner	invalid_cue	correct	right	n/a	n/a	5
24.1696629524231	0.553583145141602	posner	target_response	correct	right	left	left	5
31.4390392303467	0.2	posner	valid_cue	correct	left	n/a	n/a	6
31.6391139030457	0.49333119392395	posner	target_response	correct	left	left	left	6
35.1070740222931	0.2	posner	valid_cue	correct	right	n/a	n/a	7
35.3071475028992	0.467633485794067	posner	target_response	correct	right	right	right	7
38.4749963283539	0.2	posner	valid_cue	correct	right	n/a	n/a	8
38.6750710010529	0.413197994232178	posner	target_response	correct	right	right	right	8
44.8440372943878	0.2	posner	valid_cue	correct	right	n/a	n/a	9
45.0441126823425	0.421777248382568	posner	target_response	correct	right	right	right	9
48.0118856430054	0.2	posner	invalid_cue	correct	right	n/a	n/a	10
48.2119607925415	0.499271154403687	posner	target_response	correct	right	left	left	10
57.6821584701538	0.2	posner	invalid_cue	correct	left	n/a	n/a	11
57.8822340965271	0.508141994476318	posner	target_response	correct	left	right	right	11
60.7499701976776	0.2	posner	invalid_cue	correct	left	n/a	n/a	12
60.950044631958	0.499338388442993	posner	target_response	correct	left	right	right	12
64.0178544521332	0.2	posner	valid_cue	correct	right	n/a	n/a	13
64.2179296016693	0.499034404754639	posner	target_response	correct	right	right	right	13
67.0856657028198	0.2	posner	valid_cue	correct	right	n/a	n/a	14
67.2857406139374	0.4125075340271	posner	target_response	correct	right	right	right	14
74.7551925182343	0.2	posner	valid_cue	correct	left	n/a	n/a	15
74.9552676677704	0.457196474075317	posner	target_response	correct	left	left	left	15
78.4232263565063	0.2	posner	invalid_cue	correct	right	n/a	n/a	16
78.6233015060425	0.614084482192993	posner	target_response	correct	right	left	left	16
81.4910380840302	0.2	posner	valid_cue	correct	left	n/a	n/a	17
81.6911134719849	0.512106657028198	posner	target_response	correct	left	left	left	17
86.9597442150116	0.2	posner	valid_cue	correct	right	n/a	n/a	18
87.1598188877106	0.416041135787964	posner	target_response	correct	right	right	right	18
96.63001704216	0.2	posner	invalid_cue	correct	right	n/a	n/a	19
96.830091714859	0.438401222229004	posner	target_response	correct	right	left	left	19
100.09797668457	0.2	posner	invalid_cue	correct	right	n/a	n/a	20
100.298051595688	0.474269390106201	posner	target_response	correct	right	left	left	20
103.866049289703	0.2	posner	invalid_cue	correct	right	n/a	n/a	21
104.066123008728	0.459120035171509	posner	target_response	correct	right	left	left	21
107.534083127975	0.2	posner	invalid_cue	correct	left	n/a	n/a	22
107.734157562256	0.437238454818726	posner	target_response	correct	left	right	right	22
110.801969051361	0.2	posner	invalid_cue	correct	left	n/a	n/a	23
111.002042531967	0.481254577636719	posner	target_response	correct	left	right	right	23
114.670078039169	0.2	posner	valid_cue	correct	right	n/a	n/a	24
114.870152711868	0.461089372634888	posner	target_response	correct	right	right	right	24
121.439268350601	0.2	posner	invalid_cue	correct	right	n/a	n/a	25
121.639344215393	0.438837766647339	posner	target_response	correct	right	left	left	25
125.007266283035	0.2	posner	invalid_cue	correct	right	n/a	n/a	26
125.207340955734	0.555448055267334	posner	target_response	correct	right	left	left	26
130.075824975967	0.2	posner	valid_cue	correct	left	n/a	n/a	27
130.275897741318	0.503371238708496	posner	target_response	correct	left	left	left	27
134.144007205963	0.2	posner	invalid_cue	correct	left	n/a	n/a	28
134.344081878662	0.437621116638184	posner	target_response	correct	left	right	right	28
137.912078857422	0.2	posner	valid_cue	correct	right	n/a	n/a	29
138.112152576447	0.562145471572876	posner	target_response	correct	right	right	right	29
141.263328790665	0.2	posner	invalid_cue	correct	left	n/a	n/a	30
141.463403224945	0.574974775314331	posner	target_response	correct	left	right	right	30
148.632744312286	0.2	posner	invalid_cue	correct	left	n/a	n/a	31
148.832819700241	0.524370431900024	posner	target_response	correct	left	right	right	31
154.001411676407	0.2	posner	valid_cue	correct	right	n/a	n/a	32
154.201486825943	0.412042140960693	posner	target_response	correct	right	right	right	32
161.470863342285	0.2	posner	invalid_cue	correct	left	n/a	n/a	33
161.670938968658	0.45356297492981	posner	target_response	correct	left	right	right	33
165.038862228394	0.2	posner	invalid_cue	correct	right	n/a	n/a	34
165.238935232162	0.499309778213501	posner	target_response	correct	right	left	left	34
168.006635427475	0.2	posner	valid_cue	correct	right	n/a	n/a	35
168.206708431244	0.492819547653198	posner	target_response	correct	right	right	right	35
173.175228595734	0.2	posner	valid_cue	correct	left	n/a	n/a	36
173.375304460526	0.389976501464844	posner	target_response	correct	left	left	left	36
176.543152093887	0.2	posner	valid_cue	correct	left	n/a	n/a	37
176.743226051331	0.435054063796997	posner	target_response	correct	left	left	left	37
182.612082481384	0.2	posner	valid_cue	correct	right	n/a	n/a	38
182.812156200409	0.422139883041382	posner	target_response	correct	right	right	right	38
189.081161022186	0.2	posner	invalid_cue	correct	left	n/a	n/a	39
189.28123497963	0.47402811050415	posner	target_response	correct	left	right	right	39
192.349045991898	0.2	posner	valid_cue	correct	right	n/a	n/a	40
192.549120187759	0.475650787353516	posner	target_response	correct	right	right	right	40
196.517267227173	0.2	posner	valid_cue	correct	left	n/a	n/a	41
196.717341899872	0.385909080505371	posner	target_response	correct	left	left	left	41
203.786645174026	0.2	posner	valid_cue	correct	left	n/a	n/a	42
203.98671913147	0.409710884094238	posner	target_response	correct	left	left	left	42
208.555089950562	0.2	posner	invalid_cue	correct	right	n/a	n/a	43
208.755164146423	0.479305982589722	posner	target_response	correct	right	left	left	43
212.023049116135	0.2	posner	invalid_cue	correct	left	n/a	n/a	44
212.223124265671	0.450113773345947	posner	target_response	correct	left	right	right	44
215.591046571732	0.2	posner	invalid_cue	correct	right	n/a	n/a	45
215.791121959686	0.43838095664978	posner	target_response	correct	right	left	left	45
225.261319637299	0.2	posner	valid_cue	correct	right	n/a	n/a	46
225.461395025253	0.437844038009644	posner	target_response	correct	right	right	right	46
230.629988908768	0.2	posner	invalid_cue	correct	left	n/a	n/a	47
230.830062627792	0.462165355682373	posner	target_response	correct	left	right	right	47
234.398061037064	0.2	posner	valid_cue	correct	right	n/a	n/a	48
234.598134994507	0.399107933044434	posner	target_response	correct	right	right	right	48
238.466243982315	0.2	posner	invalid_cue	correct	left	n/a	n/a	49
238.666319131851	0.601372957229614	posner	target_response	correct	left	right	right	49
242.234316110611	0.2	posner	valid_cue	correct	left	n/a	n/a	50
242.43439078331	0.427876234054565	posner	target_response	correct	left	left	left	50
246.202463626862	0.2	posner	invalid_cue	correct	right	n/a	n/a	51
246.40253663063	0.448322296142578	posner	target_response	correct	right	left	left	51
251.571128606796	0.2	posner	valid_cue	correct	right	n/a	n/a	52
251.771205425262	0.432071685791016	posner	target_response	correct	right	right	right	52
255.339202642441	0.2	posner	invalid_cue	correct	left	n/a	n/a	53
255.539278030396	0.478513956069946	posner	target_response	correct	left	right	right	53
259.207311868668	0.2	posner	valid_cue	correct	left	n/a	n/a	54
259.407386779785	0.504007339477539	posner	target_response	correct	left	left	left	54
266.276614427567	0.2	posner	invalid_cue	correct	left	n/a	n/a	55
266.476689577103	0.395843505859375	posner	target_response	correct	left	right	right	55
273.746067762375	0.2	posner	valid_cue	correct	right	n/a	n/a	56
273.946141719818	0.369124412536621	posner	target_response	correct	right	right	right	56
276.813877344131	0.2	posner	invalid_cue	correct	left	n/a	n/a	57
277.013952732086	1.275315284729	posner	target_response	correct	left	right	right	57
280.782025098801	0.2	posner	invalid_cue	correct	left	n/a	n/a	58
280.982098817825	0.738537311553955	posner	target_response	correct	left	right	right	58
288.251477003098	0.2	posner	valid_cue	correct	left	n/a	n/a	59
288.451550483704	0.375395536422729	posner	target_response	correct	left	left	left	59
295.720928907394	0.2	posner	invalid_cue	correct	right	n/a	n/a	60
295.921003580093	0.468167543411255	posner	target_response	correct	right	left	left	60
298.888776779175	0.2	posner	invalid_cue	correct	left	n/a	n/a	61
299.088851690292	0.409421443939209	posner	target_response	correct	left	right	right	61
302.456774234772	0.2	posner	invalid_cue	correct	left	n/a	n/a	62
302.656848669052	0.526468276977539	posner	target_response	correct	left	right	right	62
305.524584531784	0.2	posner	invalid_cue	correct	right	n/a	n/a	63
305.724659919739	0.515784025192261	posner	target_response	correct	right	left	left	63
308.79247045517	0.2	posner	invalid_cue	correct	left	n/a	n/a	64
308.992544651031	0.432669401168823	posner	target_response	correct	left	right	right	64
316.261921644211	0.2	posner	invalid_cue	correct	right	n/a	n/a	65
316.461996793747	0.437774181365967	posner	target_response	correct	right	left	left	65
320.330107212067	0.2	posner	invalid_cue	correct	right	n/a	n/a	66
320.530180692673	0.503135442733765	posner	target_response	correct	right	left	left	66
323.397917032242	0.2	posner	invalid_cue	correct	left	n/a	n/a	67
323.597991466522	0.400818586349487	posner	target_response	correct	left	right	right	67
327.165988683701	0.2	posner	valid_cue	correct	right	n/a	n/a	68
327.366064071655	0.418171882629395	posner	target_response	correct	right	right	right	68
330.633948802948	0.2	posner	valid_cue	correct	right	n/a	n/a	69
330.834023475647	0.449705600738525	posner	target_response	correct	right	right	right	69
333.901834726334	0.2	posner	valid_cue	correct	left	n/a	n/a	70
334.101908683777	0.38203239440918	posner	target_response	correct	left	left	left	70
340.370913505554	0.2	posner	invalid_cue	correct	left	n/a	n/a	71
340.570988178253	0.388912916183472	posner	target_response	correct	left	right	right	71
347.840365409851	0.2	posner	valid_cue	correct	left	n/a	n/a	72
348.040440320969	0.377997636795044	posner	target_response	correct	left	left	left	72
353.209033489227	0.2	posner	valid_cue	correct	left	n/a	n/a	73
353.409108877182	0.391194105148315	posner	target_response	correct	left	left	left	73
356.777031898499	0.2	posner	invalid_cue	correct	left	n/a	n/a	74
356.977106332779	0.460287809371948	posner	target_response	correct	left	right	right	74
359.744804859161	0.2	posner	invalid_cue	correct	right	n/a	n/a	75
359.944878578186	0.477671384811401	posner	target_response	correct	right	left	left	75
363.112727880478	0.2	posner	invalid_cue	correct	left	n/a	n/a	76
363.312803268433	0.368460655212402	posner	target_response	correct	left	right	right	76
368.381358385086	0.2	posner	invalid_cue	correct	right	n/a	n/a	77
368.581434249878	0.428875684738159	posner	target_response	correct	right	left	left	77
375.850810527802	0.2	posner	invalid_cue	correct	right	n/a	n/a	78
376.050885915756	0.435664176940918	posner	target_response	correct	right	left	left	78
385.52108335495	0.2	posner	valid_cue	correct	left	n/a	n/a	79
385.721159219742	0.440635919570923	posner	target_response	correct	left	left	left	79
388.488857030869	0.2	posner	valid_cue	correct	right	n/a	n/a	80
388.688931703568	0.51449728012085	posner	target_response	correct	right	right	right	80
395.758234977722	0.2	posner	valid_cue	correct	left	n/a	n/a	81
395.958309412003	0.407994508743286	posner	target_response	correct	left	left	left	81
403.227686405182	0.2	posner	valid_cue	correct	right	n/a	n/a	82
403.427762031555	0.369281053543091	posner	target_response	correct	right	right	right	82
406.995759010315	0.2	posner	invalid_cue	correct	right	n/a	n/a	83
407.195833921432	0.385584115982056	posner	target_response	correct	right	left	left	83
410.063569784164	0.2	posner	invalid_cue	correct	right	n/a	n/a	84
410.263644456863	0.405086517333984	posner	target_response	correct	right	left	left	84
419.733842372894	0.2	posner	valid_cue	correct	left	n/a	n/a	85
419.93391752243	0.424414396286011	posner	target_response	correct	left	left	left	85
424.302212715149	0.2	posner	invalid_cue	correct	right	n/a	n/a	86
424.502287626266	0.425967454910278	posner	target_response	correct	right	left	left	86
429.670881509781	0.2	posner	invalid_cue	correct	right	n/a	n/a	87
429.870956659317	0.451285362243652	posner	target_response	correct	right	left	left	87
432.638654947281	0.2	posner	valid_cue	correct	left	n/a	n/a	88
432.83872961998	0.466717481613159	posner	target_response	correct	left	left	left	88
435.906540393829	0.2	posner	valid_cue	correct	right	n/a	n/a	89
436.106614589691	0.40104341506958	posner	target_response	correct	right	right	right	89
442.37561917305	0.2	posner	valid_cue	correct	left	n/a	n/a	90
442.575695037842	0.417932987213135	posner	target_response	correct	left	left	left	90
449.845071554184	0.2	posner	valid_cue	correct	left	n/a	n/a	91
450.045147418976	0.398460626602173	posner	target_response	correct	left	left	left	91
457.314523935318	0.2	posner	valid_cue	correct	left	n/a	n/a	92
457.514598369598	0.340210676193237	posner	target_response	correct	left	left	left	92
460.282296180725	0.2	posner	valid_cue	correct	left	n/a	n/a	93
460.482372283936	0.548152685165405	posner	target_response	correct	left	left	left	93
463.550182819366	0.2	posner	invalid_cue	correct	right	n/a	n/a	94
463.750258207321	0.398757934570312	posner	target_response	correct	right	left	left	94
466.818067789078	0.2	posner	invalid_cue	correct	left	n/a	n/a	95
467.018142461777	0.472392559051514	posner	target_response	correct	left	right	right	95
470.586140155792	0.2	posner	invalid_cue	correct	right	n/a	n/a	96
470.786214590073	0.384156465530396	posner	target_response	correct	right	left	left	96
473.954063415527	0.2	posner	valid_cue	correct	right	n/a	n/a	97
474.154136896133	0.375178098678589	posner	target_response	correct	right	right	right	97
477.321985721588	0.2	posner	valid_cue	correct	left	n/a	n/a	98
477.522060155869	0.323782920837402	posner	target_response	correct	left	left	left	98
486.992257356644	0.2	posner	valid_cue	correct	right	n/a	n/a	99
487.192332983017	0.331984996795654	posner	target_response	correct	right	right	right	99
490.360179901123	0.2	posner	invalid_cue	correct	left	n/a	n/a	100
490.560256004333	0.481498956680298	posner	target_response	correct	left	right	right	100
493.628065109253	0.2	posner	invalid_cue	correct	left	n/a	n/a	101
493.828141212463	0.416791915893555	posner	target_response	correct	left	right	right	101
497.296100854874	0.2	posner	invalid_cue	correct	left	n/a	n/a	102
497.49617600441	0.415544033050537	posner	target_response	correct	left	right	right	102
504.065291643143	0.2	posner	invalid_cue	correct	right	n/a	n/a	103
504.265367031097	0.389385938644409	posner	target_response	correct	right	left	left	103
510.534371137619	0.2	posner	invalid_cue	correct	left	n/a	n/a	104
510.734445571899	0.470457553863525	posner	target_response	correct	left	right	right	104
517.003450155258	0.2	posner	invalid_cue	correct	left	n/a	n/a	105
517.203524827957	0.410367250442505	posner	target_response	correct	left	right	right	105
523.772641420364	0.2	posner	invalid_cue	correct	right	n/a	n/a	106
523.972715854645	0.408453226089478	posner	target_response	correct	right	left	left	106
531.242093324661	0.2	posner	invalid_cue	correct	left	n/a	n/a	107
531.442167520523	0.35638952255249	posner	target_response	correct	left	right	right	107
537.511097431183	0.2	posner	invalid_cue	correct	left	n/a	n/a	108
537.711172819138	0.495075225830078	posner	target_response	correct	left	right	right	108
542.579654455185	0.2	posner	valid_cue	correct	right	n/a	n/a	109
542.779730319977	0.417257785797119	posner	target_response	correct	right	right	right	109
546.547801971436	0.2	posner	invalid_cue	correct	right	n/a	n/a	110
546.74787569046	0.432862281799316	posner	target_response	correct	right	left	left	110
549.915724277496	0.2	posner	invalid_cue	correct	left	n/a	n/a	111
550.115798711777	0.436475276947021	posner	target_response	correct	left	right	right	111
556.584877967834	0.2	posner	invalid_cue	correct	right	n/a	n/a	112
556.784952402115	0.407450675964355	posner	target_response	correct	right	left	left	112
564.054329395294	0.2	posner	invalid_cue	correct	left	n/a	n/a	113
564.25440454483	0.370123386383057	posner	target_response	correct	left	right	right	113
571.623818397522	0.2	posner	invalid_cue	correct	right	n/a	n/a	114
571.823893785477	0.352818250656128	posner	target_response	correct	right	left	left	114
575.091778993607	0.2	posner	valid_cue	correct	left	n/a	n/a	115
575.291853666306	0.470660448074341	posner	target_response	correct	left	left	left	115
581.460820913315	0.2	posner	invalid_cue	correct	right	n/a	n/a	116
581.660895586014	0.466447353363037	posner	target_response	correct	right	left	left	116
584.7287068367	0.2	posner	invalid_cue	correct	left	n/a	n/a	117
584.928780555725	0.396665573120117	posner	target_response	correct	left	right	right	117
587.696479558945	0.2	posner	valid_cue	correct	left	n/a	n/a	118
587.896554231644	0.42375373840332	posner	target_response	correct	left	left	left	118
591.56458902359	0.2	posner	valid_cue	correct	left	n/a	n/a	119
591.764664173126	0.416631937026978	posner	target_response	correct	left	left	left	119
599.034040689468	0.2	posner	invalid_cue	correct	right	n/a	n/a	120
599.234115600586	0.442517518997192	posner	target_response	correct	right	left	left	120
