onset	duration	subtask_type	event_type	response_accuracy	cue_location	target_location	button_press	trial_index
6.86474132537842	0.2	posner	valid_cue	correct	left	n/a	n/a	1
7.08148837089539	0.414578676223755	posner	target_response	correct	left	left	left	1
10.8995780944824	0.2	posner	valid_cue	correct	right	n/a	n/a	2
11.0996532440186	0.364433765411377	posner	target_response	correct	right	right	right	2
18.3857033252716	0.2	posner	invalid_cue	correct	right	n/a	n/a	3
18.585777759552	0.390601396560669	posner	target_response	correct	right	left	left	3
21.8536632061005	0.2	posner	invalid_cue	correct	left	n/a	n/a	4
22.0537385940552	0.364313364028931	posner	target_response	correct	left	right	right	4
25.7217736244202	0.2	posner	invalid_cue	correct	left	n/a	n/a	5
25.9218473434448	0.363156795501709	posner	target_response	correct	left	right	right	5
29.606555223465	0.2	posner	invalid_cue	correct	right	n/a	n/a	6
29.8066284656525	0.319469690322876	posner	target_response	correct	right	left	left	6
34.058215379715	0.2	posner	valid_cue	correct	right	n/a	n/a	7
34.2582890987396	0.309016942977905	posner	target_response	correct	right	right	right	7
41.527667760849	0.2	posner	valid_cue	correct	left	n/a	n/a	8
41.7277421951294	0.368286848068237	posner	target_response	correct	left	left	left	8
48.9971194267273	0.2	posner	invalid_cue	correct	left	n/a	n/a	9
49.1971943378448	0.327313661575317	posner	target_response	correct	left	right	right	9
52.0649302005768	0.2	posner	valid_cue	correct	right	n/a	n/a	10
52.26500415802	0.318289995193481	posner	target_response	correct	right	right	right	10
55.0327026844025	0.2	posner	invalid_cue	correct	right	n/a	n/a	11
55.2327785491943	0.329288482666016	posner	target_response	correct	right	left	left	11
58.4006245136261	0.2	posner	invalid_cue	correct	right	n/a	n/a	12
58.6007001399994	0.307364940643311	posner	target_response	correct	right	left	left	12
65.6700036525726	0.2	posner	invalid_cue	correct	right	n/a	n/a	13
65.8700778484344	0.31695818901062	posner	target_response	correct	right	left	left	13
69.338038444519	0.2	posner	invalid_cue	correct	right	n/a	n/a	14
69.538113117218	0.305341958999634	posner	target_response	correct	right	left	left	14
72.6059234142303	0.2	posner	invalid_cue	correct	left	n/a	n/a	15
72.8059985637665	0.313822507858276	posner	target_response	correct	left	right	right	15
80.7756373882294	0.2	posner	invalid_cue	correct	right	n/a	n/a	16
80.9757113456726	0.315905809402466	posner	target_response	correct	right	left	left	16
84.2435977458954	0.2	posner	invalid_cue	correct	right	n/a	n/a	17
84.4436709880829	0.29892897605896	posner	target_response	correct	right	left	left	17
87.7115569114685	0.2	posner	valid_cue	correct	left	n/a	n/a	18
87.9116318225861	0.283424139022827	posner	target_response	correct	left	left	left	18
95.181009054184	0.2	posner	valid_cue	correct	left	n/a	n/a	19
95.3810834884644	0.294805526733398	posner	target_response	correct	left	left	left	19
100.449641466141	0.2	posner	valid_cue	correct	left	n/a	n/a	20
100.649714946747	0.254882097244263	posner	target_response	correct	left	left	left	20
106.818682193756	0.2	posner	invalid_cue	correct	right	n/a	n/a	21
107.018756389618	0.289637565612793	posner	target_response	correct	right	left	left	21
112.187351226807	0.2	posner	valid_cue	correct	right	n/a	n/a	22
112.387424230576	0.332716703414917	posner	target_response	correct	right	right	right	22
115.655311107635	0.2	posner	valid_cue	correct	right	n/a	n/a	23
115.855385065079	0.32764196395874	posner	target_response	correct	right	right	right	23
122.42450261116	0.2	posner	invalid_cue	correct	right	n/a	n/a	24
122.624576091766	0.271450996398926	posner	target_response	correct	right	left	left	24
126.992872238159	0.2	posner	valid_cue	correct	left	n/a	n/a	25
127.192945957184	0.298159122467041	posner	target_response	correct	left	left	left	25
133.161839008331	0.2	posner	invalid_cue	correct	right	n/a	n/a	26
133.361914396286	0.292145729064941	posner	target_response	correct	right	left	left	26
136.529762506485	0.2	posner	valid_cue	correct	left	n/a	n/a	27
136.729836463928	0.248804569244385	posner	target_response	correct	left	left	left	27
140.097759485245	0.2	posner	valid_cue	correct	right	n/a	n/a	28
140.297834873199	0.259927272796631	posner	target_response	correct	right	right	right	28
148.767659187317	0.2	posner	valid_cue	correct	right	n/a	n/a	29
148.967733860016	0.318457126617432	posner	target_response	correct	right	right	right	29
151.735433578491	0.2	posner	invalid_cue	correct	left	n/a	n/a	30
151.935508012772	0.321620941162109	posner	target_response	correct	left	right	right	30
154.703206300735	0.2	posner	valid_cue	correct	right	n/a	n/a	31
154.90328001976	0.301347970962524	posner	target_response	correct	right	right	right	31
157.771015882492	0.2	posner	valid_cue	correct	right	n/a	n/a	32
157.971091270447	0.261190891265869	posner	target_response	correct	right	right	right	32
165.240469694138	0.2	posner	invalid_cue	correct	left	n/a	n/a	33
165.440543413162	0.350610733032227	posner	target_response	correct	left	right	right	33
168.408317327499	0.2	posner	invalid_cue	correct	left	n/a	n/a	34
168.608390808105	0.316904306411743	posner	target_response	correct	left	right	right	34
171.776239156723	0.2	posner	valid_cue	correct	right	n/a	n/a	35
171.976314306259	0.30481481552124	posner	target_response	correct	right	right	right	35
176.644721269608	0.2	posner	valid_cue	correct	left	n/a	n/a	36
176.844795942307	0.258415222167969	posner	target_response	correct	left	left	left	36
180.712905168533	0.2	posner	valid_cue	correct	left	n/a	n/a	37
180.912979841232	0.226046323776245	posner	target_response	correct	left	left	left	37
188.182357549667	0.2	posner	valid_cue	correct	left	n/a	n/a	38
188.382432699203	0.296950340270996	posner	target_response	correct	left	left	left	38
191.750355958939	0.2	posner	invalid_cue	correct	right	n/a	n/a	39
191.950428724289	0.320639371871948	posner	target_response	correct	right	left	left	39
197.319098472595	0.2	posner	valid_cue	correct	right	n/a	n/a	40
197.519173145294	0.315010786056519	posner	target_response	correct	right	right	right	40
203.287991285324	0.2	posner	valid_cue	correct	right	n/a	n/a	41
203.488065719604	0.327191352844238	posner	target_response	correct	right	right	right	41
210.757442951202	0.2	posner	invalid_cue	correct	left	n/a	n/a	42
210.957518339157	0.296735763549805	posner	target_response	correct	left	right	right	42
216.426223993301	0.2	posner	valid_cue	correct	left	n/a	n/a	43
216.626297950745	0.292687177658081	posner	target_response	correct	left	left	left	43
223.495527267456	0.2	posner	valid_cue	correct	left	n/a	n/a	44
223.695600986481	0.255646944046021	posner	target_response	correct	left	left	left	44
226.563337087631	0.2	posner	invalid_cue	correct	left	n/a	n/a	45
226.763412475586	0.3080894947052	posner	target_response	correct	left	right	right	45
230.931633234024	0.2	posner	valid_cue	correct	right	n/a	n/a	46
231.131708621979	0.266272306442261	posner	target_response	correct	right	right	right	46
235.600041151047	0.2	posner	valid_cue	correct	right	n/a	n/a	47
235.800115346909	0.293940782546997	posner	target_response	correct	right	right	right	47
239.168038129807	0.2	posner	invalid_cue	correct	right	n/a	n/a	48
239.368112802505	0.313801288604736	posner	target_response	correct	right	left	left	48
246.637490272522	0.2	posner	valid_cue	correct	left	n/a	n/a	49
246.837564945221	0.276508092880249	posner	target_response	correct	left	left	left	49
252.106196403503	0.2	posner	valid_cue	correct	left	n/a	n/a	50
252.306271076202	0.270921945571899	posner	target_response	correct	left	left	left	50
257.975051879883	0.2	posner	valid_cue	correct	left	n/a	n/a	51
258.175126791	0.320250272750854	posner	target_response	correct	left	left	left	51
264.043980836868	0.2	posner	valid_cue	correct	left	n/a	n/a	52
264.244056463242	0.319700479507446	posner	target_response	correct	left	left	left	52
271.513433933258	0.2	posner	invalid_cue	correct	right	n/a	n/a	53
271.71350812912	0.283244848251343	posner	target_response	correct	right	left	left	53
274.981394290924	0.2	posner	valid_cue	correct	right	n/a	n/a	54
275.181468248367	0.338608741760254	posner	target_response	correct	right	right	right	54
278.349315881729	0.2	posner	valid_cue	correct	right	n/a	n/a	55
278.549391031265	0.3316969871521	posner	target_response	correct	right	right	right	55
282.117388248444	0.2	posner	valid_cue	correct	left	n/a	n/a	56
282.31746339798	0.241771697998047	posner	target_response	correct	left	left	left	56
289.586840391159	0.2	posner	valid_cue	correct	right	n/a	n/a	57
289.786915302277	0.288195848464966	posner	target_response	correct	right	right	right	57
297.056292295456	0.2	posner	invalid_cue	correct	left	n/a	n/a	58
297.256367444992	0.337738513946533	posner	target_response	correct	left	right	right	58
301.624663591385	0.2	posner	invalid_cue	correct	left	n/a	n/a	59
301.824737548828	0.35456657409668	posner	target_response	correct	left	right	right	59
305.492772817612	0.2	posner	invalid_cue	correct	left	n/a	n/a	60
305.692847251892	0.327657699584961	posner	target_response	correct	left	right	right	60
308.860694885254	0.2	posner	invalid_cue	correct	left	n/a	n/a	61
309.060769796371	0.281267166137695	posner	target_response	correct	left	right	right	61
314.929625272751	0.2	posner	invalid_cue	correct	left	n/a	n/a	62
315.129699707031	0.308977365493774	posner	target_response	correct	left	right	right	62
318.297547340393	0.2	posner	valid_cue	correct	left	n/a	n/a	63
318.497622013092	0.422959089279175	posner	target_response	correct	left	left	left	63
321.865544319153	0.2	posner	invalid_cue	correct	right	n/a	n/a	64
322.065618753433	0.297592401504517	posner	target_response	correct	right	left	left	64
329.334995985031	0.2	posner	invalid_cue	correct	left	n/a	n/a	65
329.535070896149	0.381696224212646	posner	target_response	correct	left	right	right	65
336.804449319839	0.2	posner	invalid_cue	correct	right	n/a	n/a	66
337.00452375412	0.297515392303467	posner	target_response	correct	right	left	left	66
344.273901462555	0.2	posner	valid_cue	correct	left	n/a	n/a	67
344.473975419998	0.363125562667847	posner	target_response	correct	left	left	left	67
348.642196178436	0.2	posner	valid_cue	correct	left	n/a	n/a	68
348.842271089554	0.323580980300903	posner	target_response	correct	left	left	left	68
352.610342979431	0.2	posner	valid_cue	correct	right	n/a	n/a	69
352.810418844223	0.196223258972168	posner	target_response	correct	right	right	right	69
356.278378248215	0.2	posner	invalid_cue	correct	left	n/a	n/a	70
356.478452205658	0.355904817581177	posner	target_response	correct	left	right	right	70
359.746336698532	0.2	posner	valid_cue	correct	left	n/a	n/a	71
359.946412086487	0.370748996734619	posner	target_response	correct	left	left	left	71
362.914184808731	0.2	posner	invalid_cue	correct	left	n/a	n/a	72
363.114260911942	0.339929103851318	posner	target_response	correct	left	right	right	72
366.782295942307	0.2	posner	valid_cue	correct	right	n/a	n/a	73
366.982369184494	0.318169832229614	posner	target_response	correct	right	right	right	73
370.850478172302	0.2	posner	valid_cue	correct	right	n/a	n/a	74
371.050553560257	0.258244514465332	posner	target_response	correct	right	right	right	74
374.818625450134	0.2	posner	invalid_cue	correct	right	n/a	n/a	75
375.01870059967	0.322445392608643	posner	target_response	correct	right	left	left	75
381.887928724289	0.2	posner	valid_cue	correct	left	n/a	n/a	76
382.088002920151	0.336053133010864	posner	target_response	correct	left	left	left	76
385.455925941467	0.2	posner	valid_cue	correct	left	n/a	n/a	77
385.656000375748	0.389034748077393	posner	target_response	correct	left	left	left	77
388.723810434341	0.2	posner	valid_cue	correct	right	n/a	n/a	78
388.923885583878	0.316123485565186	posner	target_response	correct	right	right	right	78
396.193263292313	0.2	posner	invalid_cue	correct	right	n/a	n/a	79
396.393337011337	0.307661056518555	posner	target_response	correct	right	left	left	79
399.561186790466	0.2	posner	invalid_cue	correct	right	n/a	n/a	80
399.76126074791	0.325026273727417	posner	target_response	correct	right	left	left	80
405.229966163635	0.2	posner	valid_cue	correct	right	n/a	n/a	81
405.43004155159	0.331020593643188	posner	target_response	correct	right	right	right	81
408.397814035416	0.2	posner	invalid_cue	correct	left	n/a	n/a	82
408.597889184952	0.374257802963257	posner	target_response	correct	left	right	right	82
412.26592373848	0.2	posner	invalid_cue	correct	right	n/a	n/a	83
412.465998411179	0.348365545272827	posner	target_response	correct	right	left	left	83
419.735375165939	0.2	posner	valid_cue	correct	left	n/a	n/a	84
419.935450553894	0.333276510238647	posner	target_response	correct	left	left	left	84
423.603485107422	0.2	posner	invalid_cue	correct	left	n/a	n/a	85
423.803559064865	0.458149909973145	posner	target_response	correct	left	right	right	85
426.971407413483	0.2	posner	valid_cue	correct	left	n/a	n/a	86
427.1714823246	0.300640821456909	posner	target_response	correct	left	left	left	86
434.440858840942	0.2	posner	valid_cue	correct	right	n/a	n/a	87
434.640934467316	0.307118654251099	posner	target_response	correct	right	right	right	87
437.408633232117	0.2	posner	valid_cue	correct	right	n/a	n/a	88
437.60870718956	0.267501831054688	posner	target_response	correct	right	right	right	88
442.077039718628	0.2	posner	valid_cue	correct	left	n/a	n/a	89
442.27711558342	0.281351566314697	posner	target_response	correct	left	left	left	89
445.14485168457	0.2	posner	valid_cue	correct	right	n/a	n/a	90
445.344927072525	0.285130977630615	posner	target_response	correct	right	right	right	90
453.814751625061	0.2	posner	invalid_cue	correct	right	n/a	n/a	91
454.01482629776	0.311307668685913	posner	target_response	correct	right	left	left	91
458.983345508575	0.2	posner	valid_cue	correct	right	n/a	n/a	92
459.183419942856	0.302888154983521	posner	target_response	correct	right	right	right	92
462.151193618774	0.2	posner	valid_cue	correct	left	n/a	n/a	93
462.351267814636	0.345172166824341	posner	target_response	correct	left	left	left	93
465.519116163254	0.2	posner	invalid_cue	correct	left	n/a	n/a	94
465.71919131279	0.346596717834473	posner	target_response	correct	left	right	right	94
472.988568305969	0.2	posner	valid_cue	correct	right	n/a	n/a	95
473.18864274025	0.299550294876099	posner	target_response	correct	right	right	right	95
479.357610225677	0.2	posner	valid_cue	correct	left	n/a	n/a	96
479.557684659958	0.289836406707764	posner	target_response	correct	left	left	left	96
482.525459289551	0.2	posner	invalid_cue	correct	right	n/a	n/a	97
482.725533246994	0.392223834991455	posner	target_response	correct	right	left	left	97
489.99491071701	0.2	posner	invalid_cue	correct	right	n/a	n/a	98
490.194985628128	0.306929349899292	posner	target_response	correct	right	left	left	98
495.863765716553	0.2	posner	valid_cue	correct	right	n/a	n/a	99
496.06384062767	0.271863460540771	posner	target_response	correct	right	right	right	99
503.333218574524	0.2	posner	valid_cue	correct	left	n/a	n/a	100
503.53329372406	0.295871257781982	posner	target_response	correct	left	left	left	100
510.802670717239	0.2	posner	invalid_cue	correct	left	n/a	n/a	101
511.002744197845	0.344973802566528	posner	target_response	correct	left	right	right	101
516.07130074501	0.2	posner	invalid_cue	correct	left	n/a	n/a	102
516.271375894547	0.397699117660522	posner	target_response	correct	left	right	right	102
519.239149808884	0.2	posner	valid_cue	correct	right	n/a	n/a	103
519.439224004745	0.362800121307373	posner	target_response	correct	right	right	right	103
526.708600521088	0.2	posner	valid_cue	correct	right	n/a	n/a	104
526.90867805481	0.276916980743408	posner	target_response	correct	right	right	right	104
531.977233409882	0.2	posner	invalid_cue	correct	right	n/a	n/a	105
532.177308320999	0.329111814498901	posner	target_response	correct	right	left	left	105
535.845342159271	0.2	posner	valid_cue	correct	left	n/a	n/a	106
536.045417070389	0.310708045959473	posner	target_response	correct	left	left	left	106
543.314794301987	0.2	posner	valid_cue	correct	left	n/a	n/a	107
543.514869451523	0.262299537658691	posner	target_response	correct	left	left	left	107
550.784246921539	0.2	posner	invalid_cue	correct	left	n/a	n/a	108
550.98432135582	0.311952590942383	posner	target_response	correct	left	right	right	108
553.852056741714	0.2	posner	invalid_cue	correct	right	n/a	n/a	109
554.052132368088	0.330075740814209	posner	target_response	correct	right	left	left	109
559.520838499069	0.2	posner	invalid_cue	correct	right	n/a	n/a	110
559.72091293335	0.295222997665405	posner	target_response	correct	right	left	left	110
562.688687086105	0.2	posner	valid_cue	correct	left	n/a	n/a	111
562.888761281967	0.33929181098938	posner	target_response	correct	left	left	left	111
565.856534004211	0.2	posner	invalid_cue	correct	left	n/a	n/a	112
566.05660867691	0.359505414962769	posner	target_response	correct	left	right	right	112
568.924345254898	0.2	posner	valid_cue	correct	right	n/a	n/a	113
569.124418735504	0.376723289489746	posner	target_response	correct	right	right	right	113
572.092192411423	0.2	posner	invalid_cue	correct	left	n/a	n/a	114
572.292267084122	0.354122877120972	posner	target_response	correct	left	right	right	114
575.560153961182	0.2	posner	invalid_cue	correct	left	n/a	n/a	115
575.760226726532	0.286335229873657	posner	target_response	correct	left	right	right	115
581.529045581818	0.2	posner	valid_cue	correct	right	n/a	n/a	116
581.729120016098	0.38494610786438	posner	target_response	correct	right	right	right	116
586.397528171539	0.2	posner	valid_cue	correct	right	n/a	n/a	117
586.597602367401	0.302981615066528	posner	target_response	correct	right	right	right	117
590.265636920929	0.2	posner	invalid_cue	correct	left	n/a	n/a	118
590.465711593628	0.314336538314819	posner	target_response	correct	left	right	right	118
595.734343528748	0.2	posner	valid_cue	correct	left	n/a	n/a	119
595.934417009354	0.326812028884888	posner	target_response	correct	left	left	left	119
599.502414941788	0.2	posner	invalid_cue	correct	right	n/a	n/a	120
599.70248913765	0.393610954284668	posner	target_response	correct	right	left	left	120
