onset	duration	trial_type	response_value	stim_file
2.767	155.215	video	n/a	task-alignvideo/ses-01_run-02_order-01_content-harrymetsally.mp4
162.534	n/a	rating_relevance	n/a	task-alignvideo/ses-01_run-02_order-01_content-harrymetsally.mp4
167.569	n/a	rating_happy	n/a	task-alignvideo/ses-01_run-02_order-01_content-harrymetsally.mp4
172.604	n/a	rating_sad	n/a	task-alignvideo/ses-01_run-02_order-01_content-harrymetsally.mp4
177.623	n/a	rating_afraid	n/a	task-alignvideo/ses-01_run-02_order-01_content-harrymetsally.mp4
182.658	n/a	rating_disgusted	n/a	task-alignvideo/ses-01_run-02_order-01_content-harrymetsally.mp4
187.693	n/a	rating_warm	n/a	task-alignvideo/ses-01_run-02_order-01_content-harrymetsally.mp4
192.728	n/a	rating_engaged	n/a	task-alignvideo/ses-01_run-02_order-01_content-harrymetsally.mp4
193.268	57.099	video	n/a	task-alignvideo/ses-01_run-02_order-02_content-HB.mp4
254.918	n/a	rating_relevance	n/a	task-alignvideo/ses-01_run-02_order-02_content-HB.mp4
259.954	n/a	rating_happy	n/a	task-alignvideo/ses-01_run-02_order-02_content-HB.mp4
264.989	n/a	rating_sad	n/a	task-alignvideo/ses-01_run-02_order-02_content-HB.mp4
270.024	n/a	rating_afraid	n/a	task-alignvideo/ses-01_run-02_order-02_content-HB.mp4
275.042	n/a	rating_disgusted	n/a	task-alignvideo/ses-01_run-02_order-02_content-HB.mp4
280.078	n/a	rating_warm	n/a	task-alignvideo/ses-01_run-02_order-02_content-HB.mp4
285.113	n/a	rating_engaged	n/a	task-alignvideo/ses-01_run-02_order-02_content-HB.mp4
285.645	243.887	video	n/a	task-alignvideo/ses-01_run-02_order-03_content-islamophobia.mp4
534.089	n/a	rating_relevance	n/a	task-alignvideo/ses-01_run-02_order-03_content-islamophobia.mp4
539.108	n/a	rating_happy	n/a	task-alignvideo/ses-01_run-02_order-03_content-islamophobia.mp4
544.126	n/a	rating_sad	n/a	task-alignvideo/ses-01_run-02_order-03_content-islamophobia.mp4
549.161	n/a	rating_afraid	n/a	task-alignvideo/ses-01_run-02_order-03_content-islamophobia.mp4
554.197	n/a	rating_disgusted	n/a	task-alignvideo/ses-01_run-02_order-03_content-islamophobia.mp4
559.232	n/a	rating_warm	n/a	task-alignvideo/ses-01_run-02_order-03_content-islamophobia.mp4
564.25	n/a	rating_engaged	n/a	task-alignvideo/ses-01_run-02_order-03_content-islamophobia.mp4
564.782	30.133	video	n/a	task-alignvideo/ses-01_run-02_order-04_content-beachsunset.mp4
599.463	n/a	rating_relevance	n/a	task-alignvideo/ses-01_run-02_order-04_content-beachsunset.mp4
604.499	n/a	rating_happy	n/a	task-alignvideo/ses-01_run-02_order-04_content-beachsunset.mp4
609.517	n/a	rating_sad	n/a	task-alignvideo/ses-01_run-02_order-04_content-beachsunset.mp4
614.536	n/a	rating_afraid	n/a	task-alignvideo/ses-01_run-02_order-04_content-beachsunset.mp4
619.554	n/a	rating_disgusted	n/a	task-alignvideo/ses-01_run-02_order-04_content-beachsunset.mp4
624.573	n/a	rating_warm	n/a	task-alignvideo/ses-01_run-02_order-04_content-beachsunset.mp4
629.591	n/a	rating_engaged	n/a	task-alignvideo/ses-01_run-02_order-04_content-beachsunset.mp4
