onset	duration	run_type	trial_type	trial_index	cue	stimulusintensity	rating_value	rating_glmslabel	rating_value_fillna	rating_glmslabel_fillna	rating_mouseonset	rating_mousedur	stim_file	pain_onset_ttl1	pain_onset_ttl2	pain_onset_ttl3	pain_onset_ttl4	pain_stimulus_delivery_success	cognitive_correct_response	cognitive_participant_response	cognitive_response_accuracy
7.88	0.99	cognitive	cue	1	high_cue	n/a	n/a	n/a	n/a	n/a	n/a	n/a	task-social/cue/runtype-cognitive/sch/h008.png	n/a	n/a	n/a	n/a	n/a	n/a	n/a	n/a
10.1	2.16	cognitive	expectrating	1	high_cue	n/a	66.37	Very-Strong	66.37	Very-Strong	0.05	2.11	task-social/cue/runtype-cognitive/sch/h008.png	n/a	n/a	n/a	n/a	n/a	n/a	n/a	n/a
20.79	5.0	cognitive	stimulus	1	high_cue	low_stim	n/a	n/a	n/a	n/a	n/a	n/a	task-social/stim/runtype-cognitive/5_50.jpg	n/a	n/a	n/a	n/a	n/a	same	same	True
32.99	3.99	cognitive	outcomerating	1	high_cue	low_stim	23.89	Moderate	23.89	Moderate	0.05	2.11	task-social/outcomerating/task-cognitive_scale.png	n/a	n/a	n/a	n/a	n/a	n/a	n/a	n/a
37.6	0.98	cognitive	cue	2	low_cue	n/a	n/a	n/a	n/a	n/a	n/a	n/a	task-social/cue/runtype-cognitive/scl/l011.png	n/a	n/a	n/a	n/a	n/a	n/a	n/a	n/a
40.0	1.93	cognitive	expectrating	2	low_cue	n/a	19.09	Moderate	19.09	Moderate	0.83	1.1	task-social/cue/runtype-cognitive/scl/l011.png	n/a	n/a	n/a	n/a	n/a	n/a	n/a	n/a
47.4	5.0	cognitive	stimulus	2	low_cue	med_stim	n/a	n/a	n/a	n/a	n/a	n/a	task-social/stim/runtype-cognitive/5_100_R.jpg	n/a	n/a	n/a	n/a	n/a	diff	diff	True
57.49	2.71	cognitive	outcomerating	2	low_cue	med_stim	51.34	Strong	51.34	Strong	0.83	1.1	task-social/outcomerating/task-cognitive_scale.png	n/a	n/a	n/a	n/a	n/a	n/a	n/a	n/a
66.69	0.99	cognitive	cue	3	high_cue	n/a	n/a	n/a	n/a	n/a	n/a	n/a	task-social/cue/runtype-cognitive/sch/h024.png	n/a	n/a	n/a	n/a	n/a	n/a	n/a	n/a
68.89	1.52	cognitive	expectrating	3	high_cue	n/a	58.48	Strong	58.48	Strong	0.42	1.1	task-social/cue/runtype-cognitive/sch/h024.png	n/a	n/a	n/a	n/a	n/a	n/a	n/a	n/a
81.9	5.0	cognitive	stimulus	3	high_cue	low_stim	n/a	n/a	n/a	n/a	n/a	n/a	task-social/stim/runtype-cognitive/42_50.jpg	n/a	n/a	n/a	n/a	n/a	same	same	True
90.4	n/a	cognitive	outcomerating	3	high_cue	low_stim	n/a	n/a	31.98	Strong	0.42	1.1	task-social/outcomerating/task-cognitive_scale.png	n/a	n/a	n/a	n/a	n/a	n/a	n/a	n/a
95.48	0.99	cognitive	cue	4	low_cue	n/a	n/a	n/a	n/a	n/a	n/a	n/a	task-social/cue/runtype-cognitive/scl/l038.png	n/a	n/a	n/a	n/a	n/a	n/a	n/a	n/a
98.99	1.67	cognitive	expectrating	4	low_cue	n/a	25.38	Moderate	25.38	Moderate	0.4	1.27	task-social/cue/runtype-cognitive/scl/l038.png	n/a	n/a	n/a	n/a	n/a	n/a	n/a	n/a
107.59	5.0	cognitive	stimulus	4	low_cue	med_stim	n/a	n/a	n/a	n/a	n/a	n/a	task-social/stim/runtype-cognitive/38_100_R.jpg	n/a	n/a	n/a	n/a	n/a	diff	diff	True
120.79	1.82	cognitive	outcomerating	4	low_cue	med_stim	31.32	Strong	31.32	Strong	0.4	1.27	task-social/outcomerating/task-cognitive_scale.png	n/a	n/a	n/a	n/a	n/a	n/a	n/a	n/a
125.9	0.98	cognitive	cue	5	high_cue	n/a	n/a	n/a	n/a	n/a	n/a	n/a	task-social/cue/runtype-cognitive/sch/h047.png	n/a	n/a	n/a	n/a	n/a	n/a	n/a	n/a
127.6	2.25	cognitive	expectrating	5	high_cue	n/a	65.52	Very-Strong	65.52	Very-Strong	0.83	1.42	task-social/cue/runtype-cognitive/sch/h047.png	n/a	n/a	n/a	n/a	n/a	n/a	n/a	n/a
134.2	5.0	cognitive	stimulus	5	high_cue	high_stim	n/a	n/a	n/a	n/a	n/a	n/a	task-social/stim/runtype-cognitive/27_150_R.jpg	n/a	n/a	n/a	n/a	n/a	diff	diff	True
147.39	3.69	cognitive	outcomerating	5	high_cue	high_stim	19.53	Moderate	19.53	Moderate	0.83	1.42	task-social/outcomerating/task-cognitive_scale.png	n/a	n/a	n/a	n/a	n/a	n/a	n/a	n/a
151.99	0.99	cognitive	cue	6	low_cue	n/a	n/a	n/a	n/a	n/a	n/a	n/a	task-social/cue/runtype-cognitive/scl/l016.png	n/a	n/a	n/a	n/a	n/a	n/a	n/a	n/a
155.49	1.57	cognitive	expectrating	6	low_cue	n/a	16.93	Moderate	16.93	Moderate	0.27	1.3	task-social/cue/runtype-cognitive/scl/l016.png	n/a	n/a	n/a	n/a	n/a	n/a	n/a	n/a
169.69	5.0	cognitive	stimulus	6	low_cue	low_stim	n/a	n/a	n/a	n/a	n/a	n/a	task-social/stim/runtype-cognitive/43_50.jpg	n/a	n/a	n/a	n/a	n/a	same	n/a	False
181.9	2.24	cognitive	outcomerating	6	low_cue	low_stim	16.68	Moderate	16.68	Moderate	0.27	1.3	task-social/outcomerating/task-cognitive_scale.png	n/a	n/a	n/a	n/a	n/a	n/a	n/a	n/a
187.48	0.99	cognitive	cue	7	low_cue	n/a	n/a	n/a	n/a	n/a	n/a	n/a	task-social/cue/runtype-cognitive/scl/l042.png	n/a	n/a	n/a	n/a	n/a	n/a	n/a	n/a
189.69	1.06	cognitive	expectrating	7	low_cue	n/a	35.31	Strong	35.31	Strong	0.18	0.87	task-social/cue/runtype-cognitive/scl/l042.png	n/a	n/a	n/a	n/a	n/a	n/a	n/a	n/a
203.89	5.0	cognitive	stimulus	7	low_cue	high_stim	n/a	n/a	n/a	n/a	n/a	n/a	task-social/stim/runtype-cognitive/44_150_R.jpg	n/a	n/a	n/a	n/a	n/a	diff	diff	True
217.2	3.54	cognitive	outcomerating	7	low_cue	high_stim	30.37	Strong	30.37	Strong	0.18	0.87	task-social/outcomerating/task-cognitive_scale.png	n/a	n/a	n/a	n/a	n/a	n/a	n/a	n/a
223.38	0.99	cognitive	cue	8	low_cue	n/a	n/a	n/a	n/a	n/a	n/a	n/a	task-social/cue/runtype-cognitive/scl/l009.png	n/a	n/a	n/a	n/a	n/a	n/a	n/a	n/a
225.6	3.11	cognitive	expectrating	8	low_cue	n/a	9.69	Weak	9.69	Weak	0.13	2.98	task-social/cue/runtype-cognitive/scl/l009.png	n/a	n/a	n/a	n/a	n/a	n/a	n/a	n/a
232.18	5.0	cognitive	stimulus	8	low_cue	low_stim	n/a	n/a	n/a	n/a	n/a	n/a	task-social/stim/runtype-cognitive/38_50_R.jpg	n/a	n/a	n/a	n/a	n/a	diff	diff	True
245.49	2.69	cognitive	outcomerating	8	low_cue	low_stim	30.61	Strong	30.61	Strong	0.13	2.98	task-social/outcomerating/task-cognitive_scale.png	n/a	n/a	n/a	n/a	n/a	n/a	n/a	n/a
259.3	0.98	cognitive	cue	9	high_cue	n/a	n/a	n/a	n/a	n/a	n/a	n/a	task-social/cue/runtype-cognitive/sch/h025.png	n/a	n/a	n/a	n/a	n/a	n/a	n/a	n/a
262.8	2.18	cognitive	expectrating	9	high_cue	n/a	61.89	Strong	61.89	Strong	0.92	1.27	task-social/cue/runtype-cognitive/sch/h025.png	n/a	n/a	n/a	n/a	n/a	n/a	n/a	n/a
271.4	5.0	cognitive	stimulus	9	high_cue	high_stim	n/a	n/a	n/a	n/a	n/a	n/a	task-social/stim/runtype-cognitive/43_150_R.jpg	n/a	n/a	n/a	n/a	n/a	diff	same	False
281.49	1.52	cognitive	outcomerating	9	high_cue	high_stim	52.53	Strong	52.53	Strong	0.92	1.27	task-social/outcomerating/task-cognitive_scale.png	n/a	n/a	n/a	n/a	n/a	n/a	n/a	n/a
291.69	0.99	cognitive	cue	10	low_cue	n/a	n/a	n/a	n/a	n/a	n/a	n/a	task-social/cue/runtype-cognitive/scl/l043.png	n/a	n/a	n/a	n/a	n/a	n/a	n/a	n/a
294.09	1.32	cognitive	expectrating	10	low_cue	n/a	11.67	Moderate	11.67	Moderate	0.12	1.2	task-social/cue/runtype-cognitive/scl/l043.png	n/a	n/a	n/a	n/a	n/a	n/a	n/a	n/a
301.69	5.0	cognitive	stimulus	10	low_cue	high_stim	n/a	n/a	n/a	n/a	n/a	n/a	task-social/stim/runtype-cognitive/43_150.jpg	n/a	n/a	n/a	n/a	n/a	same	same	True
310.2	2.45	cognitive	outcomerating	10	low_cue	high_stim	34.84	Strong	34.84	Strong	0.12	1.2	task-social/outcomerating/task-cognitive_scale.png	n/a	n/a	n/a	n/a	n/a	n/a	n/a	n/a
328.69	0.99	cognitive	cue	11	high_cue	n/a	n/a	n/a	n/a	n/a	n/a	n/a	task-social/cue/runtype-cognitive/sch/h028.png	n/a	n/a	n/a	n/a	n/a	n/a	n/a	n/a
331.09	1.15	cognitive	expectrating	11	high_cue	n/a	63.54	Strong	63.54	Strong	0.2	0.95	task-social/cue/runtype-cognitive/sch/h028.png	n/a	n/a	n/a	n/a	n/a	n/a	n/a	n/a
346.79	5.0	cognitive	stimulus	11	high_cue	med_stim	n/a	n/a	n/a	n/a	n/a	n/a	task-social/stim/runtype-cognitive/29_100.jpg	n/a	n/a	n/a	n/a	n/a	same	same	True
359.78	2.61	cognitive	outcomerating	11	high_cue	med_stim	32.72	Strong	32.72	Strong	0.2	0.95	task-social/outcomerating/task-cognitive_scale.png	n/a	n/a	n/a	n/a	n/a	n/a	n/a	n/a
369.59	0.99	cognitive	cue	12	high_cue	n/a	n/a	n/a	n/a	n/a	n/a	n/a	task-social/cue/runtype-cognitive/sch/h021.png	n/a	n/a	n/a	n/a	n/a	n/a	n/a	n/a
371.6	1.39	cognitive	expectrating	12	high_cue	n/a	67.8	Very-Strong	67.8	Very-Strong	0.05	1.34	task-social/cue/runtype-cognitive/sch/h021.png	n/a	n/a	n/a	n/a	n/a	n/a	n/a	n/a
384.59	5.0	cognitive	stimulus	12	high_cue	med_stim	n/a	n/a	n/a	n/a	n/a	n/a	task-social/stim/runtype-cognitive/35_100.jpg	n/a	n/a	n/a	n/a	n/a	same	diff	False
394.8	n/a	cognitive	outcomerating	12	high_cue	med_stim	n/a	n/a	n/a	n/a	0.05	1.34	task-social/outcomerating/task-cognitive_scale.png	n/a	n/a	n/a	n/a	n/a	n/a	n/a	n/a
