onset	duration	subtask_type	event_type	response_accuracy	cue_location	target_location	button_press	trial_index
11.75372838974	0.2	posner	valid_cue	correct	right			1
11.9871487617493	0.518509387969971	posner	target_response	correct	right	right	right	1
15.2883791923523	0.2	posner	valid_cue	correct	left			2
15.4884550571442	0.88898491859436	posner	target_response	correct	left	left	left	2
18.7563397884369	0.2	posner	invalid_cue	correct	left			3
18.9564158916473	0.561168193817139	posner	target_response	correct	left	right	right	3
26.2257914543152	0.2	posner	invalid_cue	correct	right			4
26.4258666038513	0.652457475662231	posner	target_response	correct	right	left	left	4
29.8938271999359	0.2	posner	invalid_cue	correct	left			5
30.0939011573792	0.577369928359985	posner	target_response	correct	left	right	right	5
37.3632791042328	0.2	posner	valid_cue	correct	right			6
37.5633542537689	0.495417833328247	posner	target_response	correct	right	right	right	6
40.8312382698059	0.2	posner	invalid_cue	correct	left			7
41.0313129425049	0.560343027114868	posner	target_response	correct	left	right	right	7
44.0991237163544	0.2	posner	valid_cue	correct	right			8
44.2991993427277	0.478468656539917	posner	target_response	correct	right	right	right	8
51.1684272289276	0.2	posner	valid_cue	correct	left			9
51.3685019016266	0.485199213027954	posner	target_response	correct	left	left	left	9
58.6378800868988	0.2	posner	invalid_cue	correct	left			10
58.8379542827606	0.483049869537354	posner	target_response	correct	left	right	right	10
62.2058753967285	0.2	posner	invalid_cue	correct	right			11
62.4059512615204	0.619457721710205	posner	target_response	correct	right	left	left	11
69.675329208374	0.2	posner	valid_cue	correct	left			12
69.8754026889801	0.453009366989136	posner	target_response	correct	left	left	left	12
73.2433261871338	0.2	posner	valid_cue	correct	left			13
73.4434013366699	0.500178813934326	posner	target_response	correct	left	left	left	13
77.3948736190796	0.2	posner	valid_cue	correct	left			14
77.5949485301971	0.437974452972412	posner	target_response	correct	left	left	left	14
82.1633191108704	0.2	posner	valid_cue	correct	left			15
82.3633935451508	0.412230491638184	posner	target_response	correct	left	left	left	15
89.632771730423	0.2	posner	valid_cue	correct	right			16
89.8328456878662	0.419450283050537	posner	target_response	correct	right	right	right	16
96.9855136871338	0.2	posner	invalid_cue	correct	right			17
97.1855878829956	0.480201244354248	posner	target_response	correct	right	left	left	17
100.253399133682	0.2	posner	invalid_cue	correct	left			18
100.453473091125	0.460108041763306	posner	target_response	correct	left	right	right	18
103.321209192276	0.2	posner	invalid_cue	correct	right			19
103.521284341812	0.511230707168579	posner	target_response	correct	right	left	left	19
106.889207363129	0.2	posner	invalid_cue	correct	right			20
107.089281082153	0.507222890853882	posner	target_response	correct	right	left	left	20
114.358659029007	0.2	posner	invalid_cue	correct	right			21
114.558734416962	0.549111604690552	posner	target_response	correct	right	left	left	21
120.627662658691	0.2	posner	invalid_cue	correct	right			22
120.827738046646	0.623160123825073	posner	target_response	correct	right	left	left	22
123.795511007309	0.2	posner	valid_cue	correct	left			23
123.995586156845	0.520121812820435	posner	target_response	correct	left	left	left	23
131.264963388443	0.2	posner	valid_cue	correct	right			24
131.465037822723	0.502050161361694	posner	target_response	correct	right	right	right	24
134.53284907341	0.2	posner	valid_cue	correct	left			25
134.732923269272	0.501405715942383	posner	target_response	correct	left	left	left	25
138.000809192657	0.2	posner	valid_cue	correct	left			26
138.200883626938	0.466414451599121	posner	target_response	correct	left	left	left	26
142.569178819656	0.2	posner	valid_cue	correct	left			27
142.769253969193	0.383599996566772	posner	target_response	correct	left	left	left	27
146.220541000366	0.2	posner	valid_cue	correct	right			28
146.420615673065	0.51382040977478	posner	target_response	correct	right	right	right	28
153.289843797684	0.2	posner	invalid_cue	correct	left			29
153.489917516708	0.563774585723877	posner	target_response	correct	left	right	right	29
158.058288812637	0.2	posner	invalid_cue	correct	right			30
158.258363008499	0.443668127059937	posner	target_response	correct	right	left	left	30
161.526248931885	0.2	posner	valid_cue	correct	left			31
161.726322889328	0.405951261520386	posner	target_response	correct	left	left	left	31
164.594058990479	0.2	posner	invalid_cue	correct	right			32
164.794133663177	0.47071647644043	posner	target_response	correct	right	left	left	32
167.661870002747	0.2	posner	valid_cue	correct	right			33
167.861945152283	0.525375843048096	posner	target_response	correct	right	right	right	33
170.729679822922	0.2	posner	invalid_cue	correct	right			34
170.929755210876	0.471451759338379	posner	target_response	correct	right	left	left	34
176.498498916626	0.2	posner	invalid_cue	correct	left			35
176.698573112488	0.568989038467407	posner	target_response	correct	left	right	right	35
183.967950582504	0.2	posner	valid_cue	correct	left			36
184.168026208878	0.431442975997925	posner	target_response	correct	left	left	left	36
187.035762310028	0.2	posner	valid_cue	correct	left			37
187.23583650589	0.541435480117798	posner	target_response	correct	left	left	left	37
194.08839225769	0.2	posner	valid_cue	correct	right			38
194.288465976715	0.524198055267334	posner	target_response	correct	right	right	right	38
197.556352615356	0.2	posner	valid_cue	correct	right			39
197.756425619125	0.43625545501709	posner	target_response	correct	right	right	right	39
200.724199533463	0.2	posner	invalid_cue	correct	right			40
200.924273967743	0.524525165557861	posner	target_response	correct	right	left	left	40
204.192159891129	0.2	posner	valid_cue	correct	left			41
204.392235279083	0.435565710067749	posner	target_response	correct	left	left	left	41
211.661612033844	0.2	posner	invalid_cue	correct	right			42
211.86168718338	0.519577980041504	posner	target_response	correct	right	left	left	42
214.812786579132	0.2	posner	invalid_cue	correct	left			43
215.012861967087	0.551488161087036	posner	target_response	correct	left	right	right	43
217.780560970306	0.2	posner	invalid_cue	correct	right			44
217.980635404587	0.472227573394775	posner	target_response	correct	right	left	left	44
225.250012397766	0.2	posner	valid_cue	correct	right			45
225.450086832047	0.578290224075317	posner	target_response	correct	right	right	right	45
229.018084764481	0.2	posner	invalid_cue	correct	left			46
229.21815943718	0.607450723648071	posner	target_response	correct	left	right	right	46
232.786155939102	0.2	posner	invalid_cue	correct	right			47
232.986231088638	0.505071878433228	posner	target_response	correct	right	left	left	47
236.454191207886	0.2	posner	invalid_cue	correct	left			48
236.654265880585	0.557731151580811	posner	target_response	correct	left	right	right	48
239.522002696991	0.2	posner	valid_cue	correct	right			49
239.722076654434	0.526665449142456	posner	target_response	correct	right	right	right	49
243.190035581589	0.2	posner	valid_cue	correct	left			50
243.390111207962	0.465835809707642	posner	target_response	correct	left	left	left	50
247.258220434189	0.2	posner	invalid_cue	correct	left			51
247.458295106888	0.446086883544922	posner	target_response	correct	left	right	right	51
250.726179838181	0.2	posner	invalid_cue	correct	right			52
250.926253795624	0.542612314224243	posner	target_response	correct	right	left	left	52
258.195632219315	0.2	posner	invalid_cue	correct	left			53
258.395707130432	0.500929832458496	posner	target_response	correct	left	right	right	53
264.564673423767	0.2	posner	invalid_cue	correct	right			54
264.764748811722	0.455750226974487	posner	target_response	correct	right	left	left	54
271.633977413177	0.2	posner	invalid_cue	correct	left			55
271.834051847458	0.536988258361816	posner	target_response	correct	left	right	right	55
275.30201125145	0.2	posner	valid_cue	correct	right			56
275.50208568573	0.492466449737549	posner	target_response	correct	right	right	right	56
282.671425819397	0.2	posner	valid_cue	correct	right			57
282.871501207352	0.375825881958008	posner	target_response	correct	right	right	right	57
285.939311981201	0.2	posner	valid_cue	correct	left			58
286.139387369156	0.498927593231201	posner	target_response	correct	left	left	left	58
294.809285879135	0.2	posner	invalid_cue	correct	right			59
295.009361505508	0.486901521682739	posner	target_response	correct	right	left	left	59
299.377655982971	0.2	posner	invalid_cue	correct	left			60
299.577731370926	0.464526653289795	posner	target_response	correct	left	right	right	60
306.647033929825	0.2	posner	valid_cue	correct	right			61
306.847109079361	0.4184889793396	posner	target_response	correct	right	right	right	61
313.816373348236	0.2	posner	valid_cue	correct	right			62
314.016448974609	0.445613145828247	posner	target_response	correct	right	right	right	62
317.684484243393	0.2	posner	valid_cue	correct	left			63
317.884557962418	0.560777187347412	posner	target_response	correct	left	left	left	63
325.153936624527	0.2	posner	valid_cue	correct	left			64
325.354011297226	0.436697721481323	posner	target_response	correct	left	left	left	64
328.821971416473	0.2	posner	valid_cue	correct	left			65
329.022044420242	0.520228624343872	posner	target_response	correct	left	left	left	65
333.190265893936	0.2	posner	valid_cue	correct	right			66
333.390340566635	0.439473628997803	posner	target_response	correct	right	right	right	66
336.658226251602	0.2	posner	valid_cue	correct	left			67
336.858300685883	0.421996355056763	posner	target_response	correct	left	left	left	67
345.028014421463	0.2	posner	valid_cue	correct	left			68
345.228088140488	0.6003098487854	posner	target_response	correct	left	left	left	68
348.095824956894	0.2	posner	valid_cue	correct	right			69
348.29590010643	0.461090087890625	posner	target_response	correct	right	right	right	69
353.064343690872	0.2	posner	invalid_cue	correct	left			70
353.264418840408	0.517457246780396	posner	target_response	correct	left	right	right	70
358.93319940567	0.2	posner	invalid_cue	correct	right			71
359.133273839951	0.522675275802612	posner	target_response	correct	right	left	left	71
366.402651786804	0.2	posner	invalid_cue	correct	left			72
366.602726459503	0.489084720611572	posner	target_response	correct	left	right	right	72
369.470461606979	0.2	posner	invalid_cue	correct	left			73
369.670537233353	0.503105878829956	posner	target_response	correct	left	right	right	73
372.838384866714	0.2	posner	invalid_cue	correct	left			74
373.038459777832	0.495688199996948	posner	target_response	correct	left	right	right	74
380.30783700943	0.2	posner	valid_cue	correct	right			75
380.50791144371	0.459904670715332	posner	target_response	correct	right	right	right	75
387.777289867401	0.2	posner	valid_cue	correct	right			76
387.977363824844	0.451740264892578	posner	target_response	correct	right	right	right	76
390.845099687576	0.2	posner	valid_cue	correct	right			77
391.045174598694	0.608474493026733	posner	target_response	correct	right	right	right	77
397.914403438568	0.2	posner	valid_cue	correct	left			78
398.114476919174	0.526217222213745	posner	target_response	correct	left	left	left	78
401.982586860657	0.2	posner	invalid_cue	correct	left			79
402.18266248703	0.54377269744873	posner	target_response	correct	left	right	right	79
409.452039480209	0.2	posner	valid_cue	correct	left			80
409.652114152908	0.4754319190979	posner	target_response	correct	left	left	left	80
415.520968675613	0.2	posner	valid_cue	correct	left			81
415.721044301987	0.738597869873047	posner	target_response	correct	left	left	left	81
419.189004182816	0.2	posner	valid_cue	correct	right			82
419.38907790184	0.501678228378296	posner	target_response	correct	right	right	right	82
422.456889152527	0.2	posner	valid_cue	correct	right			83
422.656962633133	0.416319370269775	posner	target_response	correct	right	right	right	83
429.626229047775	0.2	posner	invalid_cue	correct	right			84
429.826303958893	0.621180057525635	posner	target_response	correct	right	left	left	84
437.095681428909	0.2	posner	valid_cue	correct	left			85
437.29575586319	0.46110725402832	posner	target_response	correct	left	left	left	85
444.565133810043	0.2	posner	invalid_cue	correct	right			86
444.765208005905	0.598245143890381	posner	target_response	correct	right	left	left	86
449.433616399765	0.2	posner	valid_cue	correct	right			87
449.633689880371	0.457021236419678	posner	target_response	correct	right	right	right	87
452.501427412033	0.2	posner	valid_cue	correct	left			88
452.701501131058	0.591248989105225	posner	target_response	correct	left	left	left	88
455.669274091721	0.2	posner	valid_cue	correct	right			89
455.869349002838	0.649603128433228	posner	target_response	correct	right	right	right	89
463.022016048431	0.2	posner	invalid_cue	correct	left			90
463.222090959549	0.54245400428772	posner	target_response	correct	left	right	right	90
466.089826822281	0.2	posner	valid_cue	correct	right			91
466.289900541306	0.493199586868286	posner	target_response	correct	right	right	right	91
469.057600975037	0.2	posner	invalid_cue	correct	right			92
469.257675886154	0.488860130310059	posner	target_response	correct	right	left	left	92
472.909036636353	0.2	posner	invalid_cue	correct	left			93
473.109111785889	0.50415825843811	posner	target_response	correct	left	right	right	93
475.976848363876	0.2	posner	invalid_cue	correct	left			94
476.176923751831	0.547507286071777	posner	target_response	correct	left	right	right	94
483.146187782288	0.2	posner	invalid_cue	correct	right			95
483.346263408661	0.550946712493896	posner	target_response	correct	right	left	left	95
487.714558362961	0.2	posner	invalid_cue	correct	right			96
487.914632797241	0.552709341049194	posner	target_response	correct	right	left	left	96
491.182517528534	0.2	posner	valid_cue	correct	right			97
491.382592916489	0.499969244003296	posner	target_response	correct	right	right	right	97
497.151410579681	0.2	posner	valid_cue	correct	left			98
497.351484537125	0.439562559127808	posner	target_response	correct	left	left	left	98
500.319259166718	0.2	posner	invalid_cue	correct	left			99
500.519333124161	0.539397954940796	posner	target_response	correct	left	right	right	99
507.788710594177	0.2	posner	valid_cue	correct	right			100
507.988785505295	0.493645668029785	posner	target_response	correct	right	right	right	100
512.557156324387	0.2	posner	valid_cue	correct	left			101
512.757231712341	0.421034336090088	posner	target_response	correct	left	left	left	101
516.025116205215	0.2	posner	invalid_cue	correct	right			102
516.225191354752	0.567418813705444	posner	target_response	correct	right	left	left	102
519.293000459671	0.2	posner	invalid_cue	correct	left			103
519.493075847626	0.543297290802002	posner	target_response	correct	left	right	right	103
522.660923719406	0.2	posner	valid_cue	correct	right			104
522.860997915268	0.457678079605103	posner	target_response	correct	right	right	right	104
526.428995609283	0.2	posner	invalid_cue	correct	right			105
526.62906908989	0.594075918197632	posner	target_response	correct	right	left	left	105
535.499044656754	0.2	posner	invalid_cue	correct	right			106
535.69911813736	0.720185041427612	posner	target_response	correct	right	left	left	106
538.96700501442	0.2	posner	invalid_cue	correct	right			107
539.167079210281	0.515350818634033	posner	target_response	correct	right	left	left	107
542.434964895248	0.2	posner	valid_cue	correct	right			108
542.635038852692	0.611530303955078	posner	target_response	correct	right	right	right	108
549.804379701614	0.2	posner	invalid_cue	correct	left			109
550.004453897476	0.524819135665894	posner	target_response	correct	left	right	right	109
553.272339820862	0.2	posner	invalid_cue	correct	right			110
553.472414016724	0.528377056121826	posner	target_response	correct	right	left	left	110
558.140822172165	0.2	posner	invalid_cue	correct	left			111
558.34089589119	0.493498086929321	posner	target_response	correct	left	right	right	111
567.210870981216	0.2	posner	invalid_cue	correct	left			112
567.410944700241	0.472230434417725	posner	target_response	correct	left	right	right	112
571.379091501236	0.2	posner	invalid_cue	correct	left			113
571.579165935516	0.499200105667114	posner	target_response	correct	left	right	right	113
578.848543405533	0.2	posner	valid_cue	correct	left			114
579.048619270325	0.496659755706787	posner	target_response	correct	left	left	left	114
582.216467380524	0.2	posner	invalid_cue	correct	right			115
582.416541576385	0.471832513809204	posner	target_response	correct	right	left	left	115
585.384315490723	0.2	posner	invalid_cue	correct	right			116
585.584388971329	0.433227062225342	posner	target_response	correct	right	left	left	116
589.152386903763	0.2	posner	invalid_cue	correct	left			117
589.352461576462	0.524915456771851	posner	target_response	correct	left	right	right	117
592.620347261429	0.2	posner	valid_cue	correct	right			118
592.820420026779	0.478916168212891	posner	target_response	correct	right	right	right	118
595.588119983673	0.2	posner	valid_cue	correct	left			119
595.788194656372	0.692216396331787	posner	target_response	correct	left	left	left	119
598.956041812897	0.2	posner	invalid_cue	correct	left			120
599.156116962433	0.511504173278809	posner	target_response	correct	left	right	right	120
