onset	duration	run_type	trial_type	trial_index	cue	stimulusintensity	rating_value	rating_glmslabel	rating_value_fillna	rating_glmslabel_fillna	rating_mouseonset	rating_mousedur	stim_file_TODO	pain_onset_ttl1	pain_onset_ttl2	pain_onset_ttl3	pain_onset_ttl4	pain_stimulus_delivery_success	cognitive_correct_response	cognitive_participant_response	cognitive_response_accuracy
5.68	1.0	pain	cue	1	low_cue	n/a	n/a	n/a	n/a	n/a	n/a	n/a	task-social/cue/runtype-pain/scl/l021.png	n/a	n/a	n/a	n/a	n/a	n/a	n/a	n/a
7.7	2.85	pain	expectrating	1	low_cue	n/a	7.21	Weak	7.21	Weak	0.28	2.57	task-social/cue/runtype-pain/scl/l021.png	n/a	n/a	n/a	n/a	n/a	n/a	n/a	n/a
13.77	12.36	pain	stimulus	1	low_cue	med_stim	n/a	n/a	n/a	n/a	n/a	n/a	n/a	13.77	17.53	22.53	26.14	success	n/a	n/a	n/a
27.89	3.89	pain	outcomerating	1	low_cue	med_stim	80.96	Very Strong	80.96	Very Strong	0.28	2.57	task-social/outcomerating/task-pain_scale.png	n/a	n/a	n/a	n/a	success	n/a	n/a	n/a
33.39	1.0	pain	cue	2	low_cue	n/a	n/a	n/a	n/a	n/a	n/a	n/a	task-social/cue/runtype-pain/scl/l014.png	n/a	n/a	n/a	n/a	n/a	n/a	n/a	n/a
35.69	2.25	pain	expectrating	2	low_cue	n/a	9.69	Weak	9.69	Weak	0.52	1.73	task-social/cue/runtype-pain/scl/l014.png	n/a	n/a	n/a	n/a	n/a	n/a	n/a	n/a
44.52	11.899999999999999	pain	stimulus	2	low_cue	low_stim	n/a	n/a	n/a	n/a	n/a	n/a	n/a	44.52	48.02	53.02	56.42	success	n/a	n/a	n/a
55.38	2.03	pain	outcomerating	2	low_cue	low_stim	55.61	Strong	55.61	Strong	0.52	1.73	task-social/outcomerating/task-pain_scale.png	n/a	n/a	n/a	n/a	success	n/a	n/a	n/a
71.09	1.0	pain	cue	3	low_cue	n/a	n/a	n/a	n/a	n/a	n/a	n/a	task-social/cue/runtype-pain/scl/l023.png	n/a	n/a	n/a	n/a	n/a	n/a	n/a	n/a
73.39	2.05	pain	expectrating	3	low_cue	n/a	6.9	Weak	6.9	Weak	0.28	1.77	task-social/cue/runtype-pain/scl/l023.png	n/a	n/a	n/a	n/a	n/a	n/a	n/a	n/a
82.23	12.829999999999998	pain	stimulus	3	low_cue	high_stim	n/a	n/a	n/a	n/a	n/a	n/a	n/a	82.23	86.24	91.24	95.05	success	n/a	n/a	n/a
93.3	2.32	pain	outcomerating	3	low_cue	high_stim	73.68	Very Strong	73.68	Very Strong	0.28	1.77	task-social/outcomerating/task-pain_scale.png	n/a	n/a	n/a	n/a	success	n/a	n/a	n/a
100.68	1.0	pain	cue	4	high_cue	n/a	n/a	n/a	n/a	n/a	n/a	n/a	task-social/cue/runtype-pain/sch/h043.png	n/a	n/a	n/a	n/a	n/a	n/a	n/a	n/a
103.48	2.39	pain	expectrating	4	high_cue	n/a	40.58	Strong	40.58	Strong	0.38	2.01	task-social/cue/runtype-pain/sch/h043.png	n/a	n/a	n/a	n/a	n/a	n/a	n/a	n/a
112.83	11.909999999999997	pain	stimulus	4	high_cue	low_stim	n/a	n/a	n/a	n/a	n/a	n/a	n/a	112.83	116.33	121.33	124.73	success	n/a	n/a	n/a
124.69	n/a	pain	outcomerating	4	high_cue	low_stim	n/a	n/a	50.4	Strong	0.38	2.01	task-social/outcomerating/task-pain_scale.png	n/a	n/a	n/a	n/a	success	n/a	n/a	n/a
135.78	1.0	pain	cue	5	high_cue	n/a	n/a	n/a	n/a	n/a	n/a	n/a	task-social/cue/runtype-pain/sch/h018.png	n/a	n/a	n/a	n/a	n/a	n/a	n/a	n/a
137.5	1.92	pain	expectrating	5	high_cue	n/a	70.24	Very Strong	70.24	Very Strong	0.78	1.13	task-social/cue/runtype-pain/sch/h018.png	n/a	n/a	n/a	n/a	n/a	n/a	n/a	n/a
147.82	12.360000000000014	pain	stimulus	5	high_cue	med_stim	n/a	n/a	n/a	n/a	n/a	n/a	n/a	147.82	151.58	156.58	160.19	success	n/a	n/a	n/a
159.69	2.79	pain	outcomerating	5	high_cue	med_stim	56.31	Strong	56.31	Strong	0.78	1.13	task-social/outcomerating/task-pain_scale.png	n/a	n/a	n/a	n/a	success	n/a	n/a	n/a
170.59	0.98	pain	cue	6	high_cue	n/a	n/a	n/a	n/a	n/a	n/a	n/a	task-social/cue/runtype-pain/sch/h014.png	n/a	n/a	n/a	n/a	n/a	n/a	n/a	n/a
172.39	1.72	pain	expectrating	6	high_cue	n/a	63.43	Strong	63.43	Strong	0.52	1.2	task-social/cue/runtype-pain/sch/h014.png	n/a	n/a	n/a	n/a	n/a	n/a	n/a	n/a
179.01	12.820000000000022	pain	stimulus	6	high_cue	high_stim	n/a	n/a	n/a	n/a	n/a	n/a	n/a	179.01	183.02	188.02	191.83	success	n/a	n/a	n/a
190.88	2.56	pain	outcomerating	6	high_cue	high_stim	82.36	Very Strong	82.36	Very Strong	0.52	1.2	task-social/outcomerating/task-pain_scale.png	n/a	n/a	n/a	n/a	success	n/a	n/a	n/a
196.89	1.0	pain	cue	7	high_cue	n/a	n/a	n/a	n/a	n/a	n/a	n/a	task-social/cue/runtype-pain/sch/h001.png	n/a	n/a	n/a	n/a	n/a	n/a	n/a	n/a
199.89	2.37	pain	expectrating	7	high_cue	n/a	68.68	Very Strong	68.68	Very Strong	0.37	2.01	task-social/cue/runtype-pain/sch/h001.png	n/a	n/a	n/a	n/a	n/a	n/a	n/a	n/a
210.21	11.909999999999997	pain	stimulus	7	high_cue	low_stim	n/a	n/a	n/a	n/a	n/a	n/a	n/a	210.21	213.71	218.71	222.11	success	n/a	n/a	n/a
230.98	2.0	pain	outcomerating	7	high_cue	low_stim	54.7	Strong	54.7	Strong	0.37	2.01	task-social/outcomerating/task-pain_scale.png	n/a	n/a	n/a	n/a	success	n/a	n/a	n/a
236.98	1.0	pain	cue	8	low_cue	n/a	n/a	n/a	n/a	n/a	n/a	n/a	task-social/cue/runtype-pain/scl/l012.png	n/a	n/a	n/a	n/a	n/a	n/a	n/a	n/a
239.69	1.96	pain	expectrating	8	low_cue	n/a	0.0	n/a	0.0	n/a	0.37	1.59	task-social/cue/runtype-pain/scl/l012.png	n/a	n/a	n/a	n/a	n/a	n/a	n/a	n/a
249.33	12.819999999999965	pain	stimulus	8	low_cue	high_stim	n/a	n/a	n/a	n/a	n/a	n/a	n/a	249.33	253.34	258.34	262.15	success	n/a	n/a	n/a
259.29	3.18	pain	outcomerating	8	low_cue	high_stim	88.16	Very Strong	88.16	Very Strong	0.37	1.59	task-social/outcomerating/task-pain_scale.png	n/a	n/a	n/a	n/a	success	n/a	n/a	n/a
268.28	1.0	pain	cue	9	high_cue	n/a	n/a	n/a	n/a	n/a	n/a	n/a	task-social/cue/runtype-pain/sch/h050.png	n/a	n/a	n/a	n/a	n/a	n/a	n/a	n/a
271.3	2.93	pain	expectrating	9	high_cue	n/a	50.22	Strong	50.22	Strong	0.33	2.6	task-social/cue/runtype-pain/sch/h050.png	n/a	n/a	n/a	n/a	n/a	n/a	n/a	n/a
277.22	12.829999999999984	pain	stimulus	9	high_cue	high_stim	n/a	n/a	n/a	n/a	n/a	n/a	n/a	277.22	281.23	286.23	290.04	success	n/a	n/a	n/a
295.69	2.24	pain	outcomerating	9	high_cue	high_stim	86.32	Very Strong	86.32	Very Strong	0.33	2.6	task-social/outcomerating/task-pain_scale.png	n/a	n/a	n/a	n/a	success	n/a	n/a	n/a
301.89	1.0	pain	cue	10	low_cue	n/a	n/a	n/a	n/a	n/a	n/a	n/a	task-social/cue/runtype-pain/scl/l017.png	n/a	n/a	n/a	n/a	n/a	n/a	n/a	n/a
304.19	1.92	pain	expectrating	10	low_cue	n/a	3.69	Weak	3.69	Weak	0.05	1.87	task-social/cue/runtype-pain/scl/l017.png	n/a	n/a	n/a	n/a	n/a	n/a	n/a	n/a
314.55	12.360000000000014	pain	stimulus	10	low_cue	med_stim	n/a	n/a	n/a	n/a	n/a	n/a	n/a	314.55	318.31	323.31	326.92	success	n/a	n/a	n/a
327.68	3.81	pain	outcomerating	10	low_cue	med_stim	60.63	Strong	60.63	Strong	0.05	1.87	task-social/outcomerating/task-pain_scale.png	n/a	n/a	n/a	n/a	success	n/a	n/a	n/a
333.89	1.0	pain	cue	11	high_cue	n/a	n/a	n/a	n/a	n/a	n/a	n/a	task-social/cue/runtype-pain/sch/h003.png	n/a	n/a	n/a	n/a	n/a	n/a	n/a	n/a
336.89	2.59	pain	expectrating	11	high_cue	n/a	58.09	Strong	58.09	Strong	1.03	1.56	task-social/cue/runtype-pain/sch/h003.png	n/a	n/a	n/a	n/a	n/a	n/a	n/a	n/a
347.24	12.370000000000005	pain	stimulus	11	high_cue	med_stim	n/a	n/a	n/a	n/a	n/a	n/a	n/a	347.24	351.0	356.0	359.61	success	n/a	n/a	n/a
361.6	1.5	pain	outcomerating	11	high_cue	med_stim	69.61	Very Strong	69.61	Very Strong	1.03	1.56	task-social/outcomerating/task-pain_scale.png	n/a	n/a	n/a	n/a	success	n/a	n/a	n/a
372.48	1.0	pain	cue	12	low_cue	n/a	n/a	n/a	n/a	n/a	n/a	n/a	task-social/cue/runtype-pain/scl/l039.png	n/a	n/a	n/a	n/a	n/a	n/a	n/a	n/a
375.49	2.22	pain	expectrating	12	low_cue	n/a	21.89	Moderate	21.89	Moderate	0.33	1.89	task-social/cue/runtype-pain/scl/l039.png	n/a	n/a	n/a	n/a	n/a	n/a	n/a	n/a
381.41	11.899999999999977	pain	stimulus	12	low_cue	low_stim	n/a	n/a	n/a	n/a	n/a	n/a	n/a	381.41	384.91	389.91	393.31	success	n/a	n/a	n/a
394.69	n/a	pain	outcomerating	12	low_cue	low_stim	n/a	n/a	30.29	Strong	0.33	1.89	task-social/outcomerating/task-pain_scale.png	n/a	n/a	n/a	n/a	success	n/a	n/a	n/a
