onset	duration	run_type	trial_type	trial_index	cue	stimulusintensity	rating_value	rating_glmslabel	rating_value_fillna	rating_glmslabel_fillna	rating_mouseonset	rating_mousedur	stim_file	pain_onset_ttl1	pain_onset_ttl2	pain_onset_ttl3	pain_onset_ttl4	pain_stimulus_delivery_success	cognitive_correct_response	cognitive_participant_response	cognitive_response_accuracy
5.0	0.99	vicarious	cue	1	low_cue	n/a	n/a	n/a	n/a	n/a	n/a	n/a	task-social/cue/runtype-vicarious/scl/l049.png	n/a	n/a	n/a	n/a	n/a	n/a	n/a	n/a
7.62	1.25	vicarious	expectrating	1	low_cue	n/a	2.13	Barely detectable	2.13	Barely detectable	0.05	1.2	task-social/cue/runtype-vicarious/scl/l049.png	n/a	n/a	n/a	n/a	n/a	n/a	n/a	n/a
18.79	5.0	vicarious	stimulus	1	low_cue	high_stim	n/a	n/a	n/a	n/a	n/a	n/a	task-social/stim/runtype-vicarious/ll042t1aiaff_H.mp4	n/a	n/a	n/a	n/a	n/a	n/a	n/a	n/a
28.81	2.46	vicarious	outcomerating	1	low_cue	high_stim	44.64	Strong	44.64	Strong	0.42	2.04	task-social/outcomerating/task-vicarious_scale.png	n/a	n/a	n/a	n/a	n/a	n/a	n/a	n/a
37.39	0.99	vicarious	cue	2	high_cue	n/a	n/a	n/a	n/a	n/a	n/a	n/a	task-social/cue/runtype-vicarious/sch/h045.png	n/a	n/a	n/a	n/a	n/a	n/a	n/a	n/a
39.7	2.67	vicarious	expectrating	2	high_cue	n/a	83.69	Very Strong	83.69	Very Strong	0.5	2.17	task-social/cue/runtype-vicarious/sch/h045.png	n/a	n/a	n/a	n/a	n/a	n/a	n/a	n/a
51.99	5.0	vicarious	stimulus	2	high_cue	med_stim	n/a	n/a	n/a	n/a	n/a	n/a	task-social/stim/runtype-vicarious/jh043t2aeunaff_M.mp4	n/a	n/a	n/a	n/a	n/a	n/a	n/a	n/a
65.5	3.51	vicarious	outcomerating	2	high_cue	med_stim	22.94	Moderate	22.94	Moderate	1.27	2.24	task-social/outcomerating/task-vicarious_scale.png	n/a	n/a	n/a	n/a	n/a	n/a	n/a	n/a
70.69	0.99	vicarious	cue	3	low_cue	n/a	n/a	n/a	n/a	n/a	n/a	n/a	task-social/cue/runtype-vicarious/scl/l034.png	n/a	n/a	n/a	n/a	n/a	n/a	n/a	n/a
73.01	2.66	vicarious	expectrating	3	low_cue	n/a	21.84	Moderate	21.84	Moderate	0.77	1.89	task-social/cue/runtype-vicarious/scl/l034.png	n/a	n/a	n/a	n/a	n/a	n/a	n/a	n/a
79.89	5.0	vicarious	stimulus	3	low_cue	low_stim	n/a	n/a	n/a	n/a	n/a	n/a	task-social/stim/runtype-vicarious/nm106t1aaunaff_L.mp4	n/a	n/a	n/a	n/a	n/a	n/a	n/a	n/a
88.31	3.4	vicarious	outcomerating	3	low_cue	low_stim	0.0	n/a	0.0	n/a	1.1	2.3	task-social/outcomerating/task-vicarious_scale.png	n/a	n/a	n/a	n/a	n/a	n/a	n/a	n/a
100.2	0.98	vicarious	cue	4	high_cue	n/a	n/a	n/a	n/a	n/a	n/a	n/a	task-social/cue/runtype-vicarious/sch/h047.png	n/a	n/a	n/a	n/a	n/a	n/a	n/a	n/a
102.8	2.07	vicarious	expectrating	4	high_cue	n/a	79.97	Very Strong	79.97	Very Strong	0.4	1.67	task-social/cue/runtype-vicarious/sch/h047.png	n/a	n/a	n/a	n/a	n/a	n/a	n/a	n/a
110.19	5.0	vicarious	stimulus	4	high_cue	low_stim	n/a	n/a	n/a	n/a	n/a	n/a	task-social/stim/runtype-vicarious/ak064t1afunaff_L.mp4	n/a	n/a	n/a	n/a	n/a	n/a	n/a	n/a
123.71	1.82	vicarious	outcomerating	4	high_cue	low_stim	6.44	Weak	6.44	Weak	0.43	1.39	task-social/outcomerating/task-vicarious_scale.png	n/a	n/a	n/a	n/a	n/a	n/a	n/a	n/a
132.6	0.99	vicarious	cue	5	low_cue	n/a	n/a	n/a	n/a	n/a	n/a	n/a	task-social/cue/runtype-vicarious/scl/l022.png	n/a	n/a	n/a	n/a	n/a	n/a	n/a	n/a
135.2	1.48	vicarious	expectrating	5	low_cue	n/a	2.55	Barely detectable	2.55	Barely detectable	0.57	0.92	task-social/cue/runtype-vicarious/scl/l022.png	n/a	n/a	n/a	n/a	n/a	n/a	n/a	n/a
147.49	5.0	vicarious	stimulus	5	low_cue	med_stim	n/a	n/a	n/a	n/a	n/a	n/a	task-social/stim/runtype-vicarious/hs107t2aaaff_M.mp4	n/a	n/a	n/a	n/a	n/a	n/a	n/a	n/a
156.41	3.04	vicarious	outcomerating	5	low_cue	med_stim	74.56	Very Strong	74.56	Very Strong	0.57	2.48	task-social/outcomerating/task-vicarious_scale.png	n/a	n/a	n/a	n/a	n/a	n/a	n/a	n/a
165.29	0.99	vicarious	cue	6	high_cue	n/a	n/a	n/a	n/a	n/a	n/a	n/a	task-social/cue/runtype-vicarious/sch/h040.png	n/a	n/a	n/a	n/a	n/a	n/a	n/a	n/a
167.59	3.97	vicarious	expectrating	6	high_cue	n/a	48.29	Strong	48.29	Strong	0.6	3.37	task-social/cue/runtype-vicarious/sch/h040.png	n/a	n/a	n/a	n/a	n/a	n/a	n/a	n/a
179.79	5.0	vicarious	stimulus	6	high_cue	high_stim	n/a	n/a	n/a	n/a	n/a	n/a	task-social/stim/runtype-vicarious/gf097t2aaunaff_H.mp4	n/a	n/a	n/a	n/a	n/a	n/a	n/a	n/a
190.6	2.58	vicarious	outcomerating	6	high_cue	high_stim	0.0	n/a	0.0	n/a	0.75	1.83	task-social/outcomerating/task-vicarious_scale.png	n/a	n/a	n/a	n/a	n/a	n/a	n/a	n/a
199.4	0.98	vicarious	cue	7	low_cue	n/a	n/a	n/a	n/a	n/a	n/a	n/a	task-social/cue/runtype-vicarious/scl/l007.png	n/a	n/a	n/a	n/a	n/a	n/a	n/a	n/a
201.81	3.03	vicarious	expectrating	7	low_cue	n/a	1.5	Barely detectable	1.5	Barely detectable	0.37	2.67	task-social/cue/runtype-vicarious/scl/l007.png	n/a	n/a	n/a	n/a	n/a	n/a	n/a	n/a
214.09	5.0	vicarious	stimulus	7	low_cue	low_stim	n/a	n/a	n/a	n/a	n/a	n/a	task-social/stim/runtype-vicarious/jh043t2aaunaff_L.mp4	n/a	n/a	n/a	n/a	n/a	n/a	n/a	n/a
231.0	2.95	vicarious	outcomerating	7	low_cue	low_stim	2.54	Barely detectable	2.54	Barely detectable	1.45	1.5	task-social/outcomerating/task-vicarious_scale.png	n/a	n/a	n/a	n/a	n/a	n/a	n/a	n/a
236.4	0.98	vicarious	cue	8	low_cue	n/a	n/a	n/a	n/a	n/a	n/a	n/a	task-social/cue/runtype-vicarious/scl/l001.png	n/a	n/a	n/a	n/a	n/a	n/a	n/a	n/a
239.1	3.07	vicarious	expectrating	8	low_cue	n/a	8.07	Weak	8.07	Weak	1.88	1.18	task-social/cue/runtype-vicarious/scl/l001.png	n/a	n/a	n/a	n/a	n/a	n/a	n/a	n/a
247.39	5.0	vicarious	stimulus	8	low_cue	high_stim	n/a	n/a	n/a	n/a	n/a	n/a	task-social/stim/runtype-vicarious/dn124t1aiaff_H.mp4	n/a	n/a	n/a	n/a	n/a	n/a	n/a	n/a
261.21	2.65	vicarious	outcomerating	8	low_cue	high_stim	75.07	Very Strong	75.07	Very Strong	0.45	2.2	task-social/outcomerating/task-vicarious_scale.png	n/a	n/a	n/a	n/a	n/a	n/a	n/a	n/a
266.5	0.99	vicarious	cue	9	high_cue	n/a	n/a	n/a	n/a	n/a	n/a	n/a	task-social/cue/runtype-vicarious/sch/h042.png	n/a	n/a	n/a	n/a	n/a	n/a	n/a	n/a
269.7	3.23	vicarious	expectrating	9	high_cue	n/a	71.02	Very Strong	71.02	Very Strong	0.52	2.72	task-social/cue/runtype-vicarious/sch/h042.png	n/a	n/a	n/a	n/a	n/a	n/a	n/a	n/a
280.19	5.0	vicarious	stimulus	9	high_cue	high_stim	n/a	n/a	n/a	n/a	n/a	n/a	task-social/stim/runtype-vicarious/ak064t1aaaff_H.mp4	n/a	n/a	n/a	n/a	n/a	n/a	n/a	n/a
290.71	2.38	vicarious	outcomerating	9	high_cue	high_stim	74.72	Very Strong	74.72	Very Strong	0.08	2.29	task-social/outcomerating/task-vicarious_scale.png	n/a	n/a	n/a	n/a	n/a	n/a	n/a	n/a
304.49	0.99	vicarious	cue	10	high_cue	n/a	n/a	n/a	n/a	n/a	n/a	n/a	task-social/cue/runtype-vicarious/sch/h024.png	n/a	n/a	n/a	n/a	n/a	n/a	n/a	n/a
307.4	1.72	vicarious	expectrating	10	high_cue	n/a	40.7	Strong	40.7	Strong	0.33	1.39	task-social/cue/runtype-vicarious/sch/h024.png	n/a	n/a	n/a	n/a	n/a	n/a	n/a	n/a
319.59	5.0	vicarious	stimulus	10	high_cue	med_stim	n/a	n/a	n/a	n/a	n/a	n/a	task-social/stim/runtype-vicarious/nm106t2aaunaff_M.mp4	n/a	n/a	n/a	n/a	n/a	n/a	n/a	n/a
329.7	3.63	vicarious	outcomerating	10	high_cue	med_stim	14.27	Moderate	14.27	Moderate	0.82	2.82	task-social/outcomerating/task-vicarious_scale.png	n/a	n/a	n/a	n/a	n/a	n/a	n/a	n/a
335.89	1.0	vicarious	cue	11	high_cue	n/a	n/a	n/a	n/a	n/a	n/a	n/a	task-social/cue/runtype-vicarious/sch/h046.png	n/a	n/a	n/a	n/a	n/a	n/a	n/a	n/a
338.31	1.95	vicarious	expectrating	11	high_cue	n/a	32.43	Strong	32.43	Strong	0.08	1.87	task-social/cue/runtype-vicarious/sch/h046.png	n/a	n/a	n/a	n/a	n/a	n/a	n/a	n/a
346.59	5.0	vicarious	stimulus	11	high_cue	low_stim	n/a	n/a	n/a	n/a	n/a	n/a	task-social/stim/runtype-vicarious/hs107t2aeunaff_L.mp4	n/a	n/a	n/a	n/a	n/a	n/a	n/a	n/a
358.31	n/a	vicarious	outcomerating	11	high_cue	low_stim	n/a	n/a	10.47	Moderate	1.22	2.45	task-social/outcomerating/task-vicarious_scale.png	n/a	n/a	n/a	n/a	n/a	n/a	n/a	n/a
371.2	0.98	vicarious	cue	12	low_cue	n/a	n/a	n/a	n/a	n/a	n/a	n/a	task-social/cue/runtype-vicarious/scl/l043.png	n/a	n/a	n/a	n/a	n/a	n/a	n/a	n/a
373.1	3.72	vicarious	expectrating	12	low_cue	n/a	2.53	Barely detectable	2.53	Barely detectable	2.35	1.37	task-social/cue/runtype-vicarious/scl/l043.png	n/a	n/a	n/a	n/a	n/a	n/a	n/a	n/a
385.19	5.0	vicarious	stimulus	12	low_cue	med_stim	n/a	n/a	n/a	n/a	n/a	n/a	task-social/stim/runtype-vicarious/dn124t1aeunaff_M.mp4	n/a	n/a	n/a	n/a	n/a	n/a	n/a	n/a
394.91	1.69	vicarious	outcomerating	12	low_cue	med_stim	2.61	Barely detectable	2.61	Barely detectable	0.33	1.35	task-social/outcomerating/task-vicarious_scale.png	n/a	n/a	n/a	n/a	n/a	n/a	n/a	n/a
