onset	duration	trial_type	response_angle	response_label	block_condition	mentalizing_level	stim_file_TODO
2.822	3.115	cue	n/a	n/a	mentalizing	remember	n/a
5.938	5.509	video	n/a	n/a	mentalizing	remember	task-shortvideo/ses-03_run-01_order-15_content-giving.mp4
11.542	4.322	rating	83.88	Very strong	mentalizing	remember	n/a
12.275	3.588	rating_mouse_trajectory	83.88	Very strong	mentalizing	remember	n/a
16.623	5.224	video	n/a	n/a	mentalizing	remember	task-shortvideo/ses-03_run-01_order-10_content-captureflag.mp4
21.913	3.335	rating	28.14	Moderate	mentalizing	remember	n/a
23.896	1.352	rating_mouse_trajectory	28.14	Moderate	mentalizing	remember	n/a
27.016	5.551	video	n/a	n/a	mentalizing	remember	task-shortvideo/ses-03_run-01_order-11_content-menrunning.mp4
32.633	1.851	rating	16.95	Moderate	mentalizing	remember	n/a
33.0	1.484	rating_mouse_trajectory	16.95	Moderate	mentalizing	remember	n/a
37.652	3.19	cue	n/a	n/a	likeability	n/a	n/a
40.842	5.105	video	n/a	n/a	likeability	n/a	task-shortvideo/ses-03_run-01_order-06_content-war.mp4
46.005	2.392	rating	12.8	Moderate	likeability	n/a	n/a
46.422	1.975	rating_mouse_trajectory	12.8	Moderate	likeability	n/a	n/a
51.117	5.563	video	n/a	n/a	likeability	n/a	task-shortvideo/ses-03_run-01_order-20_content-cupstacking.mp4
56.759	1.938	rating	55.01	Strong	likeability	n/a	n/a
56.809	1.888	rating_mouse_trajectory	55.01	Strong	likeability	n/a	n/a
61.847	6.183	video	n/a	n/a	likeability	n/a	task-shortvideo/ses-03_run-01_order-08_content-dancewithdeath.mp4
68.096	3.652	rating	45.69	Strong	likeability	n/a	n/a
68.613	3.136	rating_mouse_trajectory	45.69	Strong	likeability	n/a	n/a
73.115	3.115	cue	n/a	n/a	similarity	n/a	n/a
76.23	5.8	video	n/a	n/a	similarity	n/a	task-shortvideo/ses-03_run-01_order-16_content-huggingpets.mp4
82.085	2.818	rating	25.83	Moderate	similarity	n/a	n/a
82.418	2.485	rating_mouse_trajectory	25.83	Moderate	similarity	n/a	n/a
87.169	5.303	video	n/a	n/a	similarity	n/a	task-shortvideo/ses-03_run-01_order-07_content-youth.mp4
92.539	2.808	rating	79.88	Very strong	similarity	n/a	n/a
92.806	2.541	rating_mouse_trajectory	79.88	Very strong	similarity	n/a	n/a
97.63	6.183	video	n/a	n/a	similarity	n/a	task-shortvideo/ses-03_run-01_order-08_content-dancewithdeath.mp4
103.876	1.67	rating	57.12	Strong	similarity	n/a	n/a
104.36	1.187	rating_mouse_trajectory	57.12	Strong	similarity	n/a	n/a
108.895	3.123	cue	n/a	n/a	mentalizing	danger	n/a
112.018	5.297	video	n/a	n/a	mentalizing	danger	task-shortvideo/ses-03_run-01_order-07_content-youth.mp4
117.365	4.285	rating	7.21	Weak	mentalizing	danger	n/a
118.015	3.635	rating_mouse_trajectory	7.21	Weak	mentalizing	danger	n/a
122.506	5.112	video	n/a	n/a	mentalizing	danger	task-shortvideo/ses-03_run-01_order-06_content-war.mp4
127.685	1.584	rating	86.65	Very strong	mentalizing	danger	n/a
128.202	1.068	rating_mouse_trajectory	86.65	Very strong	mentalizing	danger	n/a
132.794	6.353	video	n/a	n/a	mentalizing	danger	task-shortvideo/ses-03_run-01_order-17_content-freesolo.mp4
139.206	3.09	rating	69.23	Very strong	mentalizing	danger	n/a
139.59	2.707	rating_mouse_trajectory	69.23	Very strong	mentalizing	danger	n/a
144.242	3.126	cue	n/a	n/a	likeability	n/a	n/a
147.368	5.296	video	n/a	n/a	likeability	n/a	task-shortvideo/ses-03_run-01_order-07_content-youth.mp4
152.728	3.369	rating	88.14	Very strong	likeability	n/a	n/a
153.128	2.969	rating_mouse_trajectory	88.14	Very strong	likeability	n/a	n/a
157.876	6.673	video	n/a	n/a	likeability	n/a	task-shortvideo/ses-03_run-01_order-02_content-HB.mp4
164.616	3.085	rating	4.17	Weak	likeability	n/a	n/a
165.099	2.601	rating_mouse_trajectory	4.17	Weak	likeability	n/a	n/a
169.692	5.228	video	n/a	n/a	likeability	n/a	task-shortvideo/ses-03_run-01_order-10_content-captureflag.mp4
174.986	2.285	rating	31.58	Strong	likeability	n/a	n/a
175.186	2.085	rating_mouse_trajectory	31.58	Strong	likeability	n/a	n/a
180.005	3.148	cue	n/a	n/a	similarity	n/a	n/a
183.152	5.044	video	n/a	n/a	similarity	n/a	task-shortvideo/ses-03_run-01_order-01_content-visswar.mp4
188.258	1.739	rating	11.93	Moderate	similarity	n/a	n/a
188.608	1.389	rating_mouse_trajectory	11.93	Moderate	similarity	n/a	n/a
193.353	4.994	video	n/a	n/a	similarity	n/a	task-shortvideo/ses-03_run-01_order-12_content-photography.mp4
198.412	3.869	rating	14.89	Moderate	similarity	n/a	n/a
198.478	3.802	rating_mouse_trajectory	14.89	Moderate	similarity	n/a	n/a
203.489	5.227	video	n/a	n/a	similarity	n/a	task-shortvideo/ses-03_run-01_order-10_content-captureflag.mp4
208.782	1.951	rating	23.66	Moderate	similarity	n/a	n/a
209.149	1.584	rating_mouse_trajectory	23.66	Moderate	similarity	n/a	n/a
213.801	3.122	cue	n/a	n/a	mentalizing	tired	n/a
216.923	6.199	video	n/a	n/a	mentalizing	tired	task-shortvideo/ses-03_run-01_order-08_content-dancewithdeath.mp4
223.188	4.569	rating	0.0	No sensation	mentalizing	tired	n/a
224.121	3.635	rating_mouse_trajectory	0.0	No sensation	mentalizing	tired	n/a
228.374	5.557	video	n/a	n/a	mentalizing	tired	task-shortvideo/ses-03_run-01_order-20_content-cupstacking.mp4
233.992	1.922	rating	5.57	Weak	mentalizing	tired	n/a
234.425	1.488	rating_mouse_trajectory	5.57	Weak	mentalizing	tired	n/a
239.088	5.009	video	n/a	n/a	mentalizing	tired	task-shortvideo/ses-03_run-01_order-12_content-photography.mp4
244.162	1.768	rating	26.46	Moderate	mentalizing	tired	n/a
244.612	1.318	rating_mouse_trajectory	26.46	Moderate	mentalizing	tired	n/a
249.197	3.178	cue	n/a	n/a	likeability	n/a	n/a
252.375	5.175	video	n/a	n/a	likeability	n/a	task-shortvideo/ses-03_run-01_order-13_content-wanderers.mp4
257.617	1.718	rating	27.78	Moderate	likeability	n/a	n/a
257.917	1.418	rating_mouse_trajectory	27.78	Moderate	likeability	n/a	n/a
262.721	5.834	video	n/a	n/a	likeability	n/a	task-shortvideo/ses-03_run-01_order-03_content-bestfriendsweating.mp4
268.621	2.368	rating	43.7	Strong	likeability	n/a	n/a
269.255	1.734	rating_mouse_trajectory	43.7	Strong	likeability	n/a	n/a
273.734	6.113	video	n/a	n/a	likeability	n/a	task-shortvideo/ses-03_run-01_order-14_content-alwaysafamily.mp4
279.909	3.488	rating	98.39	Strongest possible	likeability	n/a	n/a
280.409	2.988	rating_mouse_trajectory	98.39	Strongest possible	likeability	n/a	n/a
284.944	3.133	cue	n/a	n/a	mentalizing	heights	n/a
288.077	5.837	video	n/a	n/a	mentalizing	heights	task-shortvideo/ses-03_run-01_order-03_content-bestfriendsweating.mp4
293.981	2.985	rating	2.76	Barely detectable	mentalizing	heights	n/a
294.181	2.785	rating_mouse_trajectory	2.76	Barely detectable	mentalizing	heights	n/a
299.098	5.016	video	n/a	n/a	mentalizing	heights	task-shortvideo/ses-03_run-01_order-21_content-iceblock.mp4
304.184	3.202	rating	5.0	Weak	mentalizing	heights	n/a
304.868	2.518	rating_mouse_trajectory	5.0	Weak	mentalizing	heights	n/a
309.284	5.196	video	n/a	n/a	mentalizing	heights	task-shortvideo/ses-03_run-01_order-09_content-knifegame.mp4
314.538	2.642	rating	1.61	Barely detectable	mentalizing	heights	n/a
314.905	2.275	rating_mouse_trajectory	1.61	Barely detectable	mentalizing	heights	n/a
319.557	3.11	cue	n/a	n/a	similarity	n/a	n/a
322.667	5.496	video	n/a	n/a	similarity	n/a	task-shortvideo/ses-03_run-01_order-15_content-giving.mp4
328.227	2.403	rating	9.69	Weak	similarity	n/a	n/a
328.693	1.937	rating_mouse_trajectory	9.69	Weak	similarity	n/a	n/a
333.329	6.118	video	n/a	n/a	similarity	n/a	task-shortvideo/ses-03_run-01_order-14_content-alwaysafamily.mp4
339.514	2.835	rating	15.38	Moderate	similarity	n/a	n/a
339.998	2.351	rating_mouse_trajectory	15.38	Moderate	similarity	n/a	n/a
344.626	5.009	video	n/a	n/a	similarity	n/a	task-shortvideo/ses-03_run-01_order-21_content-iceblock.mp4
349.701	2.218	rating	80.8	Very strong	similarity	n/a	n/a
350.368	1.551	rating_mouse_trajectory	80.8	Very strong	similarity	n/a	n/a
354.72	3.16	cue	n/a	n/a	mentalizing	angry	n/a
357.88	5.177	video	n/a	n/a	mentalizing	angry	task-shortvideo/ses-03_run-01_order-13_content-wanderers.mp4
363.123	3.551	rating	5.53	Weak	mentalizing	angry	n/a
363.873	2.801	rating_mouse_trajectory	5.53	Weak	mentalizing	angry	n/a
368.276	6.671	video	n/a	n/a	mentalizing	angry	task-shortvideo/ses-03_run-01_order-02_content-HB.mp4
375.011	1.936	rating	86.38	Very strong	mentalizing	angry	n/a
375.628	1.319	rating_mouse_trajectory	86.38	Very strong	mentalizing	angry	n/a
380.115	4.083	video	n/a	n/a	mentalizing	angry	task-shortvideo/ses-03_run-01_order-05_content-parkour.mp4
384.264	2.751	rating	1.39	Barely detectable	mentalizing	angry	n/a
385.014	2.001	rating_mouse_trajectory	1.39	Barely detectable	mentalizing	angry	n/a
389.283	3.154	cue	n/a	n/a	likeability	n/a	n/a
392.437	5.333	video	n/a	n/a	likeability	n/a	task-shortvideo/ses-03_run-01_order-18_content-angrygrandpa.mp4
397.836	3.418	rating	82.78	Very strong	likeability	n/a	n/a
398.603	2.652	rating_mouse_trajectory	82.78	Very strong	likeability	n/a	n/a
402.91	5.397	video	n/a	n/a	likeability	n/a	task-shortvideo/ses-03_run-01_order-19_content-beatbox.mp4
408.357	1.84	rating	35.39	Strong	likeability	n/a	n/a
408.74	1.457	rating_mouse_trajectory	35.39	Strong	likeability	n/a	n/a
413.454	5.009	video	n/a	n/a	likeability	n/a	task-shortvideo/ses-03_run-01_order-12_content-photography.mp4
418.527	1.686	rating	27.97	Moderate	likeability	n/a	n/a
418.994	1.22	rating_mouse_trajectory	27.97	Moderate	likeability	n/a	n/a
423.562	3.149	cue	n/a	n/a	mentalizing	calm	n/a
426.711	5.038	video	n/a	n/a	mentalizing	calm	task-shortvideo/ses-03_run-01_order-01_content-visswar.mp4
431.799	4.252	rating	19.26	Moderate	mentalizing	calm	n/a
432.215	3.836	rating_mouse_trajectory	19.26	Moderate	mentalizing	calm	n/a
436.914	6.839	video	n/a	n/a	mentalizing	calm	task-shortvideo/ses-03_run-01_order-04_content-unefille.mp4
443.82	2.635	rating	22.92	Moderate	mentalizing	calm	n/a
444.27	2.185	rating_mouse_trajectory	22.92	Moderate	mentalizing	calm	n/a
448.899	5.797	video	n/a	n/a	mentalizing	calm	task-shortvideo/ses-03_run-01_order-16_content-huggingpets.mp4
454.757	2.89	rating	29.1	Strong	mentalizing	calm	n/a
455.157	2.49	rating_mouse_trajectory	29.1	Strong	mentalizing	calm	n/a
459.776	3.141	cue	n/a	n/a	similarity	n/a	n/a
462.917	6.346	video	n/a	n/a	similarity	n/a	task-shortvideo/ses-03_run-01_order-17_content-freesolo.mp4
469.329	2.735	rating	15.17	Moderate	similarity	n/a	n/a
469.696	2.368	rating_mouse_trajectory	15.17	Moderate	similarity	n/a	n/a
474.419	5.844	video	n/a	n/a	similarity	n/a	task-shortvideo/ses-03_run-01_order-03_content-bestfriendsweating.mp4
480.317	2.151	rating	55.77	Strong	similarity	n/a	n/a
480.784	1.684	rating_mouse_trajectory	55.77	Strong	similarity	n/a	n/a
485.432	5.172	video	n/a	n/a	similarity	n/a	task-shortvideo/ses-03_run-01_order-13_content-wanderers.mp4
490.671	2.268	rating	11.9	Moderate	similarity	n/a	n/a
491.354	1.584	rating_mouse_trajectory	11.9	Moderate	similarity	n/a	n/a
495.689	3.145	cue	n/a	n/a	mentalizing	enjoy	n/a
498.834	6.113	video	n/a	n/a	mentalizing	enjoy	task-shortvideo/ses-03_run-01_order-14_content-alwaysafamily.mp4
505.009	2.454	rating	0.25	Barely detectable	mentalizing	enjoy	n/a
505.693	1.771	rating_mouse_trajectory	0.25	Barely detectable	mentalizing	enjoy	n/a
510.119	5.328	video	n/a	n/a	mentalizing	enjoy	task-shortvideo/ses-03_run-01_order-18_content-angrygrandpa.mp4
515.513	1.984	rating	51.3	Strong	mentalizing	enjoy	n/a
516.113	1.384	rating_mouse_trajectory	51.3	Strong	mentalizing	enjoy	n/a
520.588	5.396	video	n/a	n/a	mentalizing	enjoy	task-shortvideo/ses-03_run-01_order-19_content-beatbox.mp4
526.051	3.535	rating	56.78	Strong	mentalizing	enjoy	n/a
526.517	3.068	rating_mouse_trajectory	56.78	Strong	mentalizing	enjoy	n/a
531.069	3.124	cue	n/a	n/a	likeability	n/a	n/a
534.193	5.797	video	n/a	n/a	likeability	n/a	task-shortvideo/ses-03_run-01_order-16_content-huggingpets.mp4
540.039	1.674	rating	79.74	Very strong	likeability	n/a	n/a
540.389	1.324	rating_mouse_trajectory	79.74	Very strong	likeability	n/a	n/a
545.142	5.188	video	n/a	n/a	likeability	n/a	task-shortvideo/ses-03_run-01_order-09_content-knifegame.mp4
550.393	1.487	rating	42.41	Strong	likeability	n/a	n/a
550.76	1.121	rating_mouse_trajectory	42.41	Strong	likeability	n/a	n/a
555.494	6.837	video	n/a	n/a	likeability	n/a	task-shortvideo/ses-03_run-01_order-04_content-unefille.mp4
562.397	3.952	rating	88.62	Very strong	likeability	n/a	n/a
562.797	3.552	rating_mouse_trajectory	88.62	Very strong	likeability	n/a	n/a
567.416	3.11	cue	n/a	n/a	similarity	n/a	n/a
570.526	5.393	video	n/a	n/a	similarity	n/a	task-shortvideo/ses-03_run-01_order-19_content-beatbox.mp4
575.986	2.918	rating	30.84	Strong	similarity	n/a	n/a
576.453	2.451	rating_mouse_trajectory	30.84	Strong	similarity	n/a	n/a
581.083	5.181	video	n/a	n/a	similarity	n/a	task-shortvideo/ses-03_run-01_order-09_content-knifegame.mp4
586.323	2.224	rating	24.84	Moderate	similarity	n/a	n/a
586.706	1.841	rating_mouse_trajectory	24.84	Moderate	similarity	n/a	n/a
591.428	5.552	video	n/a	n/a	similarity	n/a	task-shortvideo/ses-03_run-01_order-11_content-menrunning.mp4
597.044	2.587	rating	26.89	Moderate	similarity	n/a	n/a
597.377	2.253	rating_mouse_trajectory	26.89	Moderate	similarity	n/a	n/a
602.062	3.122	cue	n/a	n/a	likeability	n/a	n/a
605.185	5.498	video	n/a	n/a	likeability	n/a	task-shortvideo/ses-03_run-01_order-15_content-giving.mp4
610.749	2.384	rating	28.22	Moderate	likeability	n/a	n/a
611.099	2.034	rating_mouse_trajectory	28.22	Moderate	likeability	n/a	n/a
615.856	6.347	video	n/a	n/a	likeability	n/a	task-shortvideo/ses-03_run-01_order-17_content-freesolo.mp4
622.27	2.735	rating	52.52	Strong	likeability	n/a	n/a
622.753	2.251	rating_mouse_trajectory	52.52	Strong	likeability	n/a	n/a
627.379	4.078	video	n/a	n/a	likeability	n/a	task-shortvideo/ses-03_run-01_order-05_content-parkour.mp4
631.523	2.907	rating	51.88	Strong	likeability	n/a	n/a
631.873	2.557	rating_mouse_trajectory	51.88	Strong	likeability	n/a	n/a
636.542	3.14	cue	n/a	n/a	similarity	n/a	n/a
639.682	4.081	video	n/a	n/a	similarity	n/a	task-shortvideo/ses-03_run-01_order-05_content-parkour.mp4
643.828	1.719	rating	29.52	Strong	similarity	n/a	n/a
644.128	1.419	rating_mouse_trajectory	29.52	Strong	similarity	n/a	n/a
648.944	5.322	video	n/a	n/a	similarity	n/a	task-shortvideo/ses-03_run-01_order-18_content-angrygrandpa.mp4
654.332	2.785	rating	13.08	Moderate	similarity	n/a	n/a
654.932	2.185	rating_mouse_trajectory	13.08	Moderate	similarity	n/a	n/a
659.449	5.553	video	n/a	n/a	similarity	n/a	task-shortvideo/ses-03_run-01_order-20_content-cupstacking.mp4
665.069	1.834	rating	30.84	Strong	similarity	n/a	n/a
665.486	1.418	rating_mouse_trajectory	30.84	Strong	similarity	n/a	n/a
670.088	3.142	cue	n/a	n/a	likeability	n/a	n/a
673.23	5.051	video	n/a	n/a	likeability	n/a	task-shortvideo/ses-03_run-01_order-01_content-visswar.mp4
678.341	2.856	rating	54.08	Strong	likeability	n/a	n/a
679.074	2.123	rating_mouse_trajectory	54.08	Strong	likeability	n/a	n/a
683.437	5.56	video	n/a	n/a	likeability	n/a	task-shortvideo/ses-03_run-01_order-11_content-menrunning.mp4
689.061	1.986	rating	53.23	Strong	likeability	n/a	n/a
689.361	1.686	rating_mouse_trajectory	53.23	Strong	likeability	n/a	n/a
694.175	5.007	video	n/a	n/a	likeability	n/a	task-shortvideo/ses-03_run-01_order-21_content-iceblock.mp4
699.265	2.101	rating	49.2	Strong	likeability	n/a	n/a
699.799	1.568	rating_mouse_trajectory	49.2	Strong	likeability	n/a	n/a
704.284	3.177	cue	n/a	n/a	similarity	n/a	n/a
707.461	5.119	video	n/a	n/a	similarity	n/a	task-shortvideo/ses-03_run-01_order-06_content-war.mp4
712.637	3.777	rating	2.3	Barely detectable	similarity	n/a	n/a
713.853	2.56	rating_mouse_trajectory	2.3	Barely detectable	similarity	n/a	n/a
717.742	6.838	video	n/a	n/a	similarity	n/a	task-shortvideo/ses-03_run-01_order-04_content-unefille.mp4
724.641	1.539	rating	49.12	Strong	similarity	n/a	n/a
725.175	1.006	rating_mouse_trajectory	49.12	Strong	similarity	n/a	n/a
729.791	6.674	video	n/a	n/a	similarity	n/a	task-shortvideo/ses-03_run-01_order-02_content-HB.mp4
736.529	3.802	rating	17.34	Moderate	similarity	n/a	n/a
736.996	3.335	rating_mouse_trajectory	17.34	Moderate	similarity	n/a	n/a
