onset	duration	run_type	trial_type	trial_index	cue	stimulusintensity	rating_value	rating_glmslabel	rating_value_fillna	rating_glmslabel_fillna	rating_mouseonset	rating_mousedur	stim_file	pain_onset_ttl1	pain_onset_ttl2	pain_onset_ttl3	pain_onset_ttl4	pain_stimulus_delivery_success	cognitive_correct_response	cognitive_participant_response	cognitive_response_accuracy
10.6	0.99	vicarious	cue	1	low_cue	n/a	n/a	n/a	n/a	n/a	n/a	n/a	task-social/cue/runtype-vicarious/scl/l009.png	n/a	n/a	n/a	n/a	n/a	n/a	n/a	n/a
12.33	2.28	vicarious	expectrating	1	low_cue	n/a	67.38	Very Strong	67.38	Very Strong	0.6	1.68	task-social/cue/runtype-vicarious/scl/l009.png	n/a	n/a	n/a	n/a	n/a	n/a	n/a	n/a
23.09	5.0	vicarious	stimulus	1	low_cue	low_stim	n/a	n/a	n/a	n/a	n/a	n/a	task-social/stim/runtype-vicarious/jl047t1aaunaff_L.mp4	n/a	n/a	n/a	n/a	n/a	n/a	n/a	n/a
31.12	1.95	vicarious	outcomerating	1	low_cue	low_stim	50.35	Strong	50.35	Strong	0.62	1.34	task-social/outcomerating/task-vicarious_scale.png	n/a	n/a	n/a	n/a	n/a	n/a	n/a	n/a
35.71	0.98	vicarious	cue	2	low_cue	n/a	n/a	n/a	n/a	n/a	n/a	n/a	task-social/cue/runtype-vicarious/scl/l046.png	n/a	n/a	n/a	n/a	n/a	n/a	n/a	n/a
38.01	2.13	vicarious	expectrating	2	low_cue	n/a	61.79	Strong	61.79	Strong	1.15	0.98	task-social/cue/runtype-vicarious/scl/l046.png	n/a	n/a	n/a	n/a	n/a	n/a	n/a	n/a
45.79	5.0	vicarious	stimulus	2	low_cue	med_stim	n/a	n/a	n/a	n/a	n/a	n/a	task-social/stim/runtype-vicarious/bn080t1aeaff_M.mp4	n/a	n/a	n/a	n/a	n/a	n/a	n/a	n/a
56.32	2.37	vicarious	outcomerating	2	low_cue	med_stim	99.95	Strongest sensation of any kind	99.95	Strongest sensation of any kind	0.83	1.53	task-social/outcomerating/task-vicarious_scale.png	n/a	n/a	n/a	n/a	n/a	n/a	n/a	n/a
61.3	0.99	vicarious	cue	3	low_cue	n/a	n/a	n/a	n/a	n/a	n/a	n/a	task-social/cue/runtype-vicarious/scl/l033.png	n/a	n/a	n/a	n/a	n/a	n/a	n/a	n/a
64.22	2.35	vicarious	expectrating	3	low_cue	n/a	85.14	Very Strong	85.14	Very Strong	0.9	1.45	task-social/cue/runtype-vicarious/scl/l033.png	n/a	n/a	n/a	n/a	n/a	n/a	n/a	n/a
74.19	5.0	vicarious	stimulus	3	low_cue	low_stim	n/a	n/a	n/a	n/a	n/a	n/a	task-social/stim/runtype-vicarious/jh043t2aaunaff_L.mp4	n/a	n/a	n/a	n/a	n/a	n/a	n/a	n/a
86.31	2.04	vicarious	outcomerating	3	low_cue	low_stim	119.77	Strongest sensation of any kind	119.77	Strongest sensation of any kind	0.83	1.2	task-social/outcomerating/task-vicarious_scale.png	n/a	n/a	n/a	n/a	n/a	n/a	n/a	n/a
91.29	1.0	vicarious	cue	4	low_cue	n/a	n/a	n/a	n/a	n/a	n/a	n/a	task-social/cue/runtype-vicarious/scl/l027.png	n/a	n/a	n/a	n/a	n/a	n/a	n/a	n/a
93.71	2.2	vicarious	expectrating	4	low_cue	n/a	76.58	Very Strong	76.58	Very Strong	0.62	1.58	task-social/cue/runtype-vicarious/scl/l027.png	n/a	n/a	n/a	n/a	n/a	n/a	n/a	n/a
101.79	5.0	vicarious	stimulus	4	low_cue	high_stim	n/a	n/a	n/a	n/a	n/a	n/a	task-social/stim/runtype-vicarious/mg066t1aaaff_H.mp4	n/a	n/a	n/a	n/a	n/a	n/a	n/a	n/a
112.32	1.22	vicarious	outcomerating	4	low_cue	high_stim	71.05	Very Strong	71.05	Very Strong	0.55	0.67	task-social/outcomerating/task-vicarious_scale.png	n/a	n/a	n/a	n/a	n/a	n/a	n/a	n/a
120.01	0.99	vicarious	cue	5	high_cue	n/a	n/a	n/a	n/a	n/a	n/a	n/a	task-social/cue/runtype-vicarious/sch/h051.png	n/a	n/a	n/a	n/a	n/a	n/a	n/a	n/a
122.91	1.64	vicarious	expectrating	5	high_cue	n/a	79.16	Very Strong	79.16	Very Strong	0.45	1.19	task-social/cue/runtype-vicarious/sch/h051.png	n/a	n/a	n/a	n/a	n/a	n/a	n/a	n/a
133.8	5.0	vicarious	stimulus	5	high_cue	med_stim	n/a	n/a	n/a	n/a	n/a	n/a	task-social/stim/runtype-vicarious/ib109t1afaff_M.mp4	n/a	n/a	n/a	n/a	n/a	n/a	n/a	n/a
142.81	2.75	vicarious	outcomerating	5	high_cue	med_stim	75.16	Very Strong	75.16	Very Strong	1.5	1.25	task-social/outcomerating/task-vicarious_scale.png	n/a	n/a	n/a	n/a	n/a	n/a	n/a	n/a
153.9	0.99	vicarious	cue	6	high_cue	n/a	n/a	n/a	n/a	n/a	n/a	n/a	task-social/cue/runtype-vicarious/sch/h045.png	n/a	n/a	n/a	n/a	n/a	n/a	n/a	n/a
155.8	2.67	vicarious	expectrating	6	high_cue	n/a	74.16	Very Strong	74.16	Very Strong	1.1	1.57	task-social/cue/runtype-vicarious/sch/h045.png	n/a	n/a	n/a	n/a	n/a	n/a	n/a	n/a
169.79	5.0	vicarious	stimulus	6	high_cue	high_stim	n/a	n/a	n/a	n/a	n/a	n/a	task-social/stim/runtype-vicarious/jh043t2aeaff_H.mp4	n/a	n/a	n/a	n/a	n/a	n/a	n/a	n/a
184.21	2.57	vicarious	outcomerating	6	high_cue	high_stim	123.11	Strongest sensation of any kind	123.11	Strongest sensation of any kind	0.68	1.88	task-social/outcomerating/task-vicarious_scale.png	n/a	n/a	n/a	n/a	n/a	n/a	n/a	n/a
194.2	0.99	vicarious	cue	7	high_cue	n/a	n/a	n/a	n/a	n/a	n/a	n/a	task-social/cue/runtype-vicarious/sch/h041.png	n/a	n/a	n/a	n/a	n/a	n/a	n/a	n/a
197.0	1.91	vicarious	expectrating	7	high_cue	n/a	72.95	Very Strong	72.95	Very Strong	0.53	1.38	task-social/cue/runtype-vicarious/sch/h041.png	n/a	n/a	n/a	n/a	n/a	n/a	n/a	n/a
206.19	5.0	vicarious	stimulus	7	high_cue	med_stim	n/a	n/a	n/a	n/a	n/a	n/a	task-social/stim/runtype-vicarious/vw121t1aiaff_M.mp4	n/a	n/a	n/a	n/a	n/a	n/a	n/a	n/a
214.21	2.44	vicarious	outcomerating	7	high_cue	med_stim	66.62	Very Strong	66.62	Very Strong	0.87	1.57	task-social/outcomerating/task-vicarious_scale.png	n/a	n/a	n/a	n/a	n/a	n/a	n/a	n/a
219.21	0.98	vicarious	cue	8	high_cue	n/a	n/a	n/a	n/a	n/a	n/a	n/a	task-social/cue/runtype-vicarious/sch/h014.png	n/a	n/a	n/a	n/a	n/a	n/a	n/a	n/a
222.11	2.23	vicarious	expectrating	8	high_cue	n/a	83.71	Very Strong	83.71	Very Strong	0.95	1.28	task-social/cue/runtype-vicarious/sch/h014.png	n/a	n/a	n/a	n/a	n/a	n/a	n/a	n/a
234.49	5.0	vicarious	stimulus	8	high_cue	low_stim	n/a	n/a	n/a	n/a	n/a	n/a	task-social/stim/runtype-vicarious/bg096t2afunaff_L.mp4	n/a	n/a	n/a	n/a	n/a	n/a	n/a	n/a
242.72	2.19	vicarious	outcomerating	8	high_cue	low_stim	70.31	Very Strong	70.31	Very Strong	1.0	1.19	task-social/outcomerating/task-vicarious_scale.png	n/a	n/a	n/a	n/a	n/a	n/a	n/a	n/a
251.4	0.99	vicarious	cue	9	high_cue	n/a	n/a	n/a	n/a	n/a	n/a	n/a	task-social/cue/runtype-vicarious/sch/h043.png	n/a	n/a	n/a	n/a	n/a	n/a	n/a	n/a
253.81	2.17	vicarious	expectrating	9	high_cue	n/a	64.42	Very Strong	64.42	Very Strong	0.9	1.27	task-social/cue/runtype-vicarious/sch/h043.png	n/a	n/a	n/a	n/a	n/a	n/a	n/a	n/a
266.69	5.0	vicarious	stimulus	9	high_cue	low_stim	n/a	n/a	n/a	n/a	n/a	n/a	task-social/stim/runtype-vicarious/bn080t1afunaff_L.mp4	n/a	n/a	n/a	n/a	n/a	n/a	n/a	n/a
280.82	1.93	vicarious	outcomerating	9	high_cue	low_stim	85.85	Very Strong	85.85	Very Strong	0.6	1.33	task-social/outcomerating/task-vicarious_scale.png	n/a	n/a	n/a	n/a	n/a	n/a	n/a	n/a
285.8	0.99	vicarious	cue	10	high_cue	n/a	n/a	n/a	n/a	n/a	n/a	n/a	task-social/cue/runtype-vicarious/sch/h013.png	n/a	n/a	n/a	n/a	n/a	n/a	n/a	n/a
289.0	2.16	vicarious	expectrating	10	high_cue	n/a	62.9	Strong	62.9	Strong	0.6	1.56	task-social/cue/runtype-vicarious/sch/h013.png	n/a	n/a	n/a	n/a	n/a	n/a	n/a	n/a
297.99	5.0	vicarious	stimulus	10	high_cue	high_stim	n/a	n/a	n/a	n/a	n/a	n/a	task-social/stim/runtype-vicarious/bn080t1afaff_H.mp4	n/a	n/a	n/a	n/a	n/a	n/a	n/a	n/a
311.31	2.07	vicarious	outcomerating	10	high_cue	high_stim	113.2	Strongest sensation of any kind	113.2	Strongest sensation of any kind	0.77	1.3	task-social/outcomerating/task-vicarious_scale.png	n/a	n/a	n/a	n/a	n/a	n/a	n/a	n/a
326.2	0.99	vicarious	cue	11	low_cue	n/a	n/a	n/a	n/a	n/a	n/a	n/a	task-social/cue/runtype-vicarious/scl/l040.png	n/a	n/a	n/a	n/a	n/a	n/a	n/a	n/a
328.1	1.73	vicarious	expectrating	11	low_cue	n/a	93.68	Very Strong	93.68	Very Strong	0.88	0.84	task-social/cue/runtype-vicarious/scl/l040.png	n/a	n/a	n/a	n/a	n/a	n/a	n/a	n/a
342.39	5.0	vicarious	stimulus	11	low_cue	med_stim	n/a	n/a	n/a	n/a	n/a	n/a	task-social/stim/runtype-vicarious/mg066t2aaunaff_M.mp4	n/a	n/a	n/a	n/a	n/a	n/a	n/a	n/a
353.31	3.48	vicarious	outcomerating	11	low_cue	med_stim	99.95	Strongest sensation of any kind	99.95	Strongest sensation of any kind	2.2	1.28	task-social/outcomerating/task-vicarious_scale.png	n/a	n/a	n/a	n/a	n/a	n/a	n/a	n/a
366.4	0.99	vicarious	cue	12	low_cue	n/a	n/a	n/a	n/a	n/a	n/a	n/a	task-social/cue/runtype-vicarious/scl/l051.png	n/a	n/a	n/a	n/a	n/a	n/a	n/a	n/a
369.2	n/a	vicarious	expectrating	12	low_cue	n/a	n/a	n/a	n/a	n/a	n/a	n/a	task-social/cue/runtype-vicarious/scl/l051.png	n/a	n/a	n/a	n/a	n/a	n/a	n/a	n/a
375.79	5.0	vicarious	stimulus	12	low_cue	high_stim	n/a	n/a	n/a	n/a	n/a	n/a	task-social/stim/runtype-vicarious/ib109t1aiaff_H.mp4	n/a	n/a	n/a	n/a	n/a	n/a	n/a	n/a
394.81	1.67	vicarious	outcomerating	12	low_cue	high_stim	93.68	Very Strong	93.68	Very Strong	0.92	0.75	task-social/outcomerating/task-vicarious_scale.png	n/a	n/a	n/a	n/a	n/a	n/a	n/a	n/a
