onset	duration	subtask_type	event_type	value	response_accuracy	stim_file	participant_response	reaction_time
7.969	1.034	memory	dummy	study_dummy	n/a	task-fractional/runtype-memory/obj006apple.png	n/a	n/a
10.037	1.017	memory	dummy	study_dummy	n/a	task-fractional/runtype-memory/obj010baby.png	n/a	n/a
12.087	1.017	memory	dummy	study_dummy	n/a	task-fractional/runtype-memory/obj035box.png	n/a	n/a
14.122	1.017	memory	study	study	n/a	task-fractional/runtype-memory/obj338whistle.png	n/a	n/a
16.156	1.017	memory	study	study	n/a	task-fractional/runtype-memory/obj262screw.png	n/a	n/a
18.19	1.017	memory	study	study	n/a	task-fractional/runtype-memory/obj171lizard.png	n/a	n/a
20.224	1.017	memory	study	study	n/a	task-fractional/runtype-memory/obj058chest.png	n/a	n/a
22.258	1.017	memory	study	study	n/a	task-fractional/runtype-memory/obj180medal.png	n/a	n/a
24.292	1.017	memory	study	study	n/a	task-fractional/runtype-memory/obj344worm.png	n/a	n/a
26.326	1.017	memory	study	study	n/a	task-fractional/runtype-memory/obj029bomb.png	n/a	n/a
28.36	1.017	memory	study	study	n/a	task-fractional/runtype-memory/obj246rockingchair.png	n/a	n/a
30.394	1.017	memory	study	study	n/a	task-fractional/runtype-memory/obj112fountain.png	n/a	n/a
32.428	1.017	memory	study	study	n/a	task-fractional/runtype-memory/obj342wing.png	n/a	n/a
34.462	1.034	memory	study	study	n/a	task-fractional/runtype-memory/obj135heart.png	n/a	n/a
36.513	1.017	memory	study	study	n/a	task-fractional/runtype-memory/obj003alligator.png	n/a	n/a
38.547	1.017	memory	study	study	n/a	task-fractional/runtype-memory/obj113fox.png	n/a	n/a
40.598	1.017	memory	study	study	n/a	task-fractional/runtype-memory/obj284spoon.png	n/a	n/a
42.649	1.017	memory	study	study	n/a	task-fractional/runtype-memory/obj236raccoon.png	n/a	n/a
44.7	1.017	memory	study	study	n/a	task-fractional/runtype-memory/obj337whip.png	n/a	n/a
46.734	1.017	memory	study	study	n/a	task-fractional/runtype-memory/obj028boat.png	n/a	n/a
48.768	1.017	memory	study	study	n/a	task-fractional/runtype-memory/obj026bird.png	n/a	n/a
50.802	1.017	memory	study	study	n/a	task-fractional/runtype-memory/obj258saxophone.png	n/a	n/a
52.836	1.017	memory	study	study	n/a	task-fractional/runtype-memory/obj217piano.png	n/a	n/a
54.87	1.017	memory	dummy	study_dummy	n/a	task-fractional/runtype-memory/obj068cork.png	n/a	n/a
56.904	1.017	memory	dummy	study_dummy	n/a	task-fractional/runtype-memory/obj263seahorse.png	n/a	n/a
58.938	1.017	memory	dummy	study_dummy	n/a	task-fractional/runtype-memory/obj294tank.png	n/a	n/a
71.193	25.0	memory	distraction_math	math	n/a	n/a	n/a	n/a
99.287	25.0	memory	distraction_math	math	n/a	n/a	n/a	n/a
127.347	25.0	memory	distraction_math	math	n/a	n/a	n/a	n/a
155.408	25.0	memory	distraction_math	math	n/a	n/a	n/a	n/a
189.053	1.373	memory	test	test_old	incorrect	task-fractional/runtype-memory/obj113fox.png	new	n/a
191.621	0.857	memory	test	test_old	correct	task-fractional/runtype-memory/obj028boat.png	old	n/a
194.389	1.117	memory	test	test_new	correct	task-fractional/runtype-memory/obj167lightning.png	new	n/a
196.956	0.801	memory	test	test_new	correct	task-fractional/runtype-memory/obj232purse.png	new	n/a
199.791	0.82	memory	test	test_new	correct	task-fractional/runtype-memory/obj223pirate.png	new	n/a
202.609	0.757	memory	test	test_old	correct	task-fractional/runtype-memory/obj258saxophone.png	old	n/a
205.376	0.757	memory	test	test_old	correct	task-fractional/runtype-memory/obj003alligator.png	old	n/a
208.027	0.804	memory	test	test_old	correct	task-fractional/runtype-memory/obj262screw.png	old	n/a
210.762	1.16	memory	test	test_old	correct	task-fractional/runtype-memory/obj342wing.png	old	n/a
213.429	0.781	memory	test	test_new	correct	task-fractional/runtype-memory/obj188mountain.png	new	n/a
215.963	1.057	memory	test	test_new	correct	task-fractional/runtype-memory/obj052carrot.png	new	n/a
218.765	1.018	memory	test	test_new	correct	task-fractional/runtype-memory/obj247rollerskate.png	new	n/a
221.682	0.709	memory	test	test_old	correct	task-fractional/runtype-memory/obj135heart.png	old	n/a
224.283	0.642	memory	test	test_old	correct	task-fractional/runtype-memory/obj026bird.png	old	n/a
227.068	0.784	memory	test	test_new	correct	task-fractional/runtype-memory/obj200orange.png	new	n/a
229.985	0.77	memory	test	test_old	correct	task-fractional/runtype-memory/obj217piano.png	old	n/a
232.803	1.299	memory	test	test_new	correct	task-fractional/runtype-memory/obj009asparagus.png	new	n/a
235.804	0.709	memory	test	test_new	correct	task-fractional/runtype-memory/obj042cactus.png	new	n/a
238.489	0.768	memory	test	test_old	correct	task-fractional/runtype-memory/obj337whip.png	old	n/a
241.506	2.0	memory	test	test_new	correct	task-fractional/runtype-memory/obj214pencil.png	n/a	n/a
244.174	0.82	memory	test	test_new	correct	task-fractional/runtype-memory/obj034bowl.png	new	n/a
246.808	0.784	memory	test	test_old	correct	task-fractional/runtype-memory/obj029bomb.png	old	n/a
249.409	0.884	memory	test	test_old	correct	task-fractional/runtype-memory/obj112fountain.png	old	n/a
252.21	0.722	memory	test	test_new	correct	task-fractional/runtype-memory/obj061church.png	new	n/a
255.128	0.762	memory	test	test_new	correct	task-fractional/runtype-memory/obj094elephant.png	new	n/a
258.063	0.769	memory	test	test_old	correct	task-fractional/runtype-memory/obj338whistle.png	old	n/a
260.797	1.434	memory	test	test_old	correct	task-fractional/runtype-memory/obj344worm.png	old	n/a
263.465	0.7	memory	test	test_new	correct	task-fractional/runtype-memory/obj138helmet.png	new	n/a
266.015	0.972	memory	test	test_old	incorrect	task-fractional/runtype-memory/obj284spoon.png	new	n/a
268.633	0.967	memory	test	test_old	incorrect	task-fractional/runtype-memory/obj246rockingchair.png	new	n/a
271.468	0.754	memory	test	test_old	correct	task-fractional/runtype-memory/obj180medal.png	old	n/a
274.102	0.719	memory	test	test_old	correct	task-fractional/runtype-memory/obj236raccoon.png	old	n/a
276.753	0.793	memory	test	test_new	correct	task-fractional/runtype-memory/obj237radio.png	new	n/a
279.504	1.209	memory	test	test_new	incorrect	task-fractional/runtype-memory/obj332well.png	old	n/a
282.422	1.105	memory	test	test_new	correct	task-fractional/runtype-memory/obj222pipe.png	new	n/a
285.306	0.931	memory	test	test_old	correct	task-fractional/runtype-memory/obj058chest.png	old	n/a
288.124	0.802	memory	test	test_old	correct	task-fractional/runtype-memory/obj171lizard.png	old	n/a
290.708	0.802	memory	test	test_new	correct	task-fractional/runtype-memory/obj032boot.png	new	n/a
293.259	0.922	memory	test	test_new	correct	task-fractional/runtype-memory/obj250rope.png	new	n/a
296.227	0.921	memory	test	test_new	correct	task-fractional/runtype-memory/obj175mailbox.png	new	n/a
308.415	1.017	memory	dummy	study_dummy	n/a	task-fractional/runtype-memory/obj050cannon.png	n/a	n/a
310.465	1.017	memory	dummy	study_dummy	n/a	task-fractional/runtype-memory/obj069corn.png	n/a	n/a
312.499	1.017	memory	dummy	study_dummy	n/a	task-fractional/runtype-memory/obj140hinge.png	n/a	n/a
314.55	1.017	memory	study	study	n/a	task-fractional/runtype-memory/obj127hair.png	n/a	n/a
316.584	1.017	memory	study	study	n/a	task-fractional/runtype-memory/obj265shoe.png	n/a	n/a
318.618	1.017	memory	study	study	n/a	task-fractional/runtype-memory/obj322unicycle.png	n/a	n/a
320.653	1.017	memory	study	study	n/a	task-fractional/runtype-memory/obj072crab.png	n/a	n/a
322.687	1.017	memory	study	study	n/a	task-fractional/runtype-memory/obj264shark.png	n/a	n/a
324.721	1.017	memory	study	study	n/a	task-fractional/runtype-memory/obj134hat.png	n/a	n/a
326.755	1.017	memory	study	study	n/a	task-fractional/runtype-memory/obj133harp.png	n/a	n/a
328.789	1.017	memory	study	study	n/a	task-fractional/runtype-memory/obj218pig.png	n/a	n/a
330.823	1.017	memory	study	study	n/a	task-fractional/runtype-memory/obj077deer.png	n/a	n/a
332.857	1.017	memory	study	study	n/a	task-fractional/runtype-memory/obj197nurse.png	n/a	n/a
334.891	1.034	memory	study	study	n/a	task-fractional/runtype-memory/obj085donkey.png	n/a	n/a
336.942	1.017	memory	study	study	n/a	task-fractional/runtype-memory/obj080diaper.png	n/a	n/a
338.976	1.017	memory	study	study	n/a	task-fractional/runtype-memory/obj090drum.png	n/a	n/a
341.01	1.017	memory	study	study	n/a	task-fractional/runtype-memory/obj150jar.png	n/a	n/a
343.044	1.017	memory	study	study	n/a	task-fractional/runtype-memory/obj228porcupine.png	n/a	n/a
345.078	1.017	memory	study	study	n/a	task-fractional/runtype-memory/obj194nest.png	n/a	n/a
347.112	1.034	memory	study	study	n/a	task-fractional/runtype-memory/obj308toothbrush.png	n/a	n/a
349.163	1.034	memory	study	study	n/a	task-fractional/runtype-memory/obj023belt.png	n/a	n/a
351.214	1.017	memory	study	study	n/a	task-fractional/runtype-memory/obj163leaf.png	n/a	n/a
353.265	1.017	memory	study	study	n/a	task-fractional/runtype-memory/obj193needle.png	n/a	n/a
355.299	1.017	memory	dummy	study_dummy	n/a	task-fractional/runtype-memory/obj203paintbrush.png	n/a	n/a
357.35	1.017	memory	dummy	study_dummy	n/a	task-fractional/runtype-memory/obj215pencilsharpener.png	n/a	n/a
359.4	1.017	memory	dummy	study_dummy	n/a	task-fractional/runtype-memory/obj283spider.png	n/a	n/a
371.505	25.0	memory	distraction_math	math	n/a	n/a	n/a	n/a
399.582	25.0	memory	distraction_math	math	n/a	n/a	n/a	n/a
427.642	25.0	memory	distraction_math	math	n/a	n/a	n/a	n/a
455.703	25.0	memory	distraction_math	math	n/a	n/a	n/a	n/a
489.532	1.069	memory	test	test_new	correct	task-fractional/runtype-memory/obj317turtle.png	new	n/a
492.083	1.33	memory	test	test_new	incorrect	task-fractional/runtype-memory/obj219pillow.png	old	n/a
494.901	0.7	memory	test	test_new	correct	task-fractional/runtype-memory/obj230priest.png	new	n/a
497.552	0.645	memory	test	test_new	correct	task-fractional/runtype-memory/obj117ghost.png	new	n/a
500.103	0.929	memory	test	test_new	incorrect	task-fractional/runtype-memory/obj195net.png	old	n/a
502.704	0.788	memory	test	test_old	correct	task-fractional/runtype-memory/obj127hair.png	old	n/a
505.605	0.654	memory	test	test_old	correct	task-fractional/runtype-memory/obj265shoe.png	old	n/a
508.523	0.829	memory	test	test_new	correct	task-fractional/runtype-memory/obj336wheelchair.png	new	n/a
511.324	0.727	memory	test	test_old	correct	task-fractional/runtype-memory/obj133harp.png	old	n/a
514.141	0.785	memory	test	test_old	correct	task-fractional/runtype-memory/obj308toothbrush.png	old	n/a
517.126	0.603	memory	test	test_old	correct	task-fractional/runtype-memory/obj023belt.png	old	n/a
519.927	0.611	memory	test	test_old	correct	task-fractional/runtype-memory/obj077deer.png	old	n/a
522.628	0.628	memory	test	test_old	correct	task-fractional/runtype-memory/obj090drum.png	old	n/a
525.229	0.608	memory	test	test_old	correct	task-fractional/runtype-memory/obj218pig.png	old	n/a
528.13	0.851	memory	test	test_old	correct	task-fractional/runtype-memory/obj264shark.png	old	n/a
530.731	0.729	memory	test	test_new	correct	task-fractional/runtype-memory/obj141hoof.png	new	n/a
533.749	0.682	memory	test	test_old	correct	task-fractional/runtype-memory/obj163leaf.png	old	n/a
536.4	0.996	memory	test	test_new	correct	task-fractional/runtype-memory/obj311train.png	new	n/a
539.401	0.713	memory	test	test_new	correct	task-fractional/runtype-memory/obj255sailor.png	new	n/a
542.285	0.762	memory	test	test_new	correct	task-fractional/runtype-memory/obj015bandaid.png	new	n/a
544.869	1.313	memory	test	test_old	correct	task-fractional/runtype-memory/obj194nest.png	old	n/a
547.821	0.73	memory	test	test_old	correct	task-fractional/runtype-memory/obj322unicycle.png	old	n/a
550.455	0.839	memory	test	test_new	correct	task-fractional/runtype-memory/obj083dog.png	new	n/a
553.323	0.862	memory	test	test_old	correct	task-fractional/runtype-memory/obj197nurse.png	old	n/a
555.924	0.813	memory	test	test_old	correct	task-fractional/runtype-memory/obj072crab.png	old	n/a
558.858	1.143	memory	test	test_new	correct	task-fractional/runtype-memory/obj182microscope.png	new	n/a
561.509	0.921	memory	test	test_new	incorrect	task-fractional/runtype-memory/obj192nail.png	old	n/a
564.527	1.114	memory	test	test_new	correct	task-fractional/runtype-memory/obj033bottle.png	new	n/a
567.278	1.74	memory	test	test_old	incorrect	task-fractional/runtype-memory/obj228porcupine.png	new	n/a
570.312	0.857	memory	test	test_old	correct	task-fractional/runtype-memory/obj134hat.png	old	n/a
572.913	0.782	memory	test	test_new	correct	task-fractional/runtype-memory/obj170lipstick.png	new	n/a
575.748	0.777	memory	test	test_new	correct	task-fractional/runtype-memory/obj007arrow.png	new	n/a
578.682	0.671	memory	test	test_old	correct	task-fractional/runtype-memory/obj080diaper.png	old	n/a
581.566	0.906	memory	test	test_old	correct	task-fractional/runtype-memory/obj085donkey.png	old	n/a
584.184	0.78	memory	test	test_new	correct	task-fractional/runtype-memory/obj145house.png	new	n/a
586.785	1.0	memory	test	test_old	correct	task-fractional/runtype-memory/obj150jar.png	old	n/a
589.703	0.754	memory	test	test_new	correct	task-fractional/runtype-memory/obj276snail.png	new	n/a
592.471	1.012	memory	test	test_old	correct	task-fractional/runtype-memory/obj193needle.png	old	n/a
595.388	0.747	memory	test	test_new	correct	task-fractional/runtype-memory/obj084dolphin.png	new	n/a
598.373	0.925	memory	test	test_new	correct	task-fractional/runtype-memory/obj049cane.png	new	n/a
