onset	duration	run_type	trial_type	trial_index	cue	stimulusintensity	rating_value	rating_glmslabel	rating_value_fillna	rating_glmslabel_fillna	rating_mouseonset	rating_mousedur	stim_file	pain_onset_ttl1	pain_onset_ttl2	pain_onset_ttl3	pain_onset_ttl4	pain_stimulus_delivery_success	cognitive_correct_response	cognitive_participant_response	cognitive_response_accuracy
5.38	1.0	pain	cue	1	high_cue	n/a	n/a	n/a	n/a	n/a	n/a	n/a	task-social/cue/runtype-pain/sch/h006.png	n/a	n/a	n/a	n/a	n/a	n/a	n/a	n/a
8.19	1.26	pain	expectrating	1	high_cue	n/a	0	n/a	0	n/a	0.38	0.87	task-social/cue/runtype-pain/sch/h006.png	n/a	n/a	n/a	n/a	n/a	n/a	n/a	n/a
17.01	11.91	pain	stimulus	1	high_cue	low_stim	n/a	n/a	n/a	n/a	n/a	n/a	n/a	17.01	20.51	25.51	28.91	fail	n/a	n/a	n/a
30.29	2.58	pain	outcomerating	1	high_cue	low_stim	0	n/a	0	n/a	0.67	1.92	task-social/outcomerating/task-pain_scale.png	n/a	n/a	n/a	n/a	fail	n/a	n/a	n/a
35.07	1.0	pain	cue	2	high_cue	n/a	n/a	n/a	n/a	n/a	n/a	n/a	task-social/cue/runtype-pain/sch/h004.png	n/a	n/a	n/a	n/a	n/a	n/a	n/a	n/a
37.49	1.62	pain	expectrating	2	high_cue	n/a	0	n/a	0	n/a	0.43	1.18	task-social/cue/runtype-pain/sch/h004.png	n/a	n/a	n/a	n/a	n/a	n/a	n/a	n/a
46.32	12.82	pain	stimulus	2	high_cue	high_stim	n/a	n/a	n/a	n/a	n/a	n/a	n/a	46.32	50.33	55.33	59.14	fail	n/a	n/a	n/a
58.78	3.02	pain	outcomerating	2	high_cue	high_stim	0	n/a	0	n/a	0.65	2.37	task-social/outcomerating/task-pain_scale.png	n/a	n/a	n/a	n/a	fail	n/a	n/a	n/a
68.68	0.98	pain	cue	3	high_cue	n/a	n/a	n/a	n/a	n/a	n/a	n/a	task-social/cue/runtype-pain/sch/h012.png	n/a	n/a	n/a	n/a	n/a	n/a	n/a	n/a
71.08	1.53	pain	expectrating	3	high_cue	n/a	0	n/a	0	n/a	0.37	1.17	task-social/cue/runtype-pain/sch/h012.png	n/a	n/a	n/a	n/a	n/a	n/a	n/a	n/a
79.43	12.36	pain	stimulus	3	high_cue	med_stim	n/a	n/a	n/a	n/a	n/a	n/a	n/a	79.43	83.19	88.19	91.8	fail	n/a	n/a	n/a
91.88	1.89	pain	outcomerating	3	high_cue	med_stim	0	n/a	0	n/a	0.43	1.46	task-social/outcomerating/task-pain_scale.png	n/a	n/a	n/a	n/a	fail	n/a	n/a	n/a
96.58	1.0	pain	cue	4	low_cue	n/a	n/a	n/a	n/a	n/a	n/a	n/a	task-social/cue/runtype-pain/scl/l013.png	n/a	n/a	n/a	n/a	n/a	n/a	n/a	n/a
98.08	1.46	pain	expectrating	4	low_cue	n/a	0	n/a	0	n/a	0.52	0.94	task-social/cue/runtype-pain/scl/l013.png	n/a	n/a	n/a	n/a	n/a	n/a	n/a	n/a
103.71	11.900000000000006	pain	stimulus	4	low_cue	low_stim	n/a	n/a	n/a	n/a	n/a	n/a	n/a	103.71	107.21	112.21	115.61	fail	n/a	n/a	n/a
117.69	2.5	pain	outcomerating	4	low_cue	low_stim	0	n/a	0	n/a	0.77	1.73	task-social/outcomerating/task-pain_scale.png	n/a	n/a	n/a	n/a	fail	n/a	n/a	n/a
123.97	1.0	pain	cue	5	high_cue	n/a	n/a	n/a	n/a	n/a	n/a	n/a	task-social/cue/runtype-pain/sch/h024.png	n/a	n/a	n/a	n/a	n/a	n/a	n/a	n/a
126.77	1.97	pain	expectrating	5	high_cue	n/a	0	n/a	0	n/a	0.35	1.62	task-social/cue/runtype-pain/sch/h024.png	n/a	n/a	n/a	n/a	n/a	n/a	n/a	n/a
132.42	12.820000000000022	pain	stimulus	5	high_cue	high_stim	n/a	n/a	n/a	n/a	n/a	n/a	n/a	132.42	136.43	141.43	145.24	fail	n/a	n/a	n/a
151.68	2.15	pain	outcomerating	5	high_cue	high_stim	0	n/a	0	n/a	0.57	1.59	task-social/outcomerating/task-pain_scale.png	n/a	n/a	n/a	n/a	fail	n/a	n/a	n/a
167.27	1.0	pain	cue	6	high_cue	n/a	n/a	n/a	n/a	n/a	n/a	n/a	task-social/cue/runtype-pain/sch/h020.png	n/a	n/a	n/a	n/a	n/a	n/a	n/a	n/a
170.07	1.78	pain	expectrating	6	high_cue	n/a	0	n/a	0	n/a	0.43	1.35	task-social/cue/runtype-pain/sch/h020.png	n/a	n/a	n/a	n/a	n/a	n/a	n/a	n/a
178.5	11.900000000000006	pain	stimulus	6	high_cue	low_stim	n/a	n/a	n/a	n/a	n/a	n/a	n/a	178.5	182.0	187.0	190.4	fail	n/a	n/a	n/a
192.88	1.52	pain	outcomerating	6	high_cue	low_stim	0	n/a	0	n/a	0.43	1.09	task-social/outcomerating/task-pain_scale.png	n/a	n/a	n/a	n/a	fail	n/a	n/a	n/a
203.28	0.98	pain	cue	7	low_cue	n/a	n/a	n/a	n/a	n/a	n/a	n/a	task-social/cue/runtype-pain/scl/l036.png	n/a	n/a	n/a	n/a	n/a	n/a	n/a	n/a
205.18	1.77	pain	expectrating	7	low_cue	n/a	0	n/a	0	n/a	0.47	1.3	task-social/cue/runtype-pain/scl/l036.png	n/a	n/a	n/a	n/a	n/a	n/a	n/a	n/a
218.6	12.360000000000014	pain	stimulus	7	low_cue	med_stim	n/a	n/a	n/a	n/a	n/a	n/a	n/a	218.6	222.36	227.36	230.97	fail	n/a	n/a	n/a
228.68	2.08	pain	outcomerating	7	low_cue	med_stim	0	n/a	0	n/a	0.53	1.54	task-social/outcomerating/task-pain_scale.png	n/a	n/a	n/a	n/a	fail	n/a	n/a	n/a
238.68	1.0	pain	cue	8	low_cue	n/a	n/a	n/a	n/a	n/a	n/a	n/a	task-social/cue/runtype-pain/scl/l016.png	n/a	n/a	n/a	n/a	n/a	n/a	n/a	n/a
241.88	2.09	pain	expectrating	8	low_cue	n/a	0	n/a	0	n/a	0.37	1.72	task-social/cue/runtype-pain/scl/l016.png	n/a	n/a	n/a	n/a	n/a	n/a	n/a	n/a
254.89	12.819999999999993	pain	stimulus	8	low_cue	high_stim	n/a	n/a	n/a	n/a	n/a	n/a	n/a	254.89	258.9	263.9	267.71	fail	n/a	n/a	n/a
267.78	2.21	pain	outcomerating	8	low_cue	high_stim	0	n/a	0	n/a	0.55	1.66	task-social/outcomerating/task-pain_scale.png	n/a	n/a	n/a	n/a	fail	n/a	n/a	n/a
276.88	1.0	pain	cue	9	low_cue	n/a	n/a	n/a	n/a	n/a	n/a	n/a	task-social/cue/runtype-pain/scl/l002.png	n/a	n/a	n/a	n/a	n/a	n/a	n/a	n/a
280.08	2.14	pain	expectrating	9	low_cue	n/a	0	n/a	0	n/a	0.58	1.56	task-social/cue/runtype-pain/scl/l002.png	n/a	n/a	n/a	n/a	n/a	n/a	n/a	n/a
288.53	12.360000000000014	pain	stimulus	9	low_cue	med_stim	n/a	n/a	n/a	n/a	n/a	n/a	n/a	288.53	292.29	297.29	300.9	fail	n/a	n/a	n/a
305.67	2.38	pain	outcomerating	9	low_cue	med_stim	0	n/a	0	n/a	0.42	1.97	task-social/outcomerating/task-pain_scale.png	n/a	n/a	n/a	n/a	fail	n/a	n/a	n/a
312.28	1.0	pain	cue	10	low_cue	n/a	n/a	n/a	n/a	n/a	n/a	n/a	task-social/cue/runtype-pain/scl/l028.png	n/a	n/a	n/a	n/a	n/a	n/a	n/a	n/a
315.08	2.01	pain	expectrating	10	low_cue	n/a	0	n/a	0	n/a	0.98	1.03	task-social/cue/runtype-pain/scl/l028.png	n/a	n/a	n/a	n/a	n/a	n/a	n/a	n/a
323.41	11.899999999999977	pain	stimulus	10	low_cue	low_stim	n/a	n/a	n/a	n/a	n/a	n/a	n/a	323.41	326.91	331.91	335.31	fail	n/a	n/a	n/a
335.58	2.22	pain	outcomerating	10	low_cue	low_stim	0	n/a	0	n/a	0.6	1.62	task-social/outcomerating/task-pain_scale.png	n/a	n/a	n/a	n/a	fail	n/a	n/a	n/a
347.37	1.0	pain	cue	11	high_cue	n/a	n/a	n/a	n/a	n/a	n/a	n/a	task-social/cue/runtype-pain/sch/h041.png	n/a	n/a	n/a	n/a	n/a	n/a	n/a	n/a
349.07	1.33	pain	expectrating	11	high_cue	n/a	0	n/a	0	n/a	0.32	1.02	task-social/cue/runtype-pain/sch/h041.png	n/a	n/a	n/a	n/a	n/a	n/a	n/a	n/a
354.74	12.360000000000014	pain	stimulus	11	high_cue	med_stim	n/a	n/a	n/a	n/a	n/a	n/a	n/a	354.74	358.5	363.5	367.11	fail	n/a	n/a	n/a
366.88	2.26	pain	outcomerating	11	high_cue	med_stim	0	n/a	0	n/a	0.72	1.54	task-social/outcomerating/task-pain_scale.png	n/a	n/a	n/a	n/a	fail	n/a	n/a	n/a
373.18	1.0	pain	cue	12	low_cue	n/a	n/a	n/a	n/a	n/a	n/a	n/a	task-social/cue/runtype-pain/scl/l038.png	n/a	n/a	n/a	n/a	n/a	n/a	n/a	n/a
375.68	3.5	pain	expectrating	12	low_cue	n/a	0	n/a	0	n/a	0.4	3.1	task-social/cue/runtype-pain/scl/l038.png	n/a	n/a	n/a	n/a	n/a	n/a	n/a	n/a
383.62	12.819999999999993	pain	stimulus	12	low_cue	high_stim	n/a	n/a	n/a	n/a	n/a	n/a	n/a	383.62	387.63	392.63	396.44	fail	n/a	n/a	n/a
394.77	2.15	pain	outcomerating	12	low_cue	high_stim	0	n/a	0	n/a	0.52	1.63	task-social/outcomerating/task-pain_scale.png	n/a	n/a	n/a	n/a	fail	n/a	n/a	n/a
