onset	duration	run_type	trial_type	trial_index	cue	stimulusintensity	rating_value	rating_glmslabel	rating_value_fillna	rating_glmslabel_fillna	rating_mouseonset	rating_mousedur	stim_file	pain_onset_ttl1	pain_onset_ttl2	pain_onset_ttl3	pain_onset_ttl4	pain_stimulus_delivery_success	cognitive_correct_response	cognitive_participant_response	cognitive_response_accuracy
4.69	1.0	pain	cue	1	high_cue	n/a	n/a	n/a	n/a	n/a	n/a	n/a	task-social/cue/runtype-pain/sch/h014.png	n/a	n/a	n/a	n/a	n/a	n/a	n/a	n/a
7.12	2.75	pain	expectrating	1	high_cue	n/a	0	n/a	0	n/a	0.65	2.1	task-social/cue/runtype-pain/sch/h014.png	n/a	n/a	n/a	n/a	n/a	n/a	n/a	n/a
15.75	11.899999999999999	pain	stimulus	1	high_cue	low_stim	n/a	n/a	n/a	n/a	n/a	n/a	n/a	15.75	19.25	24.25	27.65	fail	n/a	n/a	n/a
27.09	3.02	pain	outcomerating	1	high_cue	low_stim	0	n/a	0	n/a	0.35	2.67	task-social/outcomerating/task-pain_scale.png	n/a	n/a	n/a	n/a	fail	n/a	n/a	n/a
33.0	1.0	pain	cue	2	low_cue	n/a	n/a	n/a	n/a	n/a	n/a	n/a	task-social/cue/runtype-pain/scl/l010.png	n/a	n/a	n/a	n/a	n/a	n/a	n/a	n/a
34.8	3.11	pain	expectrating	2	low_cue	n/a	0	n/a	0	n/a	0.45	2.66	task-social/cue/runtype-pain/scl/l010.png	n/a	n/a	n/a	n/a	n/a	n/a	n/a	n/a
39.95	11.899999999999999	pain	stimulus	2	low_cue	low_stim	n/a	n/a	n/a	n/a	n/a	n/a	n/a	39.95	43.45	48.45	51.85	fail	n/a	n/a	n/a
53.09	3.03	pain	outcomerating	2	low_cue	low_stim	0	n/a	0	n/a	0.52	2.52	task-social/outcomerating/task-pain_scale.png	n/a	n/a	n/a	n/a	fail	n/a	n/a	n/a
57.99	1.0	pain	cue	3	low_cue	n/a	n/a	n/a	n/a	n/a	n/a	n/a	task-social/cue/runtype-pain/scl/l053.png	n/a	n/a	n/a	n/a	n/a	n/a	n/a	n/a
60.09	2.0	pain	expectrating	3	low_cue	n/a	0	n/a	0	n/a	0.17	1.83	task-social/cue/runtype-pain/scl/l053.png	n/a	n/a	n/a	n/a	n/a	n/a	n/a	n/a
66.72	12.370000000000005	pain	stimulus	3	low_cue	med_stim	n/a	n/a	n/a	n/a	n/a	n/a	n/a	66.72	70.48	75.48	79.09	fail	n/a	n/a	n/a
78.3	2.54	pain	outcomerating	3	low_cue	med_stim	0	n/a	0	n/a	0.52	2.02	task-social/outcomerating/task-pain_scale.png	n/a	n/a	n/a	n/a	fail	n/a	n/a	n/a
83.38	1.0	pain	cue	4	low_cue	n/a	n/a	n/a	n/a	n/a	n/a	n/a	task-social/cue/runtype-pain/scl/l034.png	n/a	n/a	n/a	n/a	n/a	n/a	n/a	n/a
86.48	1.87	pain	expectrating	4	low_cue	n/a	0	n/a	0	n/a	0.37	1.5	task-social/cue/runtype-pain/scl/l034.png	n/a	n/a	n/a	n/a	n/a	n/a	n/a	n/a
99.94	12.829999999999998	pain	stimulus	4	low_cue	high_stim	n/a	n/a	n/a	n/a	n/a	n/a	n/a	99.94	103.95	108.95	112.76	fail	n/a	n/a	n/a
111.19	1.88	pain	outcomerating	4	low_cue	high_stim	0	n/a	0	n/a	0.52	1.37	task-social/outcomerating/task-pain_scale.png	n/a	n/a	n/a	n/a	fail	n/a	n/a	n/a
115.79	1.0	pain	cue	5	high_cue	n/a	n/a	n/a	n/a	n/a	n/a	n/a	task-social/cue/runtype-pain/sch/h053.png	n/a	n/a	n/a	n/a	n/a	n/a	n/a	n/a
118.19	2.04	pain	expectrating	5	high_cue	n/a	0	n/a	0	n/a	0.53	1.51	task-social/cue/runtype-pain/sch/h053.png	n/a	n/a	n/a	n/a	n/a	n/a	n/a	n/a
123.63	12.370000000000005	pain	stimulus	5	high_cue	med_stim	n/a	n/a	n/a	n/a	n/a	n/a	n/a	123.63	127.39	132.39	136.0	fail	n/a	n/a	n/a
134.88	1.97	pain	outcomerating	5	high_cue	med_stim	0	n/a	0	n/a	0.42	1.55	task-social/outcomerating/task-pain_scale.png	n/a	n/a	n/a	n/a	fail	n/a	n/a	n/a
139.59	1.0	pain	cue	6	high_cue	n/a	n/a	n/a	n/a	n/a	n/a	n/a	task-social/cue/runtype-pain/sch/h009.png	n/a	n/a	n/a	n/a	n/a	n/a	n/a	n/a
141.69	2.48	pain	expectrating	6	high_cue	n/a	0	n/a	0	n/a	0.47	2.02	task-social/cue/runtype-pain/sch/h009.png	n/a	n/a	n/a	n/a	n/a	n/a	n/a	n/a
151.22	12.819999999999993	pain	stimulus	6	high_cue	high_stim	n/a	n/a	n/a	n/a	n/a	n/a	n/a	151.22	155.23	160.23	164.04	fail	n/a	n/a	n/a
161.59	2.52	pain	outcomerating	6	high_cue	high_stim	0	n/a	0	n/a	0.55	1.97	task-social/outcomerating/task-pain_scale.png	n/a	n/a	n/a	n/a	fail	n/a	n/a	n/a
167.58	1.0	pain	cue	7	high_cue	n/a	n/a	n/a	n/a	n/a	n/a	n/a	task-social/cue/runtype-pain/sch/h001.png	n/a	n/a	n/a	n/a	n/a	n/a	n/a	n/a
169.7	2.14	pain	expectrating	7	high_cue	n/a	0	n/a	0	n/a	0.38	1.75	task-social/cue/runtype-pain/sch/h001.png	n/a	n/a	n/a	n/a	n/a	n/a	n/a	n/a
180.53	11.900000000000006	pain	stimulus	7	high_cue	low_stim	n/a	n/a	n/a	n/a	n/a	n/a	n/a	180.53	184.03	189.03	192.43	fail	n/a	n/a	n/a
201.69	2.85	pain	outcomerating	7	high_cue	low_stim	0	n/a	0	n/a	0.6	2.25	task-social/outcomerating/task-pain_scale.png	n/a	n/a	n/a	n/a	fail	n/a	n/a	n/a
213.38	1.0	pain	cue	8	high_cue	n/a	n/a	n/a	n/a	n/a	n/a	n/a	task-social/cue/runtype-pain/sch/h044.png	n/a	n/a	n/a	n/a	n/a	n/a	n/a	n/a
215.5	2.04	pain	expectrating	8	high_cue	n/a	0	n/a	0	n/a	0.78	1.25	task-social/cue/runtype-pain/sch/h044.png	n/a	n/a	n/a	n/a	n/a	n/a	n/a	n/a
224.61	12.819999999999993	pain	stimulus	8	high_cue	high_stim	n/a	n/a	n/a	n/a	n/a	n/a	n/a	224.61	228.62	233.62	237.43	fail	n/a	n/a	n/a
239.19	2.32	pain	outcomerating	8	high_cue	high_stim	0	n/a	0	n/a	0.57	1.75	task-social/outcomerating/task-pain_scale.png	n/a	n/a	n/a	n/a	fail	n/a	n/a	n/a
244.09	1.0	pain	cue	9	low_cue	n/a	n/a	n/a	n/a	n/a	n/a	n/a	task-social/cue/runtype-pain/scl/l051.png	n/a	n/a	n/a	n/a	n/a	n/a	n/a	n/a
247.19	1.93	pain	expectrating	9	low_cue	n/a	0	n/a	0	n/a	0.23	1.7	task-social/cue/runtype-pain/scl/l051.png	n/a	n/a	n/a	n/a	n/a	n/a	n/a	n/a
255.81	11.899999999999977	pain	stimulus	9	low_cue	low_stim	n/a	n/a	n/a	n/a	n/a	n/a	n/a	255.81	259.31	264.31	267.71	fail	n/a	n/a	n/a
269.08	2.13	pain	outcomerating	9	low_cue	low_stim	0	n/a	0	n/a	0.53	1.6	task-social/outcomerating/task-pain_scale.png	n/a	n/a	n/a	n/a	fail	n/a	n/a	n/a
275.09	1.0	pain	cue	10	low_cue	n/a	n/a	n/a	n/a	n/a	n/a	n/a	task-social/cue/runtype-pain/scl/l019.png	n/a	n/a	n/a	n/a	n/a	n/a	n/a	n/a
278.19	1.75	pain	expectrating	10	low_cue	n/a	0	n/a	0	n/a	0.5	1.25	task-social/cue/runtype-pain/scl/l019.png	n/a	n/a	n/a	n/a	n/a	n/a	n/a	n/a
283.32	12.360000000000014	pain	stimulus	10	low_cue	med_stim	n/a	n/a	n/a	n/a	n/a	n/a	n/a	283.32	287.08	292.08	295.69	fail	n/a	n/a	n/a
296.5	2.87	pain	outcomerating	10	low_cue	med_stim	0	n/a	0	n/a	0.4	2.47	task-social/outcomerating/task-pain_scale.png	n/a	n/a	n/a	n/a	fail	n/a	n/a	n/a
317.59	1.0	pain	cue	11	low_cue	n/a	n/a	n/a	n/a	n/a	n/a	n/a	task-social/cue/runtype-pain/scl/l052.png	n/a	n/a	n/a	n/a	n/a	n/a	n/a	n/a
319.99	1.95	pain	expectrating	11	low_cue	n/a	0	n/a	0	n/a	0.43	1.52	task-social/cue/runtype-pain/scl/l052.png	n/a	n/a	n/a	n/a	n/a	n/a	n/a	n/a
329.63	12.819999999999993	pain	stimulus	11	low_cue	high_stim	n/a	n/a	n/a	n/a	n/a	n/a	n/a	329.63	333.64	338.64	342.45	fail	n/a	n/a	n/a
341.3	3.46	pain	outcomerating	11	low_cue	high_stim	0	n/a	0	n/a	0.38	3.07	task-social/outcomerating/task-pain_scale.png	n/a	n/a	n/a	n/a	fail	n/a	n/a	n/a
362.29	1.0	pain	cue	12	high_cue	n/a	n/a	n/a	n/a	n/a	n/a	n/a	task-social/cue/runtype-pain/sch/h039.png	n/a	n/a	n/a	n/a	n/a	n/a	n/a	n/a
365.39	1.95	pain	expectrating	12	high_cue	n/a	0	n/a	0	n/a	0.35	1.6	task-social/cue/runtype-pain/sch/h039.png	n/a	n/a	n/a	n/a	n/a	n/a	n/a	n/a
375.51	12.370000000000005	pain	stimulus	12	high_cue	med_stim	n/a	n/a	n/a	n/a	n/a	n/a	n/a	375.51	379.27	384.27	387.88	fail	n/a	n/a	n/a
394.1	3.25	pain	outcomerating	12	high_cue	med_stim	0	n/a	0	n/a	0.35	2.9	task-social/outcomerating/task-pain_scale.png	n/a	n/a	n/a	n/a	fail	n/a	n/a	n/a
