onset	duration	run_type	trial_type	trial_index	cue	stimulusintensity	rating_value	rating_glmslabel	rating_value_fillna	rating_glmslabel_fillna	rating_mouseonset	rating_mousedur	stim_file	pain_onset_ttl1	pain_onset_ttl2	pain_onset_ttl3	pain_onset_ttl4	pain_stimulus_delivery_success	cognitive_correct_response	cognitive_participant_response	cognitive_response_accuracy
7.91	0.98	vicarious	cue	1	high_cue	n/a	n/a	n/a	n/a	n/a	n/a	n/a	task-social/cue/runtype-vicarious/sch/h040.png	n/a	n/a	n/a	n/a	n/a	n/a	n/a	n/a
10.12	1.78	vicarious	expectrating	1	high_cue	n/a	38.98	Strong	38.98	Strong	0.68	1.1	task-social/cue/runtype-vicarious/sch/h040.png	n/a	n/a	n/a	n/a	n/a	n/a	n/a	n/a
20.79	5.0	vicarious	stimulus	1	high_cue	low_stim	n/a	n/a	n/a	n/a	n/a	n/a	task-social/stim/runtype-vicarious/vw121t1aeaff_L.mp4	n/a	n/a	n/a	n/a	n/a	n/a	n/a	n/a
33.02	2.22	vicarious	outcomerating	1	high_cue	low_stim	12.3	Moderate	12.3	Moderate	0.68	1.1	task-social/outcomerating/task-vicarious_scale.png	n/a	n/a	n/a	n/a	n/a	n/a	n/a	n/a
37.6	0.98	vicarious	cue	2	low_cue	n/a	n/a	n/a	n/a	n/a	n/a	n/a	task-social/cue/runtype-vicarious/scl/l054.png	n/a	n/a	n/a	n/a	n/a	n/a	n/a	n/a
40.0	1.87	vicarious	expectrating	2	low_cue	n/a	16.04	Moderate	16.04	Moderate	0.82	1.06	task-social/cue/runtype-vicarious/scl/l054.png	n/a	n/a	n/a	n/a	n/a	n/a	n/a	n/a
47.39	5.0	vicarious	stimulus	2	low_cue	med_stim	n/a	n/a	n/a	n/a	n/a	n/a	task-social/stim/runtype-vicarious/jh043t2aeunaff_M.mp4	n/a	n/a	n/a	n/a	n/a	n/a	n/a	n/a
57.51	1.45	vicarious	outcomerating	2	low_cue	med_stim	40.28	Strong	40.28	Strong	0.82	1.06	task-social/outcomerating/task-vicarious_scale.png	n/a	n/a	n/a	n/a	n/a	n/a	n/a	n/a
66.7	0.99	vicarious	cue	3	high_cue	n/a	n/a	n/a	n/a	n/a	n/a	n/a	task-social/cue/runtype-vicarious/sch/h003.png	n/a	n/a	n/a	n/a	n/a	n/a	n/a	n/a
68.9	2.47	vicarious	expectrating	3	high_cue	n/a	31.21	Strong	31.21	Strong	1.28	1.18	task-social/cue/runtype-vicarious/sch/h003.png	n/a	n/a	n/a	n/a	n/a	n/a	n/a	n/a
81.89	5.0	vicarious	stimulus	3	high_cue	low_stim	n/a	n/a	n/a	n/a	n/a	n/a	task-social/stim/runtype-vicarious/ib109t1aiunaff_L.mp4	n/a	n/a	n/a	n/a	n/a	n/a	n/a	n/a
90.4	1.7	vicarious	outcomerating	3	high_cue	low_stim	17.24	Moderate	17.24	Moderate	1.28	1.18	task-social/outcomerating/task-vicarious_scale.png	n/a	n/a	n/a	n/a	n/a	n/a	n/a	n/a
95.49	1.0	vicarious	cue	4	low_cue	n/a	n/a	n/a	n/a	n/a	n/a	n/a	task-social/cue/runtype-vicarious/scl/l045.png	n/a	n/a	n/a	n/a	n/a	n/a	n/a	n/a
99.01	0.97	vicarious	expectrating	4	low_cue	n/a	0.69	No sensation	0.69	No sensation	0.4	0.57	task-social/cue/runtype-vicarious/scl/l045.png	n/a	n/a	n/a	n/a	n/a	n/a	n/a	n/a
107.59	5.0	vicarious	stimulus	4	low_cue	med_stim	n/a	n/a	n/a	n/a	n/a	n/a	task-social/stim/runtype-vicarious/jl047t1aiunaff_M.mp4	n/a	n/a	n/a	n/a	n/a	n/a	n/a	n/a
120.82	2.62	vicarious	outcomerating	4	low_cue	med_stim	10.3	Moderate	10.3	Moderate	0.4	0.57	task-social/outcomerating/task-vicarious_scale.png	n/a	n/a	n/a	n/a	n/a	n/a	n/a	n/a
125.9	0.98	vicarious	cue	5	high_cue	n/a	n/a	n/a	n/a	n/a	n/a	n/a	task-social/cue/runtype-vicarious/sch/h054.png	n/a	n/a	n/a	n/a	n/a	n/a	n/a	n/a
127.62	1.57	vicarious	expectrating	5	high_cue	n/a	41.1	Strong	41.1	Strong	0.58	0.99	task-social/cue/runtype-vicarious/sch/h054.png	n/a	n/a	n/a	n/a	n/a	n/a	n/a	n/a
134.19	5.0	vicarious	stimulus	5	high_cue	high_stim	n/a	n/a	n/a	n/a	n/a	n/a	task-social/stim/runtype-vicarious/ch092t2aiaff_H.mp4	n/a	n/a	n/a	n/a	n/a	n/a	n/a	n/a
147.41	1.67	vicarious	outcomerating	5	high_cue	high_stim	22.38	Moderate	22.38	Moderate	0.58	0.99	task-social/outcomerating/task-vicarious_scale.png	n/a	n/a	n/a	n/a	n/a	n/a	n/a	n/a
151.99	0.99	vicarious	cue	6	low_cue	n/a	n/a	n/a	n/a	n/a	n/a	n/a	task-social/cue/runtype-vicarious/scl/l029.png	n/a	n/a	n/a	n/a	n/a	n/a	n/a	n/a
155.5	2.05	vicarious	expectrating	6	low_cue	n/a	13.52	Moderate	13.52	Moderate	0.12	1.93	task-social/cue/runtype-vicarious/scl/l029.png	n/a	n/a	n/a	n/a	n/a	n/a	n/a	n/a
169.69	5.0	vicarious	stimulus	6	low_cue	low_stim	n/a	n/a	n/a	n/a	n/a	n/a	task-social/stim/runtype-vicarious/mg066t2aeunaff_L.mp4	n/a	n/a	n/a	n/a	n/a	n/a	n/a	n/a
181.91	2.37	vicarious	outcomerating	6	low_cue	low_stim	13.13	Moderate	13.13	Moderate	0.12	1.93	task-social/outcomerating/task-vicarious_scale.png	n/a	n/a	n/a	n/a	n/a	n/a	n/a	n/a
187.49	0.99	vicarious	cue	7	low_cue	n/a	n/a	n/a	n/a	n/a	n/a	n/a	task-social/cue/runtype-vicarious/scl/l001.png	n/a	n/a	n/a	n/a	n/a	n/a	n/a	n/a
189.71	2.5	vicarious	expectrating	7	low_cue	n/a	4.67	Weak	4.67	Weak	0.45	2.05	task-social/cue/runtype-vicarious/scl/l001.png	n/a	n/a	n/a	n/a	n/a	n/a	n/a	n/a
203.89	5.0	vicarious	stimulus	7	low_cue	high_stim	n/a	n/a	n/a	n/a	n/a	n/a	task-social/stim/runtype-vicarious/jl047t1aiaff_H.mp4	n/a	n/a	n/a	n/a	n/a	n/a	n/a	n/a
217.2	1.74	vicarious	outcomerating	7	low_cue	high_stim	22.74	Moderate	22.74	Moderate	0.45	2.05	task-social/outcomerating/task-vicarious_scale.png	n/a	n/a	n/a	n/a	n/a	n/a	n/a	n/a
223.4	0.98	vicarious	cue	8	low_cue	n/a	n/a	n/a	n/a	n/a	n/a	n/a	task-social/cue/runtype-vicarious/scl/l042.png	n/a	n/a	n/a	n/a	n/a	n/a	n/a	n/a
225.6	2.27	vicarious	expectrating	8	low_cue	n/a	5.09	Weak	5.09	Weak	0.87	1.4	task-social/cue/runtype-vicarious/scl/l042.png	n/a	n/a	n/a	n/a	n/a	n/a	n/a	n/a
232.19	5.0	vicarious	stimulus	8	low_cue	low_stim	n/a	n/a	n/a	n/a	n/a	n/a	task-social/stim/runtype-vicarious/ch092t2aeaff_L.mp4	n/a	n/a	n/a	n/a	n/a	n/a	n/a	n/a
245.51	1.88	vicarious	outcomerating	8	low_cue	low_stim	6.47	Weak	6.47	Weak	0.87	1.4	task-social/outcomerating/task-vicarious_scale.png	n/a	n/a	n/a	n/a	n/a	n/a	n/a	n/a
259.3	0.98	vicarious	cue	9	high_cue	n/a	n/a	n/a	n/a	n/a	n/a	n/a	task-social/cue/runtype-vicarious/sch/h001.png	n/a	n/a	n/a	n/a	n/a	n/a	n/a	n/a
262.8	1.09	vicarious	expectrating	9	high_cue	n/a	55.7	Strong	55.7	Strong	0.4	0.69	task-social/cue/runtype-vicarious/sch/h001.png	n/a	n/a	n/a	n/a	n/a	n/a	n/a	n/a
271.39	5.0	vicarious	stimulus	9	high_cue	high_stim	n/a	n/a	n/a	n/a	n/a	n/a	task-social/stim/runtype-vicarious/vw121t1aaaff_H.mp4	n/a	n/a	n/a	n/a	n/a	n/a	n/a	n/a
281.51	1.7	vicarious	outcomerating	9	high_cue	high_stim	116.15	Strongest sensation of any kind	116.15	Strongest sensation of any kind	0.4	0.69	task-social/outcomerating/task-vicarious_scale.png	n/a	n/a	n/a	n/a	n/a	n/a	n/a	n/a
291.7	0.99	vicarious	cue	10	low_cue	n/a	n/a	n/a	n/a	n/a	n/a	n/a	task-social/cue/runtype-vicarious/scl/l041.png	n/a	n/a	n/a	n/a	n/a	n/a	n/a	n/a
294.1	2.24	vicarious	expectrating	10	low_cue	n/a	9.01	Weak	9.01	Weak	1.22	1.03	task-social/cue/runtype-vicarious/scl/l041.png	n/a	n/a	n/a	n/a	n/a	n/a	n/a	n/a
301.69	5.0	vicarious	stimulus	10	low_cue	high_stim	n/a	n/a	n/a	n/a	n/a	n/a	task-social/stim/runtype-vicarious/bg096t1aeaff_H.mp4	n/a	n/a	n/a	n/a	n/a	n/a	n/a	n/a
310.2	2.74	vicarious	outcomerating	10	low_cue	high_stim	26.04	Moderate	26.04	Moderate	1.22	1.03	task-social/outcomerating/task-vicarious_scale.png	n/a	n/a	n/a	n/a	n/a	n/a	n/a	n/a
328.69	0.99	vicarious	cue	11	high_cue	n/a	n/a	n/a	n/a	n/a	n/a	n/a	task-social/cue/runtype-vicarious/sch/h033.png	n/a	n/a	n/a	n/a	n/a	n/a	n/a	n/a
331.09	1.98	vicarious	expectrating	11	high_cue	n/a	37.79	Strong	37.79	Strong	0.88	1.1	task-social/cue/runtype-vicarious/sch/h033.png	n/a	n/a	n/a	n/a	n/a	n/a	n/a	n/a
346.79	5.0	vicarious	stimulus	11	high_cue	med_stim	n/a	n/a	n/a	n/a	n/a	n/a	task-social/stim/runtype-vicarious/ch092t2aaaff_M.mp4	n/a	n/a	n/a	n/a	n/a	n/a	n/a	n/a
359.8	2.32	vicarious	outcomerating	11	high_cue	med_stim	21.63	Moderate	21.63	Moderate	0.88	1.1	task-social/outcomerating/task-vicarious_scale.png	n/a	n/a	n/a	n/a	n/a	n/a	n/a	n/a
369.59	0.99	vicarious	cue	12	high_cue	n/a	n/a	n/a	n/a	n/a	n/a	n/a	task-social/cue/runtype-vicarious/sch/h022.png	n/a	n/a	n/a	n/a	n/a	n/a	n/a	n/a
371.61	2.72	vicarious	expectrating	12	high_cue	n/a	65.71	Very Strong	65.71	Very Strong	0.73	1.98	task-social/cue/runtype-vicarious/sch/h022.png	n/a	n/a	n/a	n/a	n/a	n/a	n/a	n/a
384.59	5.0	vicarious	stimulus	12	high_cue	med_stim	n/a	n/a	n/a	n/a	n/a	n/a	task-social/stim/runtype-vicarious/bg096t2aaaff_M.mp4	n/a	n/a	n/a	n/a	n/a	n/a	n/a	n/a
394.82	1.67	vicarious	outcomerating	12	high_cue	med_stim	90.47	Very Strong	90.47	Very Strong	0.73	1.98	task-social/outcomerating/task-vicarious_scale.png	n/a	n/a	n/a	n/a	n/a	n/a	n/a	n/a
