onset	duration	subtask_type	question	event_type	participant_response	normative_response	response_accuracy	stim_file	trial_index
0.082	2.034	tomspunt	reaching?	block_question_presentation	n/a	n/a	n/a	n/a	0
0.082	0.3	tomspunt	reaching?	block_question_presentation	n/a	n/a	n/a	n/a	1
0.082	0.3	tomspunt	reaching?	block_question_presentation	n/a	n/a	n/a	n/a	2
0.082	0.3	tomspunt	reaching?	block_question_presentation	n/a	n/a	n/a	n/a	3
0.082	0.3	tomspunt	reaching?	block_question_presentation	n/a	n/a	n/a	n/a	4
0.082	0.3	tomspunt	reaching?	block_question_presentation	n/a	n/a	n/a	n/a	5
0.082	0.3	tomspunt	reaching?	block_question_presentation	n/a	n/a	n/a	n/a	6
0.082	0.3	tomspunt	reaching?	block_question_presentation	n/a	n/a	n/a	n/a	7
5.026	0.922	tomspunt	reaching?	how_hand	yes	yes	correct	task-tomspunt/H_007.jpg	0
6.26	1.405	tomspunt	reaching?	how_hand	no	no	correct	task-tomspunt/H_532.jpg	1
7.977	1.755	tomspunt	reaching?	how_hand	no	yes	incorrect	task-tomspunt/H_474.jpg	2
10.011	1.403	tomspunt	reaching?	how_hand	no	no	correct	task-tomspunt/H_438.jpg	3
11.729	1.089	tomspunt	reaching?	how_hand	yes	yes	correct	task-tomspunt/H_364.jpg	4
13.129	1.003	tomspunt	reaching?	how_hand	yes	yes	correct	task-tomspunt/H_006.jpg	5
14.446	1.019	tomspunt	reaching?	how_hand	yes	yes	correct	task-tomspunt/H_003.jpg	6
15.78	0.969	tomspunt	reaching?	how_hand	no	no	correct	task-tomspunt/H_132.jpg	7
17.539	2.101	tomspunt	healthy?	block_question_presentation	n/a	n/a	n/a	n/a	8
17.539	0.3	tomspunt	healthy?	block_question_presentation	n/a	n/a	n/a	n/a	9
17.539	0.3	tomspunt	healthy?	block_question_presentation	n/a	n/a	n/a	n/a	10
17.539	0.3	tomspunt	healthy?	block_question_presentation	n/a	n/a	n/a	n/a	11
17.539	0.3	tomspunt	healthy?	block_question_presentation	n/a	n/a	n/a	n/a	12
17.539	0.3	tomspunt	healthy?	block_question_presentation	n/a	n/a	n/a	n/a	13
17.539	0.3	tomspunt	healthy?	block_question_presentation	n/a	n/a	n/a	n/a	14
17.539	0.3	tomspunt	healthy?	block_question_presentation	n/a	n/a	n/a	n/a	15
22.549	0.969	tomspunt	healthy?	why_hand	yes	yes	correct	task-tomspunt/H_627.jpg	8
23.833	1.114	tomspunt	healthy?	why_hand	yes	yes	correct	task-tomspunt/H_438.jpg	9
25.25	1.07	tomspunt	healthy?	why_hand	yes	yes	correct	task-tomspunt/H_364.jpg	10
26.634	1.236	tomspunt	healthy?	why_hand	no	no	correct	task-tomspunt/H_130.jpg	11
28.185	1.086	tomspunt	healthy?	why_hand	yes	yes	correct	task-tomspunt/H_362.jpg	12
29.585	1.112	tomspunt	healthy?	why_hand	yes	no	incorrect	task-tomspunt/H_007.jpg	13
31.003	1.111	tomspunt	healthy?	why_hand	yes	yes	correct	task-tomspunt/H_167.jpg	14
32.42	0.978	tomspunt	healthy?	why_hand	no	no	correct	task-tomspunt/H_019.jpg	15
36.646	2.101	tomspunt	admiring?	block_question_presentation	n/a	n/a	n/a	n/a	16
36.646	0.3	tomspunt	admiring?	block_question_presentation	n/a	n/a	n/a	n/a	17
36.646	0.3	tomspunt	admiring?	block_question_presentation	n/a	n/a	n/a	n/a	18
36.646	0.3	tomspunt	admiring?	block_question_presentation	n/a	n/a	n/a	n/a	19
36.646	0.3	tomspunt	admiring?	block_question_presentation	n/a	n/a	n/a	n/a	20
36.646	0.3	tomspunt	admiring?	block_question_presentation	n/a	n/a	n/a	n/a	21
36.646	0.3	tomspunt	admiring?	block_question_presentation	n/a	n/a	n/a	n/a	22
36.646	0.3	tomspunt	admiring?	block_question_presentation	n/a	n/a	n/a	n/a	23
41.657	0.669	tomspunt	admiring?	why_face	yes	yes	correct	task-tomspunt/F_779.jpg	16
42.64	0.941	tomspunt	admiring?	why_face	yes	yes	correct	task-tomspunt/F_593.jpg	17
43.891	0.907	tomspunt	admiring?	why_face	no	no	correct	task-tomspunt/F_110.jpg	18
45.108	0.874	tomspunt	admiring?	why_face	yes	yes	correct	task-tomspunt/F_590.jpg	19
46.292	1.056	tomspunt	admiring?	why_face	no	no	correct	task-tomspunt/F_692.jpg	20
47.659	0.972	tomspunt	admiring?	why_face	yes	yes	correct	task-tomspunt/F_759.jpg	21
48.943	1.005	tomspunt	admiring?	why_face	yes	yes	correct	task-tomspunt/F_648.jpg	22
50.26	0.988	tomspunt	admiring?	why_face	no	no	correct	task-tomspunt/F_129.jpg	23
55.619	2.101	tomspunt	smiling?	block_question_presentation	n/a	n/a	n/a	n/a	24
55.619	0.3	tomspunt	smiling?	block_question_presentation	n/a	n/a	n/a	n/a	25
55.619	0.3	tomspunt	smiling?	block_question_presentation	n/a	n/a	n/a	n/a	26
55.619	0.3	tomspunt	smiling?	block_question_presentation	n/a	n/a	n/a	n/a	27
55.619	0.3	tomspunt	smiling?	block_question_presentation	n/a	n/a	n/a	n/a	28
55.619	0.3	tomspunt	smiling?	block_question_presentation	n/a	n/a	n/a	n/a	29
55.619	0.3	tomspunt	smiling?	block_question_presentation	n/a	n/a	n/a	n/a	30
55.619	0.3	tomspunt	smiling?	block_question_presentation	n/a	n/a	n/a	n/a	31
60.63	0.936	tomspunt	smiling?	how_face	yes	yes	correct	task-tomspunt/F_139.jpg	24
61.881	0.8	tomspunt	smiling?	how_face	no	no	correct	task-tomspunt/F_712.jpg	25
62.981	0.869	tomspunt	smiling?	how_face	yes	yes	correct	task-tomspunt/F_695.jpg	26
64.165	0.018	tomspunt	smiling?	how_face	yes	no	incorrect	task-tomspunt/F_758.jpg	27
64.498	0.852	tomspunt	smiling?	how_face	yes	yes	correct	task-tomspunt/F_083.jpg	28
65.666	0.869	tomspunt	smiling?	how_face	yes	yes	correct	task-tomspunt/F_759.jpg	29
66.849	0.748	tomspunt	smiling?	how_face	no	no	correct	task-tomspunt/F_412.jpg	30
67.9	0.786	tomspunt	smiling?	how_face	yes	yes	correct	task-tomspunt/F_593.jpg	31
73.143	2.101	tomspunt	lifting?	block_question_presentation	n/a	n/a	n/a	n/a	32
73.143	0.3	tomspunt	lifting?	block_question_presentation	n/a	n/a	n/a	n/a	33
73.143	0.3	tomspunt	lifting?	block_question_presentation	n/a	n/a	n/a	n/a	34
73.143	0.3	tomspunt	lifting?	block_question_presentation	n/a	n/a	n/a	n/a	35
73.143	0.3	tomspunt	lifting?	block_question_presentation	n/a	n/a	n/a	n/a	36
73.143	0.3	tomspunt	lifting?	block_question_presentation	n/a	n/a	n/a	n/a	37
73.143	0.3	tomspunt	lifting?	block_question_presentation	n/a	n/a	n/a	n/a	38
73.143	0.3	tomspunt	lifting?	block_question_presentation	n/a	n/a	n/a	n/a	39
78.154	0.969	tomspunt	lifting?	how_hand	yes	yes	correct	task-tomspunt/H_136.jpg	32
79.437	0.944	tomspunt	lifting?	how_hand	no	no	correct	task-tomspunt/H_038.jpg	33
80.688	1.176	tomspunt	lifting?	how_hand	no	yes	incorrect	task-tomspunt/H_189.jpg	34
82.172	0.993	tomspunt	lifting?	how_hand	no	no	correct	task-tomspunt/H_077.jpg	35
83.472	1.092	tomspunt	lifting?	how_hand	yes	yes	correct	task-tomspunt/H_443.jpg	36
84.873	0.853	tomspunt	lifting?	how_hand	no	no	correct	task-tomspunt/H_012.jpg	37
86.04	0.908	tomspunt	lifting?	how_hand	yes	yes	correct	task-tomspunt/H_362.jpg	38
87.257	0.907	tomspunt	lifting?	how_hand	yes	yes	correct	task-tomspunt/H_170.jpg	39
95.634	2.084	tomspunt	helping?	block_question_presentation	n/a	n/a	n/a	n/a	40
95.634	0.3	tomspunt	helping?	block_question_presentation	n/a	n/a	n/a	n/a	41
95.634	0.3	tomspunt	helping?	block_question_presentation	n/a	n/a	n/a	n/a	42
95.634	0.3	tomspunt	helping?	block_question_presentation	n/a	n/a	n/a	n/a	43
95.634	0.3	tomspunt	helping?	block_question_presentation	n/a	n/a	n/a	n/a	44
95.634	0.3	tomspunt	helping?	block_question_presentation	n/a	n/a	n/a	n/a	45
95.634	0.3	tomspunt	helping?	block_question_presentation	n/a	n/a	n/a	n/a	46
95.634	0.3	tomspunt	helping?	block_question_presentation	n/a	n/a	n/a	n/a	47
100.629	1.152	tomspunt	helping?	why_hand	yes	yes	correct	task-tomspunt/H_077.jpg	40
102.096	0.903	tomspunt	helping?	why_hand	yes	yes	correct	task-tomspunt/H_349.jpg	41
103.313	1.002	tomspunt	helping?	why_hand	yes	yes	correct	task-tomspunt/H_474.jpg	42
104.63	0.936	tomspunt	helping?	why_hand	no	yes	incorrect	task-tomspunt/H_024.jpg	43
105.881	0.886	tomspunt	helping?	why_hand	no	no	correct	task-tomspunt/H_012.jpg	44
107.081	0.936	tomspunt	helping?	why_hand	no	no	correct	task-tomspunt/H_159.jpg	45
108.331	0.92	tomspunt	helping?	why_hand	yes	yes	correct	task-tomspunt/H_111.jpg	46
109.565	0.019	tomspunt	helping?	why_hand	yes	no	incorrect	task-tomspunt/H_091.jpg	47
113.508	2.101	tomspunt	proud?	block_question_presentation	n/a	n/a	n/a	n/a	48
113.508	0.3	tomspunt	proud?	block_question_presentation	n/a	n/a	n/a	n/a	49
113.508	0.3	tomspunt	proud?	block_question_presentation	n/a	n/a	n/a	n/a	50
113.508	0.3	tomspunt	proud?	block_question_presentation	n/a	n/a	n/a	n/a	51
113.508	0.3	tomspunt	proud?	block_question_presentation	n/a	n/a	n/a	n/a	52
113.508	0.3	tomspunt	proud?	block_question_presentation	n/a	n/a	n/a	n/a	53
113.508	0.3	tomspunt	proud?	block_question_presentation	n/a	n/a	n/a	n/a	54
113.508	0.3	tomspunt	proud?	block_question_presentation	n/a	n/a	n/a	n/a	55
118.519	1.086	tomspunt	proud?	why_face	yes	yes	correct	task-tomspunt/F_598.jpg	48
119.919	0.028	tomspunt	proud?	why_face	yes	no	incorrect	task-tomspunt/F_760.jpg	49
120.253	0.936	tomspunt	proud?	why_face	yes	yes	correct	task-tomspunt/F_582.jpg	50
121.503	0.87	tomspunt	proud?	why_face	no	no	correct	task-tomspunt/F_412.jpg	51
122.687	0.944	tomspunt	proud?	why_face	yes	yes	correct	task-tomspunt/F_083.jpg	52
123.937	1.036	tomspunt	proud?	why_face	no	no	correct	task-tomspunt/F_776.jpg	53
125.288	0.96	tomspunt	proud?	why_face	yes	yes	correct	task-tomspunt/F_618.jpg	54
126.555	1.009	tomspunt	proud?	why_face	yes	yes	correct	task-tomspunt/F_695.jpg	55
131.031	2.101	tomspunt	looking to side?	block_question_presentation	n/a	n/a	n/a	n/a	56
131.031	0.3	tomspunt	looking to side?	block_question_presentation	n/a	n/a	n/a	n/a	57
131.031	0.3	tomspunt	looking to side?	block_question_presentation	n/a	n/a	n/a	n/a	58
131.031	0.3	tomspunt	looking to side?	block_question_presentation	n/a	n/a	n/a	n/a	59
131.031	0.3	tomspunt	looking to side?	block_question_presentation	n/a	n/a	n/a	n/a	60
131.031	0.3	tomspunt	looking to side?	block_question_presentation	n/a	n/a	n/a	n/a	61
131.031	0.3	tomspunt	looking to side?	block_question_presentation	n/a	n/a	n/a	n/a	62
131.031	0.3	tomspunt	looking to side?	block_question_presentation	n/a	n/a	n/a	n/a	63
136.042	0.803	tomspunt	looking to side?	how_face	yes	yes	correct	task-tomspunt/F_590.jpg	56
137.159	0.888	tomspunt	looking to side?	how_face	yes	yes	correct	task-tomspunt/F_433.jpg	57
138.359	0.921	tomspunt	looking to side?	how_face	yes	yes	correct	task-tomspunt/F_716.jpg	58
139.593	1.088	tomspunt	looking to side?	how_face	no	no	correct	task-tomspunt/F_779.jpg	59
140.994	1.054	tomspunt	looking to side?	how_face	yes	yes	correct	task-tomspunt/F_760.jpg	60
142.361	0.953	tomspunt	looking to side?	how_face	no	no	correct	task-tomspunt/F_111.jpg	61
143.628	1.186	tomspunt	looking to side?	how_face	yes	yes	correct	task-tomspunt/F_110.jpg	62
145.129	1.003	tomspunt	looking to side?	how_face	no	no	correct	task-tomspunt/F_798.jpg	63
150.138	2.101	tomspunt	argument?	block_question_presentation	n/a	n/a	n/a	n/a	64
150.138	0.3	tomspunt	argument?	block_question_presentation	n/a	n/a	n/a	n/a	65
150.138	0.3	tomspunt	argument?	block_question_presentation	n/a	n/a	n/a	n/a	66
150.138	0.3	tomspunt	argument?	block_question_presentation	n/a	n/a	n/a	n/a	67
150.138	0.3	tomspunt	argument?	block_question_presentation	n/a	n/a	n/a	n/a	68
150.138	0.3	tomspunt	argument?	block_question_presentation	n/a	n/a	n/a	n/a	69
150.138	0.3	tomspunt	argument?	block_question_presentation	n/a	n/a	n/a	n/a	70
150.138	0.3	tomspunt	argument?	block_question_presentation	n/a	n/a	n/a	n/a	71
155.149	1.52	tomspunt	argument?	why_face	yes	yes	correct	task-tomspunt/F_716.jpg	64
156.983	0.903	tomspunt	argument?	why_face	no	no	correct	task-tomspunt/F_139.jpg	65
158.2	1.002	tomspunt	argument?	why_face	yes	yes	correct	task-tomspunt/F_712.jpg	66
159.517	0.98	tomspunt	argument?	why_face	no	no	correct	task-tomspunt/F_433.jpg	67
160.801	0.88	tomspunt	argument?	why_face	yes	yes	correct	task-tomspunt/F_403.jpg	68
161.985	1.096	tomspunt	argument?	why_face	no	no	correct	task-tomspunt/F_844.jpg	69
163.385	0.953	tomspunt	argument?	why_face	yes	yes	correct	task-tomspunt/F_743.jpg	70
164.652	1.245	tomspunt	argument?	why_face	yes	yes	correct	task-tomspunt/F_758.jpg	71
167.978	2.101	tomspunt	open mouth?	block_question_presentation	n/a	n/a	n/a	n/a	72
167.978	0.3	tomspunt	open mouth?	block_question_presentation	n/a	n/a	n/a	n/a	73
167.978	0.3	tomspunt	open mouth?	block_question_presentation	n/a	n/a	n/a	n/a	74
167.978	0.3	tomspunt	open mouth?	block_question_presentation	n/a	n/a	n/a	n/a	75
167.978	0.3	tomspunt	open mouth?	block_question_presentation	n/a	n/a	n/a	n/a	76
167.978	0.3	tomspunt	open mouth?	block_question_presentation	n/a	n/a	n/a	n/a	77
167.978	0.3	tomspunt	open mouth?	block_question_presentation	n/a	n/a	n/a	n/a	78
167.978	0.3	tomspunt	open mouth?	block_question_presentation	n/a	n/a	n/a	n/a	79
172.989	0.825	tomspunt	open mouth?	how_face	yes	yes	correct	task-tomspunt/F_844.jpg	72
174.123	0.825	tomspunt	open mouth?	how_face	yes	yes	correct	task-tomspunt/F_776.jpg	73
175.256	0.941	tomspunt	open mouth?	how_face	no	no	correct	task-tomspunt/F_544.jpg	74
176.507	0.708	tomspunt	open mouth?	how_face	yes	yes	correct	task-tomspunt/F_692.jpg	75
177.524	0.819	tomspunt	open mouth?	how_face	no	no	correct	task-tomspunt/F_584.jpg	76
178.658	0.719	tomspunt	open mouth?	how_face	yes	yes	correct	task-tomspunt/F_403.jpg	77
179.691	0.689	tomspunt	open mouth?	how_face	yes	yes	correct	task-tomspunt/F_086.jpg	78
180.692	0.753	tomspunt	open mouth?	how_face	no	no	correct	task-tomspunt/F_648.jpg	79
185.868	2.101	tomspunt	pressing button?	block_question_presentation	n/a	n/a	n/a	n/a	80
185.868	0.3	tomspunt	pressing button?	block_question_presentation	n/a	n/a	n/a	n/a	81
185.868	0.3	tomspunt	pressing button?	block_question_presentation	n/a	n/a	n/a	n/a	82
185.868	0.3	tomspunt	pressing button?	block_question_presentation	n/a	n/a	n/a	n/a	83
185.868	0.3	tomspunt	pressing button?	block_question_presentation	n/a	n/a	n/a	n/a	84
185.868	0.3	tomspunt	pressing button?	block_question_presentation	n/a	n/a	n/a	n/a	85
185.868	0.3	tomspunt	pressing button?	block_question_presentation	n/a	n/a	n/a	n/a	86
185.868	0.3	tomspunt	pressing button?	block_question_presentation	n/a	n/a	n/a	n/a	87
190.879	0.919	tomspunt	pressing button?	how_hand	yes	yes	correct	task-tomspunt/H_019.jpg	80
192.113	0.836	tomspunt	pressing button?	how_hand	no	no	correct	task-tomspunt/H_024.jpg	81
193.263	0.852	tomspunt	pressing button?	how_hand	no	no	correct	task-tomspunt/H_130.jpg	82
194.43	0.652	tomspunt	pressing button?	how_hand	yes	yes	correct	task-tomspunt/H_502.jpg	83
195.397	0.801	tomspunt	pressing button?	how_hand	no	no	correct	task-tomspunt/H_261.jpg	84
196.498	0.602	tomspunt	pressing button?	how_hand	yes	yes	correct	task-tomspunt/H_332.jpg	85
197.415	1.066	tomspunt	pressing button?	how_hand	yes	yes	correct	task-tomspunt/H_126.jpg	86
198.782	0.953	tomspunt	pressing button?	how_hand	yes	yes	correct	task-tomspunt/H_483.jpg	87
203.658	2.101	tomspunt	competing?	block_question_presentation	n/a	n/a	n/a	n/a	88
203.658	0.3	tomspunt	competing?	block_question_presentation	n/a	n/a	n/a	n/a	89
203.658	0.3	tomspunt	competing?	block_question_presentation	n/a	n/a	n/a	n/a	90
203.658	0.3	tomspunt	competing?	block_question_presentation	n/a	n/a	n/a	n/a	91
203.658	0.3	tomspunt	competing?	block_question_presentation	n/a	n/a	n/a	n/a	92
203.658	0.3	tomspunt	competing?	block_question_presentation	n/a	n/a	n/a	n/a	93
203.658	0.3	tomspunt	competing?	block_question_presentation	n/a	n/a	n/a	n/a	94
203.658	0.3	tomspunt	competing?	block_question_presentation	n/a	n/a	n/a	n/a	95
208.669	0.602	tomspunt	competing?	why_hand	yes	yes	correct	task-tomspunt/H_261.jpg	88
209.586	0.87	tomspunt	competing?	why_hand	no	no	correct	task-tomspunt/H_483.jpg	89
210.77	0.719	tomspunt	competing?	why_hand	yes	yes	correct	task-tomspunt/H_132.jpg	90
211.803	0.894	tomspunt	competing?	why_hand	no	no	correct	task-tomspunt/H_126.jpg	91
213.004	0.803	tomspunt	competing?	why_hand	yes	yes	correct	task-tomspunt/H_136.jpg	92
214.121	0.919	tomspunt	competing?	why_hand	no	no	correct	task-tomspunt/H_502.jpg	93
215.355	0.81	tomspunt	competing?	why_hand	yes	yes	correct	task-tomspunt/H_003.jpg	94
216.472	0.736	tomspunt	competing?	why_hand	yes	yes	correct	task-tomspunt/H_170.jpg	95
221.731	2.101	tomspunt	self-doubt?	block_question_presentation	n/a	n/a	n/a	n/a	96
221.731	0.3	tomspunt	self-doubt?	block_question_presentation	n/a	n/a	n/a	n/a	97
221.731	0.3	tomspunt	self-doubt?	block_question_presentation	n/a	n/a	n/a	n/a	98
221.731	0.3	tomspunt	self-doubt?	block_question_presentation	n/a	n/a	n/a	n/a	99
221.731	0.3	tomspunt	self-doubt?	block_question_presentation	n/a	n/a	n/a	n/a	100
221.731	0.3	tomspunt	self-doubt?	block_question_presentation	n/a	n/a	n/a	n/a	101
221.731	0.3	tomspunt	self-doubt?	block_question_presentation	n/a	n/a	n/a	n/a	102
221.731	0.3	tomspunt	self-doubt?	block_question_presentation	n/a	n/a	n/a	n/a	103
226.742	0.939	tomspunt	self-doubt?	why_face	yes	yes	correct	task-tomspunt/F_544.jpg	96
227.993	1.069	tomspunt	self-doubt?	why_face	yes	no	incorrect	task-tomspunt/F_086.jpg	97
229.377	0.837	tomspunt	self-doubt?	why_face	yes	yes	correct	task-tomspunt/F_798.jpg	98
230.527	0.687	tomspunt	self-doubt?	why_face	yes	yes	correct	task-tomspunt/F_111.jpg	99
231.527	0.753	tomspunt	self-doubt?	why_face	no	no	correct	task-tomspunt/F_774.jpg	100
232.594	0.703	tomspunt	self-doubt?	why_face	yes	yes	correct	task-tomspunt/F_754.jpg	101
233.612	1.02	tomspunt	self-doubt?	why_face	no	no	correct	task-tomspunt/F_128.jpg	102
234.945	1.053	tomspunt	self-doubt?	why_face	yes	yes	correct	task-tomspunt/F_584.jpg	103
240.789	2.101	tomspunt	looking at camera?	block_question_presentation	n/a	n/a	n/a	n/a	104
240.789	0.3	tomspunt	looking at camera?	block_question_presentation	n/a	n/a	n/a	n/a	105
240.789	0.3	tomspunt	looking at camera?	block_question_presentation	n/a	n/a	n/a	n/a	106
240.789	0.3	tomspunt	looking at camera?	block_question_presentation	n/a	n/a	n/a	n/a	107
240.789	0.3	tomspunt	looking at camera?	block_question_presentation	n/a	n/a	n/a	n/a	108
240.789	0.3	tomspunt	looking at camera?	block_question_presentation	n/a	n/a	n/a	n/a	109
240.789	0.3	tomspunt	looking at camera?	block_question_presentation	n/a	n/a	n/a	n/a	110
240.789	0.3	tomspunt	looking at camera?	block_question_presentation	n/a	n/a	n/a	n/a	111
245.799	0.636	tomspunt	looking at camera?	how_face	yes	yes	correct	task-tomspunt/F_128.jpg	104
246.75	0.636	tomspunt	looking at camera?	how_face	yes	yes	correct	task-tomspunt/F_618.jpg	105
247.7	0.802	tomspunt	looking at camera?	how_face	yes	yes	correct	task-tomspunt/F_598.jpg	106
248.817	0.78	tomspunt	looking at camera?	how_face	no	no	correct	task-tomspunt/F_743.jpg	107
249.901	0.63	tomspunt	looking at camera?	how_face	yes	yes	correct	task-tomspunt/F_774.jpg	108
250.835	1.019	tomspunt	looking at camera?	how_face	no	no	correct	task-tomspunt/F_582.jpg	109
252.168	0.929	tomspunt	looking at camera?	how_face	no	no	correct	task-tomspunt/F_754.jpg	110
253.402	0.903	tomspunt	looking at camera?	how_face	yes	yes	correct	task-tomspunt/F_129.jpg	111
259.579	2.101	tomspunt	both hands?	block_question_presentation	n/a	n/a	n/a	n/a	112
259.579	0.3	tomspunt	both hands?	block_question_presentation	n/a	n/a	n/a	n/a	113
259.579	0.3	tomspunt	both hands?	block_question_presentation	n/a	n/a	n/a	n/a	114
259.579	0.3	tomspunt	both hands?	block_question_presentation	n/a	n/a	n/a	n/a	115
259.579	0.3	tomspunt	both hands?	block_question_presentation	n/a	n/a	n/a	n/a	116
259.579	0.3	tomspunt	both hands?	block_question_presentation	n/a	n/a	n/a	n/a	117
259.579	0.3	tomspunt	both hands?	block_question_presentation	n/a	n/a	n/a	n/a	118
259.579	0.3	tomspunt	both hands?	block_question_presentation	n/a	n/a	n/a	n/a	119
264.59	0.908	tomspunt	both hands?	how_hand	yes	yes	correct	task-tomspunt/H_167.jpg	112
265.807	1.124	tomspunt	both hands?	how_hand	no	no	correct	task-tomspunt/H_091.jpg	113
267.241	1.069	tomspunt	both hands?	how_hand	no	no	correct	task-tomspunt/H_627.jpg	114
268.625	0.823	tomspunt	both hands?	how_hand	yes	yes	correct	task-tomspunt/H_027.jpg	115
269.758	0.823	tomspunt	both hands?	how_hand	yes	yes	correct	task-tomspunt/H_111.jpg	116
270.892	0.922	tomspunt	both hands?	how_hand	no	no	correct	task-tomspunt/H_159.jpg	117
272.126	0.905	tomspunt	both hands?	how_hand	yes	yes	correct	task-tomspunt/H_581.jpg	118
273.343	0.754	tomspunt	both hands?	how_hand	yes	yes	correct	task-tomspunt/H_349.jpg	119
278.369	2.101	tomspunt	self-protection?	block_question_presentation	n/a	n/a	n/a	n/a	120
278.369	0.3	tomspunt	self-protection?	block_question_presentation	n/a	n/a	n/a	n/a	121
278.369	0.3	tomspunt	self-protection?	block_question_presentation	n/a	n/a	n/a	n/a	122
278.369	0.3	tomspunt	self-protection?	block_question_presentation	n/a	n/a	n/a	n/a	123
278.369	0.3	tomspunt	self-protection?	block_question_presentation	n/a	n/a	n/a	n/a	124
278.369	0.3	tomspunt	self-protection?	block_question_presentation	n/a	n/a	n/a	n/a	125
278.369	0.3	tomspunt	self-protection?	block_question_presentation	n/a	n/a	n/a	n/a	126
278.369	0.3	tomspunt	self-protection?	block_question_presentation	n/a	n/a	n/a	n/a	127
283.38	0.753	tomspunt	self-protection?	why_hand	yes	yes	correct	task-tomspunt/H_443.jpg	120
284.447	0.851	tomspunt	self-protection?	why_hand	no	no	correct	task-tomspunt/H_006.jpg	121
285.598	0.886	tomspunt	self-protection?	why_hand	yes	yes	correct	task-tomspunt/H_581.jpg	122
286.798	0.919	tomspunt	self-protection?	why_hand	no	no	correct	task-tomspunt/H_532.jpg	123
288.032	0.869	tomspunt	self-protection?	why_hand	yes	yes	correct	task-tomspunt/H_027.jpg	124
289.216	0.865	tomspunt	self-protection?	why_hand	yes	yes	correct	task-tomspunt/H_038.jpg	125
290.383	1.019	tomspunt	self-protection?	why_hand	no	no	correct	task-tomspunt/H_332.jpg	126
291.717	0.853	tomspunt	self-protection?	why_hand	yes	yes	correct	task-tomspunt/H_189.jpg	127
299.844	2.101	tomspunt	smiling?	block_question_presentation	n/a	n/a	n/a	n/a	128
299.844	0.3	tomspunt	smiling?	block_question_presentation	n/a	n/a	n/a	n/a	129
299.844	0.3	tomspunt	smiling?	block_question_presentation	n/a	n/a	n/a	n/a	130
299.844	0.3	tomspunt	smiling?	block_question_presentation	n/a	n/a	n/a	n/a	131
299.844	0.3	tomspunt	smiling?	block_question_presentation	n/a	n/a	n/a	n/a	132
299.844	0.3	tomspunt	smiling?	block_question_presentation	n/a	n/a	n/a	n/a	133
299.844	0.3	tomspunt	smiling?	block_question_presentation	n/a	n/a	n/a	n/a	134
299.844	0.3	tomspunt	smiling?	block_question_presentation	n/a	n/a	n/a	n/a	135
304.855	0.853	tomspunt	smiling?	how_face	yes	yes	correct	task-tomspunt/F_759.jpg	128
306.022	0.892	tomspunt	smiling?	how_face	no	no	correct	task-tomspunt/F_412.jpg	129
307.222	0.759	tomspunt	smiling?	how_face	yes	yes	correct	task-tomspunt/F_593.jpg	130
308.289	0.82	tomspunt	smiling?	how_face	no	no	correct	task-tomspunt/F_712.jpg	131
309.423	0.707	tomspunt	smiling?	how_face	yes	yes	correct	task-tomspunt/F_695.jpg	132
310.44	0.757	tomspunt	smiling?	how_face	yes	yes	correct	task-tomspunt/F_139.jpg	133
311.507	0.724	tomspunt	smiling?	how_face	yes	yes	correct	task-tomspunt/F_083.jpg	134
312.541	0.79	tomspunt	smiling?	how_face	no	no	correct	task-tomspunt/F_758.jpg	135
317.634	2.101	tomspunt	admiring?	block_question_presentation	n/a	n/a	n/a	n/a	136
317.634	0.3	tomspunt	admiring?	block_question_presentation	n/a	n/a	n/a	n/a	137
317.634	0.3	tomspunt	admiring?	block_question_presentation	n/a	n/a	n/a	n/a	138
317.634	0.3	tomspunt	admiring?	block_question_presentation	n/a	n/a	n/a	n/a	139
317.634	0.3	tomspunt	admiring?	block_question_presentation	n/a	n/a	n/a	n/a	140
317.634	0.3	tomspunt	admiring?	block_question_presentation	n/a	n/a	n/a	n/a	141
317.634	0.3	tomspunt	admiring?	block_question_presentation	n/a	n/a	n/a	n/a	142
317.634	0.3	tomspunt	admiring?	block_question_presentation	n/a	n/a	n/a	n/a	143
322.645	0.703	tomspunt	admiring?	why_face	yes	yes	correct	task-tomspunt/F_593.jpg	136
323.662	0.752	tomspunt	admiring?	why_face	no	no	correct	task-tomspunt/F_129.jpg	137
324.729	0.719	tomspunt	admiring?	why_face	yes	yes	correct	task-tomspunt/F_759.jpg	138
325.763	0.852	tomspunt	admiring?	why_face	no	no	correct	task-tomspunt/F_692.jpg	139
326.93	0.669	tomspunt	admiring?	why_face	yes	yes	correct	task-tomspunt/F_779.jpg	140
327.913	0.702	tomspunt	admiring?	why_face	yes	yes	correct	task-tomspunt/F_590.jpg	141
328.93	0.786	tomspunt	admiring?	why_face	yes	yes	correct	task-tomspunt/F_648.jpg	142
330.031	0.719	tomspunt	admiring?	why_face	no	no	correct	task-tomspunt/F_110.jpg	143
335.524	2.101	tomspunt	competing?	block_question_presentation	n/a	n/a	n/a	n/a	144
335.524	0.3	tomspunt	competing?	block_question_presentation	n/a	n/a	n/a	n/a	145
335.524	0.3	tomspunt	competing?	block_question_presentation	n/a	n/a	n/a	n/a	146
335.524	0.3	tomspunt	competing?	block_question_presentation	n/a	n/a	n/a	n/a	147
335.524	0.3	tomspunt	competing?	block_question_presentation	n/a	n/a	n/a	n/a	148
335.524	0.3	tomspunt	competing?	block_question_presentation	n/a	n/a	n/a	n/a	149
335.524	0.3	tomspunt	competing?	block_question_presentation	n/a	n/a	n/a	n/a	150
335.524	0.3	tomspunt	competing?	block_question_presentation	n/a	n/a	n/a	n/a	151
340.535	0.652	tomspunt	competing?	why_hand	yes	yes	correct	task-tomspunt/H_261.jpg	144
341.502	0.569	tomspunt	competing?	why_hand	yes	yes	correct	task-tomspunt/H_170.jpg	145
342.385	0.919	tomspunt	competing?	why_hand	no	no	correct	task-tomspunt/H_483.jpg	146
343.619	0.969	tomspunt	competing?	why_hand	yes	yes	correct	task-tomspunt/H_132.jpg	147
344.903	0.836	tomspunt	competing?	why_hand	yes	yes	correct	task-tomspunt/H_136.jpg	148
346.053	0.669	tomspunt	competing?	why_hand	yes	yes	correct	task-tomspunt/H_003.jpg	149
347.037	0.027	tomspunt	competing?	why_hand	yes	no	incorrect	task-tomspunt/H_126.jpg	150
347.371	0.803	tomspunt	competing?	why_hand	no	no	correct	task-tomspunt/H_502.jpg	151
356.999	2.101	tomspunt	reaching?	block_question_presentation	n/a	n/a	n/a	n/a	152
356.999	0.3	tomspunt	reaching?	block_question_presentation	n/a	n/a	n/a	n/a	153
356.999	0.3	tomspunt	reaching?	block_question_presentation	n/a	n/a	n/a	n/a	154
356.999	0.3	tomspunt	reaching?	block_question_presentation	n/a	n/a	n/a	n/a	155
356.999	0.3	tomspunt	reaching?	block_question_presentation	n/a	n/a	n/a	n/a	156
356.999	0.3	tomspunt	reaching?	block_question_presentation	n/a	n/a	n/a	n/a	157
356.999	0.3	tomspunt	reaching?	block_question_presentation	n/a	n/a	n/a	n/a	158
356.999	0.3	tomspunt	reaching?	block_question_presentation	n/a	n/a	n/a	n/a	159
362.009	0.905	tomspunt	reaching?	how_hand	yes	yes	correct	task-tomspunt/H_003.jpg	152
363.227	0.771	tomspunt	reaching?	how_hand	yes	yes	correct	task-tomspunt/H_364.jpg	153
364.31	0.021	tomspunt	reaching?	how_hand	yes	no	incorrect	task-tomspunt/H_532.jpg	154
364.644	0.72	tomspunt	reaching?	how_hand	no	yes	incorrect	task-tomspunt/H_006.jpg	155
365.677	1.503	tomspunt	reaching?	how_hand	no	no	correct	task-tomspunt/H_438.jpg	156
367.495	0.686	tomspunt	reaching?	how_hand	yes	yes	correct	task-tomspunt/H_007.jpg	157
368.495	1.002	tomspunt	reaching?	how_hand	no	yes	incorrect	task-tomspunt/H_474.jpg	158
369.812	0.802	tomspunt	reaching?	how_hand	yes	no	incorrect	task-tomspunt/H_132.jpg	159
374.839	2.101	tomspunt	open mouth?	block_question_presentation	n/a	n/a	n/a	n/a	160
374.839	0.3	tomspunt	open mouth?	block_question_presentation	n/a	n/a	n/a	n/a	161
374.839	0.3	tomspunt	open mouth?	block_question_presentation	n/a	n/a	n/a	n/a	162
374.839	0.3	tomspunt	open mouth?	block_question_presentation	n/a	n/a	n/a	n/a	163
374.839	0.3	tomspunt	open mouth?	block_question_presentation	n/a	n/a	n/a	n/a	164
374.839	0.3	tomspunt	open mouth?	block_question_presentation	n/a	n/a	n/a	n/a	165
374.839	0.3	tomspunt	open mouth?	block_question_presentation	n/a	n/a	n/a	n/a	166
374.839	0.3	tomspunt	open mouth?	block_question_presentation	n/a	n/a	n/a	n/a	167
379.849	0.752	tomspunt	open mouth?	how_face	yes	yes	correct	task-tomspunt/F_403.jpg	160
380.916	0.753	tomspunt	open mouth?	how_face	no	no	correct	task-tomspunt/F_648.jpg	161
381.984	0.614	tomspunt	open mouth?	how_face	yes	yes	correct	task-tomspunt/F_776.jpg	162
382.901	0.786	tomspunt	open mouth?	how_face	no	no	correct	task-tomspunt/F_584.jpg	163
384.001	0.602	tomspunt	open mouth?	how_face	yes	yes	correct	task-tomspunt/F_844.jpg	164
384.918	0.68	tomspunt	open mouth?	how_face	yes	yes	correct	task-tomspunt/F_692.jpg	165
385.902	0.629	tomspunt	open mouth?	how_face	yes	yes	correct	task-tomspunt/F_086.jpg	166
386.835	0.746	tomspunt	open mouth?	how_face	no	no	correct	task-tomspunt/F_544.jpg	167
393.512	2.101	tomspunt	argument?	block_question_presentation	n/a	n/a	n/a	n/a	168
393.512	0.3	tomspunt	argument?	block_question_presentation	n/a	n/a	n/a	n/a	169
393.512	0.3	tomspunt	argument?	block_question_presentation	n/a	n/a	n/a	n/a	170
393.512	0.3	tomspunt	argument?	block_question_presentation	n/a	n/a	n/a	n/a	171
393.512	0.3	tomspunt	argument?	block_question_presentation	n/a	n/a	n/a	n/a	172
393.512	0.3	tomspunt	argument?	block_question_presentation	n/a	n/a	n/a	n/a	173
393.512	0.3	tomspunt	argument?	block_question_presentation	n/a	n/a	n/a	n/a	174
393.512	0.3	tomspunt	argument?	block_question_presentation	n/a	n/a	n/a	n/a	175
398.523	0.669	tomspunt	argument?	why_face	yes	yes	correct	task-tomspunt/F_403.jpg	168
399.507	0.72	tomspunt	argument?	why_face	no	no	correct	task-tomspunt/F_844.jpg	169
400.54	0.907	tomspunt	argument?	why_face	yes	yes	correct	task-tomspunt/F_712.jpg	170
401.758	1.069	tomspunt	argument?	why_face	yes	yes	correct	task-tomspunt/F_758.jpg	171
403.141	0.823	tomspunt	argument?	why_face	no	no	correct	task-tomspunt/F_433.jpg	172
404.275	1.204	tomspunt	argument?	why_face	yes	yes	correct	task-tomspunt/F_716.jpg	173
405.792	0.705	tomspunt	argument?	why_face	no	no	correct	task-tomspunt/F_139.jpg	174
406.809	0.788	tomspunt	argument?	why_face	yes	yes	correct	task-tomspunt/F_743.jpg	175
411.736	2.101	tomspunt	helping?	block_question_presentation	n/a	n/a	n/a	n/a	176
411.736	0.3	tomspunt	helping?	block_question_presentation	n/a	n/a	n/a	n/a	177
411.736	0.3	tomspunt	helping?	block_question_presentation	n/a	n/a	n/a	n/a	178
411.736	0.3	tomspunt	helping?	block_question_presentation	n/a	n/a	n/a	n/a	179
411.736	0.3	tomspunt	helping?	block_question_presentation	n/a	n/a	n/a	n/a	180
411.736	0.3	tomspunt	helping?	block_question_presentation	n/a	n/a	n/a	n/a	181
411.736	0.3	tomspunt	helping?	block_question_presentation	n/a	n/a	n/a	n/a	182
411.736	0.3	tomspunt	helping?	block_question_presentation	n/a	n/a	n/a	n/a	183
416.746	0.986	tomspunt	helping?	why_hand	no	yes	incorrect	task-tomspunt/H_024.jpg	176
418.047	0.853	tomspunt	helping?	why_hand	yes	yes	correct	task-tomspunt/H_349.jpg	177
419.214	1.253	tomspunt	helping?	why_hand	no	yes	incorrect	task-tomspunt/H_077.jpg	178
420.781	0.817	tomspunt	helping?	why_hand	yes	yes	correct	task-tomspunt/H_474.jpg	179
421.898	0.803	tomspunt	helping?	why_hand	yes	no	incorrect	task-tomspunt/H_091.jpg	180
423.015	0.769	tomspunt	helping?	why_hand	no	no	correct	task-tomspunt/H_159.jpg	181
424.099	0.953	tomspunt	helping?	why_hand	yes	yes	correct	task-tomspunt/H_111.jpg	182
425.366	0.948	tomspunt	helping?	why_hand	no	no	correct	task-tomspunt/H_012.jpg	183
429.809	2.101	tomspunt	both hands?	block_question_presentation	n/a	n/a	n/a	n/a	184
429.809	0.3	tomspunt	both hands?	block_question_presentation	n/a	n/a	n/a	n/a	185
429.809	0.3	tomspunt	both hands?	block_question_presentation	n/a	n/a	n/a	n/a	186
429.809	0.3	tomspunt	both hands?	block_question_presentation	n/a	n/a	n/a	n/a	187
429.809	0.3	tomspunt	both hands?	block_question_presentation	n/a	n/a	n/a	n/a	188
429.809	0.3	tomspunt	both hands?	block_question_presentation	n/a	n/a	n/a	n/a	189
429.809	0.3	tomspunt	both hands?	block_question_presentation	n/a	n/a	n/a	n/a	190
429.809	0.3	tomspunt	both hands?	block_question_presentation	n/a	n/a	n/a	n/a	191
434.82	0.928	tomspunt	both hands?	how_hand	yes	yes	correct	task-tomspunt/H_111.jpg	184
436.054	0.777	tomspunt	both hands?	how_hand	yes	yes	correct	task-tomspunt/H_027.jpg	185
437.137	0.894	tomspunt	both hands?	how_hand	no	no	correct	task-tomspunt/H_091.jpg	186
438.338	0.869	tomspunt	both hands?	how_hand	yes	yes	correct	task-tomspunt/H_167.jpg	187
439.522	0.719	tomspunt	both hands?	how_hand	yes	yes	correct	task-tomspunt/H_581.jpg	188
440.555	0.819	tomspunt	both hands?	how_hand	no	no	correct	task-tomspunt/H_159.jpg	189
441.689	0.875	tomspunt	both hands?	how_hand	yes	yes	correct	task-tomspunt/H_349.jpg	190
442.873	0.903	tomspunt	both hands?	how_hand	no	no	correct	task-tomspunt/H_627.jpg	191
447.332	2.101	tomspunt	healthy?	block_question_presentation	n/a	n/a	n/a	n/a	192
447.332	0.3	tomspunt	healthy?	block_question_presentation	n/a	n/a	n/a	n/a	193
447.332	0.3	tomspunt	healthy?	block_question_presentation	n/a	n/a	n/a	n/a	194
447.332	0.3	tomspunt	healthy?	block_question_presentation	n/a	n/a	n/a	n/a	195
447.332	0.3	tomspunt	healthy?	block_question_presentation	n/a	n/a	n/a	n/a	196
447.332	0.3	tomspunt	healthy?	block_question_presentation	n/a	n/a	n/a	n/a	197
447.332	0.3	tomspunt	healthy?	block_question_presentation	n/a	n/a	n/a	n/a	198
447.332	0.3	tomspunt	healthy?	block_question_presentation	n/a	n/a	n/a	n/a	199
452.343	0.855	tomspunt	healthy?	why_hand	yes	yes	correct	task-tomspunt/H_438.jpg	192
453.51	0.754	tomspunt	healthy?	why_hand	yes	yes	correct	task-tomspunt/H_364.jpg	193
454.577	0.687	tomspunt	healthy?	why_hand	yes	yes	correct	task-tomspunt/H_362.jpg	194
455.578	0.836	tomspunt	healthy?	why_hand	no	no	correct	task-tomspunt/H_019.jpg	195
456.728	0.67	tomspunt	healthy?	why_hand	yes	yes	correct	task-tomspunt/H_167.jpg	196
457.712	0.702	tomspunt	healthy?	why_hand	yes	no	incorrect	task-tomspunt/H_007.jpg	197
458.729	1.303	tomspunt	healthy?	why_hand	no	yes	incorrect	task-tomspunt/H_627.jpg	198
460.346	1.218	tomspunt	healthy?	why_hand	no	no	correct	task-tomspunt/H_130.jpg	199
466.373	2.101	tomspunt	pressing button?	block_question_presentation	n/a	n/a	n/a	n/a	200
466.373	0.3	tomspunt	pressing button?	block_question_presentation	n/a	n/a	n/a	n/a	201
466.373	0.3	tomspunt	pressing button?	block_question_presentation	n/a	n/a	n/a	n/a	202
466.373	0.3	tomspunt	pressing button?	block_question_presentation	n/a	n/a	n/a	n/a	203
466.373	0.3	tomspunt	pressing button?	block_question_presentation	n/a	n/a	n/a	n/a	204
466.373	0.3	tomspunt	pressing button?	block_question_presentation	n/a	n/a	n/a	n/a	205
466.373	0.3	tomspunt	pressing button?	block_question_presentation	n/a	n/a	n/a	n/a	206
466.373	0.3	tomspunt	pressing button?	block_question_presentation	n/a	n/a	n/a	n/a	207
471.384	0.847	tomspunt	pressing button?	how_hand	yes	yes	correct	task-tomspunt/H_126.jpg	200
472.534	0.703	tomspunt	pressing button?	how_hand	no	no	correct	task-tomspunt/H_130.jpg	201
473.551	0.686	tomspunt	pressing button?	how_hand	yes	yes	correct	task-tomspunt/H_483.jpg	202
474.551	0.769	tomspunt	pressing button?	how_hand	no	no	correct	task-tomspunt/H_024.jpg	203
475.635	0.736	tomspunt	pressing button?	how_hand	yes	yes	correct	task-tomspunt/H_332.jpg	204
476.685	0.829	tomspunt	pressing button?	how_hand	yes	yes	correct	task-tomspunt/H_019.jpg	205
477.819	0.928	tomspunt	pressing button?	how_hand	no	no	correct	task-tomspunt/H_261.jpg	206
479.053	0.686	tomspunt	pressing button?	how_hand	yes	yes	correct	task-tomspunt/H_502.jpg	207
483.913	2.101	tomspunt	looking at camera?	block_question_presentation	n/a	n/a	n/a	n/a	208
483.913	0.3	tomspunt	looking at camera?	block_question_presentation	n/a	n/a	n/a	n/a	209
483.913	0.3	tomspunt	looking at camera?	block_question_presentation	n/a	n/a	n/a	n/a	210
483.913	0.3	tomspunt	looking at camera?	block_question_presentation	n/a	n/a	n/a	n/a	211
483.913	0.3	tomspunt	looking at camera?	block_question_presentation	n/a	n/a	n/a	n/a	212
483.913	0.3	tomspunt	looking at camera?	block_question_presentation	n/a	n/a	n/a	n/a	213
483.913	0.3	tomspunt	looking at camera?	block_question_presentation	n/a	n/a	n/a	n/a	214
483.913	0.3	tomspunt	looking at camera?	block_question_presentation	n/a	n/a	n/a	n/a	215
488.923	0.641	tomspunt	looking at camera?	how_face	yes	yes	correct	task-tomspunt/F_618.jpg	208
489.874	0.736	tomspunt	looking at camera?	how_face	no	no	correct	task-tomspunt/F_754.jpg	209
490.924	0.607	tomspunt	looking at camera?	how_face	yes	yes	correct	task-tomspunt/F_129.jpg	210
491.841	0.673	tomspunt	looking at camera?	how_face	yes	yes	correct	task-tomspunt/F_598.jpg	211
492.825	0.756	tomspunt	looking at camera?	how_face	yes	yes	correct	task-tomspunt/F_128.jpg	212
493.892	0.922	tomspunt	looking at camera?	how_face	no	no	correct	task-tomspunt/F_582.jpg	213
495.126	0.636	tomspunt	looking at camera?	how_face	yes	yes	correct	task-tomspunt/F_774.jpg	214
496.076	1.038	tomspunt	looking at camera?	how_face	no	no	correct	task-tomspunt/F_743.jpg	215
502.87	2.101	tomspunt	self-doubt?	block_question_presentation	n/a	n/a	n/a	n/a	216
502.87	0.3	tomspunt	self-doubt?	block_question_presentation	n/a	n/a	n/a	n/a	217
502.87	0.3	tomspunt	self-doubt?	block_question_presentation	n/a	n/a	n/a	n/a	218
502.87	0.3	tomspunt	self-doubt?	block_question_presentation	n/a	n/a	n/a	n/a	219
502.87	0.3	tomspunt	self-doubt?	block_question_presentation	n/a	n/a	n/a	n/a	220
502.87	0.3	tomspunt	self-doubt?	block_question_presentation	n/a	n/a	n/a	n/a	221
502.87	0.3	tomspunt	self-doubt?	block_question_presentation	n/a	n/a	n/a	n/a	222
502.87	0.3	tomspunt	self-doubt?	block_question_presentation	n/a	n/a	n/a	n/a	223
507.88	1.019	tomspunt	self-doubt?	why_face	yes	yes	correct	task-tomspunt/F_798.jpg	216
509.214	0.769	tomspunt	self-doubt?	why_face	no	no	correct	task-tomspunt/F_086.jpg	217
510.298	0.686	tomspunt	self-doubt?	why_face	yes	yes	correct	task-tomspunt/F_544.jpg	218
511.298	0.669	tomspunt	self-doubt?	why_face	yes	yes	correct	task-tomspunt/F_754.jpg	219
512.282	0.903	tomspunt	self-doubt?	why_face	yes	yes	correct	task-tomspunt/F_111.jpg	220
513.499	0.819	tomspunt	self-doubt?	why_face	yes	yes	correct	task-tomspunt/F_584.jpg	221
514.633	0.819	tomspunt	self-doubt?	why_face	no	no	correct	task-tomspunt/F_128.jpg	222
515.767	1.136	tomspunt	self-doubt?	why_face	no	no	correct	task-tomspunt/F_774.jpg	223
520.393	2.101	tomspunt	self-protection?	block_question_presentation	n/a	n/a	n/a	n/a	224
520.393	0.3	tomspunt	self-protection?	block_question_presentation	n/a	n/a	n/a	n/a	225
520.393	0.3	tomspunt	self-protection?	block_question_presentation	n/a	n/a	n/a	n/a	226
520.393	0.3	tomspunt	self-protection?	block_question_presentation	n/a	n/a	n/a	n/a	227
520.393	0.3	tomspunt	self-protection?	block_question_presentation	n/a	n/a	n/a	n/a	228
520.393	0.3	tomspunt	self-protection?	block_question_presentation	n/a	n/a	n/a	n/a	229
520.393	0.3	tomspunt	self-protection?	block_question_presentation	n/a	n/a	n/a	n/a	230
520.393	0.3	tomspunt	self-protection?	block_question_presentation	n/a	n/a	n/a	n/a	231
525.404	0.686	tomspunt	self-protection?	why_hand	yes	yes	correct	task-tomspunt/H_581.jpg	224
526.404	0.602	tomspunt	self-protection?	why_hand	yes	yes	correct	task-tomspunt/H_443.jpg	225
527.321	0.886	tomspunt	self-protection?	why_hand	no	no	correct	task-tomspunt/H_332.jpg	226
528.521	0.686	tomspunt	self-protection?	why_hand	yes	yes	correct	task-tomspunt/H_027.jpg	227
529.522	0.836	tomspunt	self-protection?	why_hand	no	no	correct	task-tomspunt/H_532.jpg	228
530.672	0.859	tomspunt	self-protection?	why_hand	yes	yes	correct	task-tomspunt/H_189.jpg	229
531.839	0.836	tomspunt	self-protection?	why_hand	no	no	correct	task-tomspunt/H_006.jpg	230
532.99	0.741	tomspunt	self-protection?	why_hand	yes	yes	correct	task-tomspunt/H_038.jpg	231
538.616	2.101	tomspunt	lifting?	block_question_presentation	n/a	n/a	n/a	n/a	232
538.616	0.3	tomspunt	lifting?	block_question_presentation	n/a	n/a	n/a	n/a	233
538.616	0.3	tomspunt	lifting?	block_question_presentation	n/a	n/a	n/a	n/a	234
538.616	0.3	tomspunt	lifting?	block_question_presentation	n/a	n/a	n/a	n/a	235
538.616	0.3	tomspunt	lifting?	block_question_presentation	n/a	n/a	n/a	n/a	236
538.616	0.3	tomspunt	lifting?	block_question_presentation	n/a	n/a	n/a	n/a	237
538.616	0.3	tomspunt	lifting?	block_question_presentation	n/a	n/a	n/a	n/a	238
538.616	0.3	tomspunt	lifting?	block_question_presentation	n/a	n/a	n/a	n/a	239
543.627	0.821	tomspunt	lifting?	how_hand	yes	yes	correct	task-tomspunt/H_443.jpg	232
544.761	0.919	tomspunt	lifting?	how_hand	no	no	correct	task-tomspunt/H_038.jpg	233
545.995	1.053	tomspunt	lifting?	how_hand	yes	yes	correct	task-tomspunt/H_136.jpg	234
547.362	0.869	tomspunt	lifting?	how_hand	no	no	correct	task-tomspunt/H_012.jpg	235
548.546	0.67	tomspunt	lifting?	how_hand	yes	yes	correct	task-tomspunt/H_362.jpg	236
549.529	1.119	tomspunt	lifting?	how_hand	no	yes	incorrect	task-tomspunt/H_189.jpg	237
550.963	0.802	tomspunt	lifting?	how_hand	yes	yes	correct	task-tomspunt/H_170.jpg	238
552.08	1.136	tomspunt	lifting?	how_hand	no	no	correct	task-tomspunt/H_077.jpg	239
556.49	2.101	tomspunt	looking to side?	block_question_presentation	n/a	n/a	n/a	n/a	240
556.49	0.3	tomspunt	looking to side?	block_question_presentation	n/a	n/a	n/a	n/a	241
556.49	0.3	tomspunt	looking to side?	block_question_presentation	n/a	n/a	n/a	n/a	242
556.49	0.3	tomspunt	looking to side?	block_question_presentation	n/a	n/a	n/a	n/a	243
556.49	0.3	tomspunt	looking to side?	block_question_presentation	n/a	n/a	n/a	n/a	244
556.49	0.3	tomspunt	looking to side?	block_question_presentation	n/a	n/a	n/a	n/a	245
556.49	0.3	tomspunt	looking to side?	block_question_presentation	n/a	n/a	n/a	n/a	246
556.49	0.3	tomspunt	looking to side?	block_question_presentation	n/a	n/a	n/a	n/a	247
561.5	1.047	tomspunt	looking to side?	how_face	yes	yes	correct	task-tomspunt/F_716.jpg	240
562.851	0.73	tomspunt	looking to side?	how_face	no	no	correct	task-tomspunt/F_798.jpg	241
563.885	0.652	tomspunt	looking to side?	how_face	yes	yes	correct	task-tomspunt/F_760.jpg	242
564.852	0.896	tomspunt	looking to side?	how_face	yes	yes	correct	task-tomspunt/F_110.jpg	243
566.052	0.786	tomspunt	looking to side?	how_face	no	no	correct	task-tomspunt/F_779.jpg	244
567.153	0.862	tomspunt	looking to side?	how_face	yes	yes	correct	task-tomspunt/F_590.jpg	245
568.32	0.719	tomspunt	looking to side?	how_face	no	no	correct	task-tomspunt/F_111.jpg	246
569.353	0.728	tomspunt	looking to side?	how_face	yes	yes	correct	task-tomspunt/F_433.jpg	247
578.965	2.101	tomspunt	proud?	block_question_presentation	n/a	n/a	n/a	n/a	248
578.965	0.3	tomspunt	proud?	block_question_presentation	n/a	n/a	n/a	n/a	249
578.965	0.3	tomspunt	proud?	block_question_presentation	n/a	n/a	n/a	n/a	250
578.965	0.3	tomspunt	proud?	block_question_presentation	n/a	n/a	n/a	n/a	251
578.965	0.3	tomspunt	proud?	block_question_presentation	n/a	n/a	n/a	n/a	252
578.965	0.3	tomspunt	proud?	block_question_presentation	n/a	n/a	n/a	n/a	253
578.965	0.3	tomspunt	proud?	block_question_presentation	n/a	n/a	n/a	n/a	254
578.965	0.3	tomspunt	proud?	block_question_presentation	n/a	n/a	n/a	n/a	255
583.976	0.789	tomspunt	proud?	why_face	yes	yes	correct	task-tomspunt/F_083.jpg	248
585.076	0.788	tomspunt	proud?	why_face	yes	yes	correct	task-tomspunt/F_582.jpg	249
586.176	0.871	tomspunt	proud?	why_face	yes	yes	correct	task-tomspunt/F_618.jpg	250
587.36	0.836	tomspunt	proud?	why_face	no	no	correct	task-tomspunt/F_776.jpg	251
588.511	0.987	tomspunt	proud?	why_face	yes	yes	correct	task-tomspunt/F_598.jpg	252
589.811	0.87	tomspunt	proud?	why_face	no	no	correct	task-tomspunt/F_760.jpg	253
590.995	0.802	tomspunt	proud?	why_face	no	no	correct	task-tomspunt/F_412.jpg	254
592.112	1.086	tomspunt	proud?	why_face	yes	yes	correct	task-tomspunt/F_695.jpg	255
