onset	duration	run_type	trial_type	trial_index	cue	stimulusintensity	rating_value	rating_glmslabel	rating_value_fillna	rating_glmslabel_fillna	rating_mouseonset	rating_mousedur	stim_file	pain_onset_ttl1	pain_onset_ttl2	pain_onset_ttl3	pain_onset_ttl4	pain_stimulus_delivery_success	cognitive_correct_response	cognitive_participant_response	cognitive_response_accuracy
4.99	0.99	cognitive	cue	1	high_cue	n/a	n/a	n/a	n/a	n/a	n/a	n/a	n/a	n/a	n/a	n/a	n/a	n/a	n/a	n/a	n/a
7.21	2.17	cognitive	expectrating	1	high_cue	n/a	70.04	Very Strong	70.04	Very Strong	0.62	1.55	task-social/cue/runtype-cognitive/sch/h025.png	n/a	n/a	n/a	n/a	n/a	n/a	n/a	n/a
19.21	5.0	cognitive	stimulus	1	high_cue	low_stim	n/a	n/a	n/a	n/a	n/a	n/a	task-social/stim/runtype-cognitive/44_50_R.jpg	n/a	n/a	n/a	n/a	n/a	diff	diff	True
27.4	2.34	cognitive	outcomerating	1	high_cue	low_stim	17.12	Moderate	17.12	Moderate	0.48	1.85	task-social/outcomerating/task-cognitive_scale.png	n/a	n/a	n/a	n/a	n/a	n/a	n/a	n/a
39.6	0.98	cognitive	cue	2	high_cue	n/a	n/a	n/a	n/a	n/a	n/a	n/a	n/a	n/a	n/a	n/a	n/a	n/a	n/a	n/a	n/a
42.8	2.0	cognitive	expectrating	2	high_cue	n/a	102.26	Strongest sensation of any kind	102.26	Strongest sensation of any kind	0.27	1.73	task-social/cue/runtype-cognitive/sch/h006.png	n/a	n/a	n/a	n/a	n/a	n/a	n/a	n/a
50.5	5.0	cognitive	stimulus	2	high_cue	low_stim	n/a	n/a	n/a	n/a	n/a	n/a	task-social/stim/runtype-cognitive/9_50_R.jpg	n/a	n/a	n/a	n/a	n/a	diff	diff	True
61.79	1.87	cognitive	outcomerating	2	high_cue	low_stim	38.06	Strong	38.06	Strong	0.7	1.17	task-social/outcomerating/task-cognitive_scale.png	n/a	n/a	n/a	n/a	n/a	n/a	n/a	n/a
72.5	0.98	cognitive	cue	3	high_cue	n/a	n/a	n/a	n/a	n/a	n/a	n/a	n/a	n/a	n/a	n/a	n/a	n/a	n/a	n/a	n/a
74.5	2.5	cognitive	expectrating	3	high_cue	n/a	83.92	Very Strong	83.92	Very Strong	0.05	2.45	task-social/cue/runtype-cognitive/sch/h035.png	n/a	n/a	n/a	n/a	n/a	n/a	n/a	n/a
82.2	5.0	cognitive	stimulus	3	high_cue	med_stim	n/a	n/a	n/a	n/a	n/a	n/a	task-social/stim/runtype-cognitive/24_100.jpg	n/a	n/a	n/a	n/a	n/a	same	diff	False
93.1	n/a	cognitive	outcomerating	3	high_cue	med_stim	n/a	n/a	111.5	Strongest sensation of any kind	2.63	1.02	task-social/outcomerating/task-cognitive_scale.png	n/a	n/a	n/a	n/a	n/a	n/a	n/a	n/a
105.29	0.99	cognitive	cue	4	low_cue	n/a	n/a	n/a	n/a	n/a	n/a	n/a	n/a	n/a	n/a	n/a	n/a	n/a	n/a	n/a	n/a
107.29	2.94	cognitive	expectrating	4	low_cue	n/a	23.07	Moderate	23.07	Moderate	0.6	2.34	task-social/cue/runtype-cognitive/scl/l018.png	n/a	n/a	n/a	n/a	n/a	n/a	n/a	n/a
115.0	5.0	cognitive	stimulus	4	low_cue	med_stim	n/a	n/a	n/a	n/a	n/a	n/a	task-social/stim/runtype-cognitive/48_100_R.jpg	n/a	n/a	n/a	n/a	n/a	diff	same	False
123.2	2.87	cognitive	outcomerating	4	low_cue	med_stim	10.83	Moderate	10.83	Moderate	1.2	1.67	task-social/outcomerating/task-cognitive_scale.png	n/a	n/a	n/a	n/a	n/a	n/a	n/a	n/a
129.4	0.98	cognitive	cue	5	high_cue	n/a	n/a	n/a	n/a	n/a	n/a	n/a	n/a	n/a	n/a	n/a	n/a	n/a	n/a	n/a	n/a
133.3	2.42	cognitive	expectrating	5	high_cue	n/a	45.84	Strong	45.84	Strong	0.23	2.18	task-social/cue/runtype-cognitive/sch/h013.png	n/a	n/a	n/a	n/a	n/a	n/a	n/a	n/a
150.91	5.0	cognitive	stimulus	5	high_cue	high_stim	n/a	n/a	n/a	n/a	n/a	n/a	task-social/stim/runtype-cognitive/48_150.jpg	n/a	n/a	n/a	n/a	n/a	same	diff	False
163.1	2.6	cognitive	outcomerating	5	high_cue	high_stim	26.87	Moderate	26.87	Moderate	0.2	2.4	task-social/outcomerating/task-cognitive_scale.png	n/a	n/a	n/a	n/a	n/a	n/a	n/a	n/a
167.9	0.98	cognitive	cue	6	low_cue	n/a	n/a	n/a	n/a	n/a	n/a	n/a	n/a	n/a	n/a	n/a	n/a	n/a	n/a	n/a	n/a
171.1	2.73	cognitive	expectrating	6	low_cue	n/a	13.41	Moderate	13.41	Moderate	0.73	2.0	task-social/cue/runtype-cognitive/scl/l056.png	n/a	n/a	n/a	n/a	n/a	n/a	n/a	n/a
182.29	5.0	cognitive	stimulus	6	low_cue	high_stim	n/a	n/a	n/a	n/a	n/a	n/a	task-social/stim/runtype-cognitive/34_150.jpg	n/a	n/a	n/a	n/a	n/a	same	n/a	False
191.09	2.11	cognitive	outcomerating	6	low_cue	high_stim	96.55	Very Strong	96.55	Very Strong	0.53	1.58	task-social/outcomerating/task-cognitive_scale.png	n/a	n/a	n/a	n/a	n/a	n/a	n/a	n/a
200.49	0.99	cognitive	cue	7	high_cue	n/a	n/a	n/a	n/a	n/a	n/a	n/a	n/a	n/a	n/a	n/a	n/a	n/a	n/a	n/a	n/a
202.49	3.12	cognitive	expectrating	7	high_cue	n/a	98.85	Strongest sensation of any kind	98.85	Strongest sensation of any kind	0.82	2.31	task-social/cue/runtype-cognitive/sch/h026.png	n/a	n/a	n/a	n/a	n/a	n/a	n/a	n/a
214.9	5.0	cognitive	stimulus	7	high_cue	high_stim	n/a	n/a	n/a	n/a	n/a	n/a	task-social/stim/runtype-cognitive/17_150_R.jpg	n/a	n/a	n/a	n/a	n/a	diff	diff	True
226.7	3.23	cognitive	outcomerating	7	high_cue	high_stim	20.26	Moderate	20.26	Moderate	0.67	2.57	task-social/outcomerating/task-cognitive_scale.png	n/a	n/a	n/a	n/a	n/a	n/a	n/a	n/a
236.99	0.99	cognitive	cue	8	high_cue	n/a	n/a	n/a	n/a	n/a	n/a	n/a	n/a	n/a	n/a	n/a	n/a	n/a	n/a	n/a	n/a
240.19	2.52	cognitive	expectrating	8	high_cue	n/a	44.84	Strong	44.84	Strong	0.62	1.91	task-social/cue/runtype-cognitive/sch/h047.png	n/a	n/a	n/a	n/a	n/a	n/a	n/a	n/a
251.4	5.0	cognitive	stimulus	8	high_cue	med_stim	n/a	n/a	n/a	n/a	n/a	n/a	task-social/stim/runtype-cognitive/48_100.jpg	n/a	n/a	n/a	n/a	n/a	same	diff	False
262.7	3.45	cognitive	outcomerating	8	high_cue	med_stim	53.82	Strong	53.82	Strong	1.48	1.97	task-social/outcomerating/task-cognitive_scale.png	n/a	n/a	n/a	n/a	n/a	n/a	n/a	n/a
268.49	0.99	cognitive	cue	9	low_cue	n/a	n/a	n/a	n/a	n/a	n/a	n/a	n/a	n/a	n/a	n/a	n/a	n/a	n/a	n/a	n/a
271.7	2.07	cognitive	expectrating	9	low_cue	n/a	40.6	Strong	40.6	Strong	0.6	1.47	task-social/cue/runtype-cognitive/scl/l004.png	n/a	n/a	n/a	n/a	n/a	n/a	n/a	n/a
280.69	5.0	cognitive	stimulus	9	low_cue	low_stim	n/a	n/a	n/a	n/a	n/a	n/a	task-social/stim/runtype-cognitive/44_50.jpg	n/a	n/a	n/a	n/a	n/a	same	same	True
288.89	3.27	cognitive	outcomerating	9	low_cue	low_stim	27.54	Moderate	27.54	Moderate	1.48	1.79	task-social/outcomerating/task-cognitive_scale.png	n/a	n/a	n/a	n/a	n/a	n/a	n/a	n/a
296.4	0.98	cognitive	cue	10	low_cue	n/a	n/a	n/a	n/a	n/a	n/a	n/a	n/a	n/a	n/a	n/a	n/a	n/a	n/a	n/a	n/a
298.3	2.7	cognitive	expectrating	10	low_cue	n/a	36.18	Strong	36.18	Strong	0.72	1.99	task-social/cue/runtype-cognitive/scl/l047.png	n/a	n/a	n/a	n/a	n/a	n/a	n/a	n/a
308.7	5.0	cognitive	stimulus	10	low_cue	high_stim	n/a	n/a	n/a	n/a	n/a	n/a	task-social/stim/runtype-cognitive/45_150_R.jpg	n/a	n/a	n/a	n/a	n/a	diff	diff	True
320.01	3.52	cognitive	outcomerating	10	low_cue	high_stim	40.22	Strong	40.22	Strong	0.82	2.7	task-social/outcomerating/task-cognitive_scale.png	n/a	n/a	n/a	n/a	n/a	n/a	n/a	n/a
330.69	0.99	cognitive	cue	11	low_cue	n/a	n/a	n/a	n/a	n/a	n/a	n/a	n/a	n/a	n/a	n/a	n/a	n/a	n/a	n/a	n/a
332.39	3.91	cognitive	expectrating	11	low_cue	n/a	35.99	Strong	35.99	Strong	0.62	3.29	task-social/cue/runtype-cognitive/scl/l008.png	n/a	n/a	n/a	n/a	n/a	n/a	n/a	n/a
342.0	5.0	cognitive	stimulus	11	low_cue	low_stim	n/a	n/a	n/a	n/a	n/a	n/a	task-social/stim/runtype-cognitive/23_50_R.jpg	n/a	n/a	n/a	n/a	n/a	diff	diff	True
365.79	n/a	cognitive	outcomerating	11	low_cue	low_stim	n/a	n/a	27.83	Moderate	2.95	0.6	task-social/outcomerating/task-cognitive_scale.png	n/a	n/a	n/a	n/a	n/a	n/a	n/a	n/a
371.99	0.99	cognitive	cue	12	low_cue	n/a	n/a	n/a	n/a	n/a	n/a	n/a	n/a	n/a	n/a	n/a	n/a	n/a	n/a	n/a	n/a
373.59	3.74	cognitive	expectrating	12	low_cue	n/a	24.5	Moderate	24.5	Moderate	0.68	3.06	task-social/cue/runtype-cognitive/scl/l022.png	n/a	n/a	n/a	n/a	n/a	n/a	n/a	n/a
383.2	5.0	cognitive	stimulus	12	low_cue	med_stim	n/a	n/a	n/a	n/a	n/a	n/a	task-social/stim/runtype-cognitive/10_100_R.jpg	n/a	n/a	n/a	n/a	n/a	diff	same	False
395.2	n/a	cognitive	outcomerating	12	low_cue	med_stim	n/a	n/a	39.6	Strong	1.82	1.45	task-social/outcomerating/task-cognitive_scale.png	n/a	n/a	n/a	n/a	n/a	n/a	n/a	n/a
