onset	duration	run_type	trial_type	trial_index	cue	stimulusintensity	rating_value	rating_glmslabel	rating_value_fillna	rating_glmslabel_fillna	rating_mouseonset	rating_mousedur	stim_file	pain_onset_ttl1	pain_onset_ttl2	pain_onset_ttl3	pain_onset_ttl4	pain_stimulus_delivery_success	cognitive_correct_response	cognitive_participant_response	cognitive_response_accuracy
7.91	1.0	pain	cue	1	high_cue	n/a	n/a	n/a	n/a	n/a	n/a	n/a	task-social/cue/runtype-pain/sch/h026.png	n/a	n/a	n/a	n/a	n/a	n/a	n/a	n/a
10.16	2.5	pain	expectrating	1	high_cue	n/a	95.32	Very Strong	95.32	Very Strong	0.52	1.99	task-social/cue/runtype-pain/sch/h026.png	n/a	n/a	n/a	n/a	n/a	n/a	n/a	n/a
18.87	11.91	pain	stimulus	1	high_cue	low_stim	n/a	n/a	n/a	n/a	n/a	n/a	n/a	18.87	22.37	27.37	30.77	success	n/a	n/a	n/a
33.02	3.08	pain	outcomerating	1	high_cue	low_stim	28.55	Moderate	28.55	Moderate	0.52	1.99	task-social/outcomerating/task-pain_scale.png	n/a	n/a	n/a	n/a	success	n/a	n/a	n/a
37.61	1.0	pain	cue	2	low_cue	n/a	n/a	n/a	n/a	n/a	n/a	n/a	task-social/cue/runtype-pain/scl/l010.png	n/a	n/a	n/a	n/a	n/a	n/a	n/a	n/a
40.02	1.95	pain	expectrating	2	low_cue	n/a	27.77	Moderate	27.77	Moderate	0.05	1.9	task-social/cue/runtype-pain/scl/l010.png	n/a	n/a	n/a	n/a	n/a	n/a	n/a	n/a
45.46	12.36	pain	stimulus	2	low_cue	med_stim	n/a	n/a	n/a	n/a	n/a	n/a	n/a	45.46	49.22	54.22	57.83	success	n/a	n/a	n/a
57.51	2.35	pain	outcomerating	2	low_cue	med_stim	31.71	Strong	31.71	Strong	0.05	1.9	task-social/outcomerating/task-pain_scale.png	n/a	n/a	n/a	n/a	success	n/a	n/a	n/a
66.72	1.0	pain	cue	3	high_cue	n/a	n/a	n/a	n/a	n/a	n/a	n/a	task-social/cue/runtype-pain/sch/h056.png	n/a	n/a	n/a	n/a	n/a	n/a	n/a	n/a
68.92	2.2	pain	expectrating	3	high_cue	n/a	78.37	Very Strong	78.37	Very Strong	0.43	1.77	task-social/cue/runtype-pain/sch/h056.png	n/a	n/a	n/a	n/a	n/a	n/a	n/a	n/a
79.95	11.899999999999991	pain	stimulus	3	high_cue	low_stim	n/a	n/a	n/a	n/a	n/a	n/a	n/a	79.95	83.45	88.45	91.85	success	n/a	n/a	n/a
90.41	3.11	pain	outcomerating	3	high_cue	low_stim	11.13	Moderate	11.13	Moderate	0.43	1.77	task-social/outcomerating/task-pain_scale.png	n/a	n/a	n/a	n/a	success	n/a	n/a	n/a
95.51	1.0	pain	cue	4	low_cue	n/a	n/a	n/a	n/a	n/a	n/a	n/a	task-social/cue/runtype-pain/scl/l044.png	n/a	n/a	n/a	n/a	n/a	n/a	n/a	n/a
99.01	2.14	pain	expectrating	4	low_cue	n/a	29.03	Strong	29.03	Strong	0.45	1.69	task-social/cue/runtype-pain/scl/l044.png	n/a	n/a	n/a	n/a	n/a	n/a	n/a	n/a
105.63	12.370000000000005	pain	stimulus	4	low_cue	med_stim	n/a	n/a	n/a	n/a	n/a	n/a	n/a	105.63	109.39	114.39	118.0	success	n/a	n/a	n/a
120.82	2.52	pain	outcomerating	4	low_cue	med_stim	53.13	Strong	53.13	Strong	0.45	1.69	task-social/outcomerating/task-pain_scale.png	n/a	n/a	n/a	n/a	success	n/a	n/a	n/a
125.92	0.98	pain	cue	5	high_cue	n/a	n/a	n/a	n/a	n/a	n/a	n/a	task-social/cue/runtype-pain/sch/h049.png	n/a	n/a	n/a	n/a	n/a	n/a	n/a	n/a
127.64	2.75	pain	expectrating	5	high_cue	n/a	64.05	Very Strong	64.05	Very Strong	0.05	2.7	task-social/cue/runtype-pain/sch/h049.png	n/a	n/a	n/a	n/a	n/a	n/a	n/a	n/a
132.23	12.820000000000022	pain	stimulus	5	high_cue	high_stim	n/a	n/a	n/a	n/a	n/a	n/a	n/a	132.23	136.24	141.24	145.05	success	n/a	n/a	n/a
147.41	2.22	pain	outcomerating	5	high_cue	high_stim	76.47	Very Strong	76.47	Very Strong	0.05	2.7	task-social/outcomerating/task-pain_scale.png	n/a	n/a	n/a	n/a	success	n/a	n/a	n/a
152.02	1.0	pain	cue	6	low_cue	n/a	n/a	n/a	n/a	n/a	n/a	n/a	task-social/cue/runtype-pain/scl/l043.png	n/a	n/a	n/a	n/a	n/a	n/a	n/a	n/a
155.52	1.92	pain	expectrating	6	low_cue	n/a	41.0	Strong	41.0	Strong	0.58	1.33	task-social/cue/runtype-pain/scl/l043.png	n/a	n/a	n/a	n/a	n/a	n/a	n/a	n/a
167.76	11.900000000000006	pain	stimulus	6	low_cue	low_stim	n/a	n/a	n/a	n/a	n/a	n/a	n/a	167.76	171.26	176.26	179.66	success	n/a	n/a	n/a
181.91	2.79	pain	outcomerating	6	low_cue	low_stim	12.53	Moderate	12.53	Moderate	0.58	1.33	task-social/outcomerating/task-pain_scale.png	n/a	n/a	n/a	n/a	success	n/a	n/a	n/a
187.51	1.0	pain	cue	7	low_cue	n/a	n/a	n/a	n/a	n/a	n/a	n/a	task-social/cue/runtype-pain/scl/l055.png	n/a	n/a	n/a	n/a	n/a	n/a	n/a	n/a
189.71	1.87	pain	expectrating	7	low_cue	n/a	62.0	Strong	62.0	Strong	0.28	1.59	task-social/cue/runtype-pain/scl/l055.png	n/a	n/a	n/a	n/a	n/a	n/a	n/a	n/a
201.94	12.819999999999993	pain	stimulus	7	low_cue	high_stim	n/a	n/a	n/a	n/a	n/a	n/a	n/a	201.94	205.95	210.95	214.76	success	n/a	n/a	n/a
217.21	2.55	pain	outcomerating	7	low_cue	high_stim	61.06	Strong	61.06	Strong	0.28	1.59	task-social/outcomerating/task-pain_scale.png	n/a	n/a	n/a	n/a	success	n/a	n/a	n/a
223.41	1.0	pain	cue	8	low_cue	n/a	n/a	n/a	n/a	n/a	n/a	n/a	task-social/cue/runtype-pain/scl/l006.png	n/a	n/a	n/a	n/a	n/a	n/a	n/a	n/a
225.61	2.71	pain	expectrating	8	low_cue	n/a	43.22	Strong	43.22	Strong	0.63	2.07	task-social/cue/runtype-pain/scl/l006.png	n/a	n/a	n/a	n/a	n/a	n/a	n/a	n/a
230.23	11.909999999999997	pain	stimulus	8	low_cue	low_stim	n/a	n/a	n/a	n/a	n/a	n/a	n/a	230.23	233.73	238.73	242.13	success	n/a	n/a	n/a
245.52	2.27	pain	outcomerating	8	low_cue	low_stim	8.2	Weak	8.2	Weak	0.63	2.07	task-social/outcomerating/task-pain_scale.png	n/a	n/a	n/a	n/a	success	n/a	n/a	n/a
259.31	1.0	pain	cue	9	high_cue	n/a	n/a	n/a	n/a	n/a	n/a	n/a	task-social/cue/runtype-pain/sch/h005.png	n/a	n/a	n/a	n/a	n/a	n/a	n/a	n/a
262.81	3.85	pain	expectrating	9	high_cue	n/a	104.2	Strongest sensation of any kind	104.2	Strongest sensation of any kind	0.88	2.97	task-social/cue/runtype-pain/sch/h005.png	n/a	n/a	n/a	n/a	n/a	n/a	n/a	n/a
269.46	12.819999999999993	pain	stimulus	9	high_cue	high_stim	n/a	n/a	n/a	n/a	n/a	n/a	n/a	269.46	273.47	278.47	282.28	success	n/a	n/a	n/a
281.51	2.35	pain	outcomerating	9	high_cue	high_stim	44.67	Strong	44.67	Strong	0.88	2.97	task-social/outcomerating/task-pain_scale.png	n/a	n/a	n/a	n/a	success	n/a	n/a	n/a
291.72	0.98	pain	cue	10	low_cue	n/a	n/a	n/a	n/a	n/a	n/a	n/a	task-social/cue/runtype-pain/scl/l009.png	n/a	n/a	n/a	n/a	n/a	n/a	n/a	n/a
294.12	1.9	pain	expectrating	10	low_cue	n/a	24.69	Moderate	24.69	Moderate	0.48	1.42	task-social/cue/runtype-pain/scl/l009.png	n/a	n/a	n/a	n/a	n/a	n/a	n/a	n/a
299.74	12.819999999999993	pain	stimulus	10	low_cue	high_stim	n/a	n/a	n/a	n/a	n/a	n/a	n/a	299.74	303.75	308.75	312.56	success	n/a	n/a	n/a
310.21	2.51	pain	outcomerating	10	low_cue	high_stim	46.97	Strong	46.97	Strong	0.48	1.42	task-social/outcomerating/task-pain_scale.png	n/a	n/a	n/a	n/a	success	n/a	n/a	n/a
328.72	1.0	pain	cue	11	high_cue	n/a	n/a	n/a	n/a	n/a	n/a	n/a	task-social/cue/runtype-pain/sch/h010.png	n/a	n/a	n/a	n/a	n/a	n/a	n/a	n/a
331.12	2.18	pain	expectrating	11	high_cue	n/a	88.6	Very Strong	88.6	Very Strong	0.4	1.78	task-social/cue/runtype-pain/sch/h010.png	n/a	n/a	n/a	n/a	n/a	n/a	n/a	n/a
344.83	12.360000000000014	pain	stimulus	11	high_cue	med_stim	n/a	n/a	n/a	n/a	n/a	n/a	n/a	344.83	348.59	353.59	357.2	success	n/a	n/a	n/a
359.81	2.57	pain	outcomerating	11	high_cue	med_stim	19.4	Moderate	19.4	Moderate	0.4	1.78	task-social/outcomerating/task-pain_scale.png	n/a	n/a	n/a	n/a	success	n/a	n/a	n/a
369.61	1.0	pain	cue	12	high_cue	n/a	n/a	n/a	n/a	n/a	n/a	n/a	task-social/cue/runtype-pain/sch/h050.png	n/a	n/a	n/a	n/a	n/a	n/a	n/a	n/a
371.61	3.23	pain	expectrating	12	high_cue	n/a	76.3	Very Strong	76.3	Very Strong	0.45	2.78	task-social/cue/runtype-pain/sch/h050.png	n/a	n/a	n/a	n/a	n/a	n/a	n/a	n/a
382.65	12.360000000000014	pain	stimulus	12	high_cue	med_stim	n/a	n/a	n/a	n/a	n/a	n/a	n/a	382.65	386.41	391.41	395.02	success	n/a	n/a	n/a
394.82	2.35	pain	outcomerating	12	high_cue	med_stim	38.44	Strong	38.44	Strong	0.45	2.78	task-social/outcomerating/task-pain_scale.png	n/a	n/a	n/a	n/a	success	n/a	n/a	n/a
