onset	duration	run_type	trial_type	trial_index	cue	stimulusintensity	rating_value	rating_glmslabel	rating_value_fillna	rating_glmslabel_fillna	rating_mouseonset	rating_mousedur	stim_file_TODO	pain_onset_ttl1	pain_onset_ttl2	pain_onset_ttl3	pain_onset_ttl4	pain_stimulus_delivery_success	cognitive_correct_response	cognitive_participant_response	cognitive_response_accuracy
5.68	0.99	cognitive	cue	1	low_cue	n/a	n/a	n/a	n/a	n/a	n/a	n/a	task-social/cue/runtype-cognitive/scl/l044.png	n/a	n/a	n/a	n/a	n/a	n/a	n/a	n/a
9.0	n/a	cognitive	expectrating	1	low_cue	n/a	n/a	n/a	3.01	Weak	0.9	3.9	task-social/cue/runtype-cognitive/scl/l044.png	n/a	n/a	n/a	n/a	n/a	n/a	n/a	n/a
19.4	5.0	cognitive	stimulus	1	low_cue	med_stim	n/a	n/a	n/a	n/a	n/a	n/a	task-social/stim/runtype-cognitive/22_100.jpg	n/a	n/a	n/a	n/a	n/a	same	same	True
28.09	n/a	cognitive	outcomerating	1	low_cue	med_stim	n/a	n/a	3.0	Barely detectable	0.9	3.9	task-social/outcomerating/task-cognitive_scale.png	n/a	n/a	n/a	n/a	n/a	n/a	n/a	n/a
34.99	0.98	cognitive	cue	2	high_cue	n/a	n/a	n/a	n/a	n/a	n/a	n/a	task-social/cue/runtype-cognitive/sch/h034.png	n/a	n/a	n/a	n/a	n/a	n/a	n/a	n/a
37.69	n/a	cognitive	expectrating	2	high_cue	n/a	n/a	n/a	70.25	Very Strong	0.58	2.37	task-social/cue/runtype-cognitive/sch/h034.png	n/a	n/a	n/a	n/a	n/a	n/a	n/a	n/a
44.7	5.0	cognitive	stimulus	2	high_cue	low_stim	n/a	n/a	n/a	n/a	n/a	n/a	task-social/stim/runtype-cognitive/24_50.jpg	n/a	n/a	n/a	n/a	n/a	same	same	True
58.18	3.7	cognitive	outcomerating	2	high_cue	low_stim	4.13	Weak	4.13	Weak	0.58	2.37	task-social/outcomerating/task-cognitive_scale.png	n/a	n/a	n/a	n/a	n/a	n/a	n/a	n/a
62.69	0.99	cognitive	cue	3	low_cue	n/a	n/a	n/a	n/a	n/a	n/a	n/a	task-social/cue/runtype-cognitive/scl/l050.png	n/a	n/a	n/a	n/a	n/a	n/a	n/a	n/a
65.89	n/a	cognitive	expectrating	3	low_cue	n/a	n/a	n/a	14.32	Moderate	0.73	3.85	task-social/cue/runtype-cognitive/scl/l050.png	n/a	n/a	n/a	n/a	n/a	n/a	n/a	n/a
78.39	5.0	cognitive	stimulus	3	low_cue	high_stim	n/a	n/a	n/a	n/a	n/a	n/a	task-social/stim/runtype-cognitive/24_150_R.jpg	n/a	n/a	n/a	n/a	n/a	diff	diff	True
91.6	n/a	cognitive	outcomerating	3	low_cue	high_stim	n/a	n/a	3.71	Weak	0.73	3.85	task-social/outcomerating/task-cognitive_scale.png	n/a	n/a	n/a	n/a	n/a	n/a	n/a	n/a
96.08	0.99	cognitive	cue	4	high_cue	n/a	n/a	n/a	n/a	n/a	n/a	n/a	task-social/cue/runtype-cognitive/sch/h003.png	n/a	n/a	n/a	n/a	n/a	n/a	n/a	n/a
98.38	n/a	cognitive	expectrating	4	high_cue	n/a	n/a	n/a	50.05	Strong	0.82	3.43	task-social/cue/runtype-cognitive/sch/h003.png	n/a	n/a	n/a	n/a	n/a	n/a	n/a	n/a
106.59	5.0	cognitive	stimulus	4	high_cue	med_stim	n/a	n/a	n/a	n/a	n/a	n/a	task-social/stim/runtype-cognitive/9_100_R.jpg	n/a	n/a	n/a	n/a	n/a	diff	diff	True
114.79	3.26	cognitive	outcomerating	4	high_cue	med_stim	3.45	Weak	3.45	Weak	0.82	3.43	task-social/outcomerating/task-cognitive_scale.png	n/a	n/a	n/a	n/a	n/a	n/a	n/a	n/a
131.59	0.98	cognitive	cue	5	low_cue	n/a	n/a	n/a	n/a	n/a	n/a	n/a	task-social/cue/runtype-cognitive/scl/l055.png	n/a	n/a	n/a	n/a	n/a	n/a	n/a	n/a
134.3	2.72	cognitive	expectrating	5	low_cue	n/a	6.24	Weak	6.24	Weak	0.72	2.0	task-social/cue/runtype-cognitive/scl/l055.png	n/a	n/a	n/a	n/a	n/a	n/a	n/a	n/a
143.0	5.0	cognitive	stimulus	5	low_cue	med_stim	n/a	n/a	n/a	n/a	n/a	n/a	task-social/stim/runtype-cognitive/23_100_R.jpg	n/a	n/a	n/a	n/a	n/a	diff	diff	True
156.2	n/a	cognitive	outcomerating	5	low_cue	med_stim	n/a	n/a	4.36	Weak	0.72	2.0	task-social/outcomerating/task-cognitive_scale.png	n/a	n/a	n/a	n/a	n/a	n/a	n/a	n/a
163.39	0.98	cognitive	cue	6	low_cue	n/a	n/a	n/a	n/a	n/a	n/a	n/a	task-social/cue/runtype-cognitive/scl/l013.png	n/a	n/a	n/a	n/a	n/a	n/a	n/a	n/a
165.69	n/a	cognitive	expectrating	6	low_cue	n/a	n/a	n/a	8.1	Weak	0.58	2.88	task-social/cue/runtype-cognitive/scl/l013.png	n/a	n/a	n/a	n/a	n/a	n/a	n/a	n/a
180.78	5.0	cognitive	stimulus	6	low_cue	high_stim	n/a	n/a	n/a	n/a	n/a	n/a	task-social/stim/runtype-cognitive/43_150_R.jpg	n/a	n/a	n/a	n/a	n/a	diff	n/a	False
188.58	n/a	cognitive	outcomerating	6	low_cue	high_stim	n/a	n/a	52.49	Strong	0.58	2.88	task-social/outcomerating/task-cognitive_scale.png	n/a	n/a	n/a	n/a	n/a	n/a	n/a	n/a
193.38	0.99	cognitive	cue	7	high_cue	n/a	n/a	n/a	n/a	n/a	n/a	n/a	task-social/cue/runtype-cognitive/sch/h022.png	n/a	n/a	n/a	n/a	n/a	n/a	n/a	n/a
194.98	n/a	cognitive	expectrating	7	high_cue	n/a	n/a	n/a	18.29	Moderate	0.22	3.97	task-social/cue/runtype-cognitive/sch/h022.png	n/a	n/a	n/a	n/a	n/a	n/a	n/a	n/a
203.19	5.0	cognitive	stimulus	7	high_cue	high_stim	n/a	n/a	n/a	n/a	n/a	n/a	task-social/stim/runtype-cognitive/10_150.jpg	n/a	n/a	n/a	n/a	n/a	same	diff	False
227.88	n/a	cognitive	outcomerating	7	high_cue	high_stim	n/a	n/a	29.03	Strong	0.22	3.97	task-social/outcomerating/task-cognitive_scale.png	n/a	n/a	n/a	n/a	n/a	n/a	n/a	n/a
234.38	0.99	cognitive	cue	8	low_cue	n/a	n/a	n/a	n/a	n/a	n/a	n/a	task-social/cue/runtype-cognitive/scl/l030.png	n/a	n/a	n/a	n/a	n/a	n/a	n/a	n/a
235.98	n/a	cognitive	expectrating	8	low_cue	n/a	n/a	n/a	16.26	Moderate	0.82	3.43	task-social/cue/runtype-cognitive/scl/l030.png	n/a	n/a	n/a	n/a	n/a	n/a	n/a	n/a
243.89	5.0	cognitive	stimulus	8	low_cue	low_stim	n/a	n/a	n/a	n/a	n/a	n/a	task-social/stim/runtype-cognitive/17_50.jpg	n/a	n/a	n/a	n/a	n/a	same	diff	False
252.89	n/a	cognitive	outcomerating	8	low_cue	low_stim	n/a	n/a	18.43	Moderate	0.82	3.43	task-social/outcomerating/task-cognitive_scale.png	n/a	n/a	n/a	n/a	n/a	n/a	n/a	n/a
259.09	0.98	cognitive	cue	9	low_cue	n/a	n/a	n/a	n/a	n/a	n/a	n/a	task-social/cue/runtype-cognitive/scl/l046.png	n/a	n/a	n/a	n/a	n/a	n/a	n/a	n/a
260.99	n/a	cognitive	expectrating	9	low_cue	n/a	n/a	n/a	23.68	Moderate	0.42	2.38	task-social/cue/runtype-cognitive/scl/l046.png	n/a	n/a	n/a	n/a	n/a	n/a	n/a	n/a
276.08	5.0	cognitive	stimulus	9	low_cue	low_stim	n/a	n/a	n/a	n/a	n/a	n/a	task-social/stim/runtype-cognitive/34_50.jpg	n/a	n/a	n/a	n/a	n/a	same	same	True
290.99	n/a	cognitive	outcomerating	9	low_cue	low_stim	n/a	n/a	5.07	Weak	0.42	2.38	task-social/outcomerating/task-cognitive_scale.png	n/a	n/a	n/a	n/a	n/a	n/a	n/a	n/a
307.78	1.0	cognitive	cue	10	high_cue	n/a	n/a	n/a	n/a	n/a	n/a	n/a	task-social/cue/runtype-cognitive/sch/h040.png	n/a	n/a	n/a	n/a	n/a	n/a	n/a	n/a
310.99	3.23	cognitive	expectrating	10	high_cue	n/a	23.38	Moderate	23.38	Moderate	0.9	2.33	task-social/cue/runtype-cognitive/sch/h040.png	n/a	n/a	n/a	n/a	n/a	n/a	n/a	n/a
318.88	5.0	cognitive	stimulus	10	high_cue	low_stim	n/a	n/a	n/a	n/a	n/a	n/a	task-social/stim/runtype-cognitive/23_50.jpg	n/a	n/a	n/a	n/a	n/a	same	same	True
327.6	n/a	cognitive	outcomerating	10	high_cue	low_stim	n/a	n/a	14.87	Moderate	0.9	2.33	task-social/outcomerating/task-cognitive_scale.png	n/a	n/a	n/a	n/a	n/a	n/a	n/a	n/a
340.69	0.98	cognitive	cue	11	high_cue	n/a	n/a	n/a	n/a	n/a	n/a	n/a	task-social/cue/runtype-cognitive/sch/h046.png	n/a	n/a	n/a	n/a	n/a	n/a	n/a	n/a
342.59	n/a	cognitive	expectrating	11	high_cue	n/a	n/a	n/a	n/a	n/a	n/a	n/a	task-social/cue/runtype-cognitive/sch/h046.png	n/a	n/a	n/a	n/a	n/a	n/a	n/a	n/a
355.29	5.0	cognitive	stimulus	11	high_cue	med_stim	n/a	n/a	n/a	n/a	n/a	n/a	task-social/stim/runtype-cognitive/17_100_R.jpg	n/a	n/a	n/a	n/a	n/a	diff	diff	True
363.78	n/a	cognitive	outcomerating	11	high_cue	med_stim	n/a	n/a	33.69	Strong	n/a	n/a	task-social/outcomerating/task-cognitive_scale.png	n/a	n/a	n/a	n/a	n/a	n/a	n/a	n/a
371.48	0.99	cognitive	cue	12	high_cue	n/a	n/a	n/a	n/a	n/a	n/a	n/a	task-social/cue/runtype-cognitive/sch/h008.png	n/a	n/a	n/a	n/a	n/a	n/a	n/a	n/a
374.79	n/a	cognitive	expectrating	12	high_cue	n/a	n/a	n/a	38.3	Strong	0.3	3.63	task-social/cue/runtype-cognitive/sch/h008.png	n/a	n/a	n/a	n/a	n/a	n/a	n/a	n/a
387.29	5.0	cognitive	stimulus	12	high_cue	high_stim	n/a	n/a	n/a	n/a	n/a	n/a	task-social/stim/runtype-cognitive/34_150_R.jpg	n/a	n/a	n/a	n/a	n/a	diff	diff	True
395.09	n/a	cognitive	outcomerating	12	high_cue	high_stim	n/a	n/a	10.53	Moderate	0.3	3.63	task-social/outcomerating/task-cognitive_scale.png	n/a	n/a	n/a	n/a	n/a	n/a	n/a	n/a
