onset	duration	run_type	trial_type	trial_index	cue	stimulusintensity	rating_value	rating_glmslabel	rating_value_fillna	rating_glmslabel_fillna	rating_mouseonset	rating_mousedur	stim_file	pain_onset_ttl1	pain_onset_ttl2	pain_onset_ttl3	pain_onset_ttl4	pain_stimulus_delivery_success	cognitive_correct_response	cognitive_participant_response	cognitive_response_accuracy
5.69	0.99	cognitive	cue	1	high_cue	n/a	n/a	n/a	n/a	n/a	n/a	n/a	task-social/cue/runtype-cognitive/sch/h004.png	n/a	n/a	n/a	n/a	n/a	n/a	n/a	n/a
8.31	2.62	cognitive	expectrating	1	high_cue	n/a	9.69	Weak	9.69	Weak	0.68	1.94	task-social/cue/runtype-cognitive/sch/h004.png	n/a	n/a	n/a	n/a	n/a	n/a	n/a	n/a
14.9	5.0	cognitive	stimulus	1	high_cue	high_stim	n/a	n/a	n/a	n/a	n/a	n/a	task-social/stim/runtype-cognitive/44_150_R.jpg	n/a	n/a	n/a	n/a	n/a	diff	diff	True
23.9	2.47	cognitive	outcomerating	1	high_cue	high_stim	9.15	Weak	9.15	Weak	0.68	1.94	task-social/outcomerating/task-cognitive_scale.png	n/a	n/a	n/a	n/a	n/a	n/a	n/a	n/a
28.99	0.99	cognitive	cue	2	low_cue	n/a	n/a	n/a	n/a	n/a	n/a	n/a	task-social/cue/runtype-cognitive/scl/l048.png	n/a	n/a	n/a	n/a	n/a	n/a	n/a	n/a
32.0	2.25	cognitive	expectrating	2	low_cue	n/a	15.82	Moderate	15.82	Moderate	0.3	1.95	task-social/cue/runtype-cognitive/scl/l048.png	n/a	n/a	n/a	n/a	n/a	n/a	n/a	n/a
43.89	5.0	cognitive	stimulus	2	low_cue	high_stim	n/a	n/a	n/a	n/a	n/a	n/a	task-social/stim/runtype-cognitive/10_150_R.jpg	n/a	n/a	n/a	n/a	n/a	diff	diff	True
55.2	n/a	cognitive	outcomerating	2	low_cue	high_stim	n/a	n/a	13.92	Moderate	0.3	1.95	task-social/outcomerating/task-cognitive_scale.png	n/a	n/a	n/a	n/a	n/a	n/a	n/a	n/a
59.8	0.98	cognitive	cue	3	low_cue	n/a	n/a	n/a	n/a	n/a	n/a	n/a	task-social/cue/runtype-cognitive/scl/l019.png	n/a	n/a	n/a	n/a	n/a	n/a	n/a	n/a
62.2	2.2	cognitive	expectrating	3	low_cue	n/a	7.84	Weak	7.84	Weak	0.58	1.62	task-social/cue/runtype-cognitive/scl/l019.png	n/a	n/a	n/a	n/a	n/a	n/a	n/a	n/a
69.2	5.0	cognitive	stimulus	3	low_cue	high_stim	n/a	n/a	n/a	n/a	n/a	n/a	task-social/stim/runtype-cognitive/23_150_R.jpg	n/a	n/a	n/a	n/a	n/a	diff	diff	True
81.69	2.75	cognitive	outcomerating	3	low_cue	high_stim	8.16	Weak	8.16	Weak	0.58	1.62	task-social/outcomerating/task-cognitive_scale.png	n/a	n/a	n/a	n/a	n/a	n/a	n/a	n/a
94.89	0.99	cognitive	cue	4	high_cue	n/a	n/a	n/a	n/a	n/a	n/a	n/a	task-social/cue/runtype-cognitive/sch/h049.png	n/a	n/a	n/a	n/a	n/a	n/a	n/a	n/a
97.29	2.51	cognitive	expectrating	4	high_cue	n/a	18.29	Moderate	18.29	Moderate	0.88	1.62	task-social/cue/runtype-cognitive/sch/h049.png	n/a	n/a	n/a	n/a	n/a	n/a	n/a	n/a
104.5	5.0	cognitive	stimulus	4	high_cue	high_stim	n/a	n/a	n/a	n/a	n/a	n/a	task-social/stim/runtype-cognitive/33_150_R.jpg	n/a	n/a	n/a	n/a	n/a	diff	diff	True
115.4	3.25	cognitive	outcomerating	4	high_cue	high_stim	6.49	Weak	6.49	Weak	0.88	1.62	task-social/outcomerating/task-cognitive_scale.png	n/a	n/a	n/a	n/a	n/a	n/a	n/a	n/a
119.99	0.99	cognitive	cue	5	low_cue	n/a	n/a	n/a	n/a	n/a	n/a	n/a	task-social/cue/runtype-cognitive/scl/l010.png	n/a	n/a	n/a	n/a	n/a	n/a	n/a	n/a
123.0	1.93	cognitive	expectrating	5	low_cue	n/a	15.09	Moderate	15.09	Moderate	0.7	1.23	task-social/cue/runtype-cognitive/scl/l010.png	n/a	n/a	n/a	n/a	n/a	n/a	n/a	n/a
140.19	5.0	cognitive	stimulus	5	low_cue	low_stim	n/a	n/a	n/a	n/a	n/a	n/a	task-social/stim/runtype-cognitive/22_50.jpg	n/a	n/a	n/a	n/a	n/a	same	same	True
151.5	2.25	cognitive	outcomerating	5	low_cue	low_stim	3.91	Weak	3.91	Weak	0.7	1.23	task-social/outcomerating/task-cognitive_scale.png	n/a	n/a	n/a	n/a	n/a	n/a	n/a	n/a
162.39	0.99	cognitive	cue	6	high_cue	n/a	n/a	n/a	n/a	n/a	n/a	n/a	task-social/cue/runtype-cognitive/sch/h041.png	n/a	n/a	n/a	n/a	n/a	n/a	n/a	n/a
165.4	2.42	cognitive	expectrating	6	high_cue	n/a	13.31	Moderate	13.31	Moderate	0.75	1.67	task-social/cue/runtype-cognitive/sch/h041.png	n/a	n/a	n/a	n/a	n/a	n/a	n/a	n/a
191.1	5.0	cognitive	stimulus	6	high_cue	low_stim	n/a	n/a	n/a	n/a	n/a	n/a	task-social/stim/runtype-cognitive/10_50.jpg	n/a	n/a	n/a	n/a	n/a	same	same	True
207.8	n/a	cognitive	outcomerating	6	high_cue	low_stim	n/a	n/a	11.31	Moderate	0.75	1.67	task-social/outcomerating/task-cognitive_scale.png	n/a	n/a	n/a	n/a	n/a	n/a	n/a	n/a
215.39	0.99	cognitive	cue	7	low_cue	n/a	n/a	n/a	n/a	n/a	n/a	n/a	task-social/cue/runtype-cognitive/scl/l053.png	n/a	n/a	n/a	n/a	n/a	n/a	n/a	n/a
217.61	n/a	cognitive	expectrating	7	low_cue	n/a	n/a	n/a	18.51	Moderate	0.8	2.57	task-social/cue/runtype-cognitive/scl/l053.png	n/a	n/a	n/a	n/a	n/a	n/a	n/a	n/a
226.99	5.0	cognitive	stimulus	7	low_cue	med_stim	n/a	n/a	n/a	n/a	n/a	n/a	task-social/stim/runtype-cognitive/9_100.jpg	n/a	n/a	n/a	n/a	n/a	same	diff	False
240.6	n/a	cognitive	outcomerating	7	low_cue	med_stim	n/a	n/a	26.67	Moderate	0.8	2.57	task-social/outcomerating/task-cognitive_scale.png	n/a	n/a	n/a	n/a	n/a	n/a	n/a	n/a
251.69	0.99	cognitive	cue	8	high_cue	n/a	n/a	n/a	n/a	n/a	n/a	n/a	task-social/cue/runtype-cognitive/sch/h033.png	n/a	n/a	n/a	n/a	n/a	n/a	n/a	n/a
254.3	n/a	cognitive	expectrating	8	high_cue	n/a	n/a	n/a	34.07	Strong	0.55	3.18	task-social/cue/runtype-cognitive/sch/h033.png	n/a	n/a	n/a	n/a	n/a	n/a	n/a	n/a
260.89	5.0	cognitive	stimulus	8	high_cue	med_stim	n/a	n/a	n/a	n/a	n/a	n/a	task-social/stim/runtype-cognitive/33_100_R.jpg	n/a	n/a	n/a	n/a	n/a	diff	n/a	False
270.09	n/a	cognitive	outcomerating	8	high_cue	med_stim	n/a	n/a	25.64	Moderate	0.55	3.18	task-social/outcomerating/task-cognitive_scale.png	n/a	n/a	n/a	n/a	n/a	n/a	n/a	n/a
280.0	0.98	cognitive	cue	9	high_cue	n/a	n/a	n/a	n/a	n/a	n/a	n/a	task-social/cue/runtype-cognitive/sch/h017.png	n/a	n/a	n/a	n/a	n/a	n/a	n/a	n/a
281.9	n/a	cognitive	expectrating	9	high_cue	n/a	n/a	n/a	54.46	Strong	2.72	3.08	task-social/cue/runtype-cognitive/sch/h017.png	n/a	n/a	n/a	n/a	n/a	n/a	n/a	n/a
289.9	5.0	cognitive	stimulus	9	high_cue	med_stim	n/a	n/a	n/a	n/a	n/a	n/a	task-social/stim/runtype-cognitive/10_100.jpg	n/a	n/a	n/a	n/a	n/a	same	same	True
299.3	n/a	cognitive	outcomerating	9	high_cue	med_stim	n/a	n/a	19.02	Moderate	2.72	3.08	task-social/outcomerating/task-cognitive_scale.png	n/a	n/a	n/a	n/a	n/a	n/a	n/a	n/a
308.39	0.99	cognitive	cue	10	low_cue	n/a	n/a	n/a	n/a	n/a	n/a	n/a	task-social/cue/runtype-cognitive/scl/l028.png	n/a	n/a	n/a	n/a	n/a	n/a	n/a	n/a
311.39	n/a	cognitive	expectrating	10	low_cue	n/a	n/a	n/a	16.32	Moderate	0.88	2.48	task-social/cue/runtype-cognitive/scl/l028.png	n/a	n/a	n/a	n/a	n/a	n/a	n/a	n/a
318.99	5.0	cognitive	stimulus	10	low_cue	med_stim	n/a	n/a	n/a	n/a	n/a	n/a	task-social/stim/runtype-cognitive/17_100.jpg	n/a	n/a	n/a	n/a	n/a	same	same	True
331.5	n/a	cognitive	outcomerating	10	low_cue	med_stim	n/a	n/a	12.03	Moderate	0.88	2.48	task-social/outcomerating/task-cognitive_scale.png	n/a	n/a	n/a	n/a	n/a	n/a	n/a	n/a
341.09	0.99	cognitive	cue	11	high_cue	n/a	n/a	n/a	n/a	n/a	n/a	n/a	task-social/cue/runtype-cognitive/sch/h054.png	n/a	n/a	n/a	n/a	n/a	n/a	n/a	n/a
343.0	n/a	cognitive	expectrating	11	high_cue	n/a	n/a	n/a	32.85	Strong	0.17	1.9	task-social/cue/runtype-cognitive/sch/h054.png	n/a	n/a	n/a	n/a	n/a	n/a	n/a	n/a
354.89	5.0	cognitive	stimulus	11	high_cue	low_stim	n/a	n/a	n/a	n/a	n/a	n/a	task-social/stim/runtype-cognitive/17_50_R.jpg	n/a	n/a	n/a	n/a	n/a	diff	diff	True
364.69	n/a	cognitive	outcomerating	11	high_cue	low_stim	n/a	n/a	8.29	Weak	0.17	1.9	task-social/outcomerating/task-cognitive_scale.png	n/a	n/a	n/a	n/a	n/a	n/a	n/a	n/a
374.3	0.98	cognitive	cue	12	low_cue	n/a	n/a	n/a	n/a	n/a	n/a	n/a	task-social/cue/runtype-cognitive/scl/l011.png	n/a	n/a	n/a	n/a	n/a	n/a	n/a	n/a
376.2	n/a	cognitive	expectrating	12	low_cue	n/a	n/a	n/a	6.01	Weak	0.4	1.48	task-social/cue/runtype-cognitive/scl/l011.png	n/a	n/a	n/a	n/a	n/a	n/a	n/a	n/a
383.0	5.0	cognitive	stimulus	12	low_cue	low_stim	n/a	n/a	n/a	n/a	n/a	n/a	task-social/stim/runtype-cognitive/10_50_R.jpg	n/a	n/a	n/a	n/a	n/a	diff	diff	True
394.99	n/a	cognitive	outcomerating	12	low_cue	low_stim	n/a	n/a	8.36	Weak	0.4	1.48	task-social/outcomerating/task-cognitive_scale.png	n/a	n/a	n/a	n/a	n/a	n/a	n/a	n/a
