onset	duration	run_type	trial_type	trial_index	cue	stimulusintensity	rating_value	rating_glmslabel	rating_value_fillna	rating_glmslabel_fillna	rating_mouseonset	rating_mousedur	stim_file_TODO	pain_onset_ttl1	pain_onset_ttl2	pain_onset_ttl3	pain_onset_ttl4	pain_stimulus_delivery_success	cognitive_correct_response	cognitive_participant_response	cognitive_response_accuracy
10.11	0.98	cognitive	cue	1	high_cue	n/a	n/a	n/a	n/a	n/a	n/a	n/a	task-social/cue/runtype-cognitive/sch/h049.png	n/a	n/a	n/a	n/a	n/a	n/a	n/a	n/a
12.42	n/a	cognitive	expectrating	1	high_cue	n/a	n/a	n/a	71.93	Very Strong	0.07	3.5	task-social/cue/runtype-cognitive/sch/h049.png	n/a	n/a	n/a	n/a	n/a	n/a	n/a	n/a
20.21	5.0	cognitive	stimulus	1	high_cue	med_stim	n/a	n/a	n/a	n/a	n/a	n/a	task-social/stim/runtype-cognitive/29_100.jpg	n/a	n/a	n/a	n/a	n/a	same	same	True
31.5	2.93	cognitive	outcomerating	1	high_cue	med_stim	33.56	Strong	33.56	Strong	0.07	3.5	task-social/outcomerating/task-cognitive_scale.png	n/a	n/a	n/a	n/a	n/a	n/a	n/a	n/a
36.3	0.99	cognitive	cue	2	high_cue	n/a	n/a	n/a	n/a	n/a	n/a	n/a	task-social/cue/runtype-cognitive/sch/h007.png	n/a	n/a	n/a	n/a	n/a	n/a	n/a	n/a
39.2	1.54	cognitive	expectrating	2	high_cue	n/a	70.11	Very Strong	70.11	Very Strong	0.42	1.12	task-social/cue/runtype-cognitive/sch/h007.png	n/a	n/a	n/a	n/a	n/a	n/a	n/a	n/a
47.5	5.0	cognitive	stimulus	2	high_cue	low_stim	n/a	n/a	n/a	n/a	n/a	n/a	task-social/stim/runtype-cognitive/39_50_R.jpg	n/a	n/a	n/a	n/a	n/a	diff	n/a	False
55.81	3.72	cognitive	outcomerating	2	high_cue	low_stim	63.75	Strong	63.75	Strong	0.42	1.12	task-social/outcomerating/task-cognitive_scale.png	n/a	n/a	n/a	n/a	n/a	n/a	n/a	n/a
68.39	0.99	cognitive	cue	3	low_cue	n/a	n/a	n/a	n/a	n/a	n/a	n/a	task-social/cue/runtype-cognitive/scl/l037.png	n/a	n/a	n/a	n/a	n/a	n/a	n/a	n/a
71.31	1.48	cognitive	expectrating	3	low_cue	n/a	37.98	Strong	37.98	Strong	0.37	1.12	task-social/cue/runtype-cognitive/scl/l037.png	n/a	n/a	n/a	n/a	n/a	n/a	n/a	n/a
80.5	5.0	cognitive	stimulus	3	low_cue	med_stim	n/a	n/a	n/a	n/a	n/a	n/a	task-social/stim/runtype-cognitive/17_100_R.jpg	n/a	n/a	n/a	n/a	n/a	diff	same	False
96.4	3.59	cognitive	outcomerating	3	low_cue	med_stim	26.77	Moderate	26.77	Moderate	0.37	1.12	task-social/outcomerating/task-cognitive_scale.png	n/a	n/a	n/a	n/a	n/a	n/a	n/a	n/a
103.09	1.0	cognitive	cue	4	high_cue	n/a	n/a	n/a	n/a	n/a	n/a	n/a	task-social/cue/runtype-cognitive/sch/h030.png	n/a	n/a	n/a	n/a	n/a	n/a	n/a	n/a
106.01	1.7	cognitive	expectrating	4	high_cue	n/a	69.36	Very Strong	69.36	Very Strong	0.42	1.28	task-social/cue/runtype-cognitive/sch/h030.png	n/a	n/a	n/a	n/a	n/a	n/a	n/a	n/a
115.19	5.0	cognitive	stimulus	4	high_cue	high_stim	n/a	n/a	n/a	n/a	n/a	n/a	task-social/stim/runtype-cognitive/27_150.jpg	n/a	n/a	n/a	n/a	n/a	same	same	True
127.02	2.74	cognitive	outcomerating	4	high_cue	high_stim	27.73	Moderate	27.73	Moderate	0.42	1.28	task-social/outcomerating/task-cognitive_scale.png	n/a	n/a	n/a	n/a	n/a	n/a	n/a	n/a
139.6	0.98	cognitive	cue	5	high_cue	n/a	n/a	n/a	n/a	n/a	n/a	n/a	task-social/cue/runtype-cognitive/sch/h044.png	n/a	n/a	n/a	n/a	n/a	n/a	n/a	n/a
141.7	n/a	cognitive	expectrating	5	high_cue	n/a	n/a	n/a	0.0	n/a	2.43	3.38	task-social/cue/runtype-cognitive/sch/h044.png	n/a	n/a	n/a	n/a	n/a	n/a	n/a	n/a
159.81	5.0	cognitive	stimulus	5	high_cue	high_stim	n/a	n/a	n/a	n/a	n/a	n/a	task-social/stim/runtype-cognitive/8_150_R.jpg	n/a	n/a	n/a	n/a	n/a	diff	diff	True
169.7	2.06	cognitive	outcomerating	5	high_cue	high_stim	36.96	Strong	36.96	Strong	2.43	3.38	task-social/outcomerating/task-cognitive_scale.png	n/a	n/a	n/a	n/a	n/a	n/a	n/a	n/a
175.7	0.99	cognitive	cue	6	low_cue	n/a	n/a	n/a	n/a	n/a	n/a	n/a	task-social/cue/runtype-cognitive/scl/l036.png	n/a	n/a	n/a	n/a	n/a	n/a	n/a	n/a
178.5	2.19	cognitive	expectrating	6	low_cue	n/a	27.93	Moderate	27.93	Moderate	0.9	1.29	task-social/cue/runtype-cognitive/scl/l036.png	n/a	n/a	n/a	n/a	n/a	n/a	n/a	n/a
187.7	5.0	cognitive	stimulus	6	low_cue	high_stim	n/a	n/a	n/a	n/a	n/a	n/a	task-social/stim/runtype-cognitive/12_150.jpg	n/a	n/a	n/a	n/a	n/a	same	same	True
196.01	2.65	cognitive	outcomerating	6	low_cue	high_stim	15.36	Moderate	15.36	Moderate	0.9	1.29	task-social/outcomerating/task-cognitive_scale.png	n/a	n/a	n/a	n/a	n/a	n/a	n/a	n/a
203.09	0.99	cognitive	cue	7	high_cue	n/a	n/a	n/a	n/a	n/a	n/a	n/a	task-social/cue/runtype-cognitive/sch/h027.png	n/a	n/a	n/a	n/a	n/a	n/a	n/a	n/a
205.39	1.81	cognitive	expectrating	7	high_cue	n/a	94.82	Very Strong	94.82	Very Strong	0.73	1.08	task-social/cue/runtype-cognitive/sch/h027.png	n/a	n/a	n/a	n/a	n/a	n/a	n/a	n/a
217.6	5.0	cognitive	stimulus	7	high_cue	med_stim	n/a	n/a	n/a	n/a	n/a	n/a	task-social/stim/runtype-cognitive/6_100.jpg	n/a	n/a	n/a	n/a	n/a	same	diff	False
230.0	2.42	cognitive	outcomerating	7	high_cue	med_stim	52.21	Strong	52.21	Strong	0.73	1.08	task-social/outcomerating/task-cognitive_scale.png	n/a	n/a	n/a	n/a	n/a	n/a	n/a	n/a
235.81	0.98	cognitive	cue	8	high_cue	n/a	n/a	n/a	n/a	n/a	n/a	n/a	task-social/cue/runtype-cognitive/sch/h047.png	n/a	n/a	n/a	n/a	n/a	n/a	n/a	n/a
237.81	1.32	cognitive	expectrating	8	high_cue	n/a	86.95	Very Strong	86.95	Very Strong	0.35	0.97	task-social/cue/runtype-cognitive/sch/h047.png	n/a	n/a	n/a	n/a	n/a	n/a	n/a	n/a
245.29	5.0	cognitive	stimulus	8	high_cue	low_stim	n/a	n/a	n/a	n/a	n/a	n/a	task-social/stim/runtype-cognitive/29_50.jpg	n/a	n/a	n/a	n/a	n/a	same	same	True
257.0	2.07	cognitive	outcomerating	8	high_cue	low_stim	31.25	Strong	31.25	Strong	0.35	0.97	task-social/outcomerating/task-cognitive_scale.png	n/a	n/a	n/a	n/a	n/a	n/a	n/a	n/a
262.8	0.99	cognitive	cue	9	low_cue	n/a	n/a	n/a	n/a	n/a	n/a	n/a	task-social/cue/runtype-cognitive/scl/l018.png	n/a	n/a	n/a	n/a	n/a	n/a	n/a	n/a
265.0	2.04	cognitive	expectrating	9	low_cue	n/a	14.2	Moderate	14.2	Moderate	0.68	1.35	task-social/cue/runtype-cognitive/scl/l018.png	n/a	n/a	n/a	n/a	n/a	n/a	n/a	n/a
272.8	5.0	cognitive	stimulus	9	low_cue	high_stim	n/a	n/a	n/a	n/a	n/a	n/a	task-social/stim/runtype-cognitive/41_150.jpg	n/a	n/a	n/a	n/a	n/a	same	same	True
289.81	2.88	cognitive	outcomerating	9	low_cue	high_stim	17.85	Moderate	17.85	Moderate	0.68	1.35	task-social/outcomerating/task-cognitive_scale.png	n/a	n/a	n/a	n/a	n/a	n/a	n/a	n/a
294.59	0.99	cognitive	cue	10	low_cue	n/a	n/a	n/a	n/a	n/a	n/a	n/a	task-social/cue/runtype-cognitive/scl/l043.png	n/a	n/a	n/a	n/a	n/a	n/a	n/a	n/a
297.5	1.61	cognitive	expectrating	10	low_cue	n/a	23.89	Moderate	23.89	Moderate	0.45	1.16	task-social/cue/runtype-cognitive/scl/l043.png	n/a	n/a	n/a	n/a	n/a	n/a	n/a	n/a
308.9	5.0	cognitive	stimulus	10	low_cue	low_stim	n/a	n/a	n/a	n/a	n/a	n/a	task-social/stim/runtype-cognitive/6_50_R.jpg	n/a	n/a	n/a	n/a	n/a	diff	diff	True
318.8	2.08	cognitive	outcomerating	10	low_cue	low_stim	15.34	Moderate	15.34	Moderate	0.45	1.16	task-social/outcomerating/task-cognitive_scale.png	n/a	n/a	n/a	n/a	n/a	n/a	n/a	n/a
332.99	0.99	cognitive	cue	11	low_cue	n/a	n/a	n/a	n/a	n/a	n/a	n/a	task-social/cue/runtype-cognitive/scl/l001.png	n/a	n/a	n/a	n/a	n/a	n/a	n/a	n/a
335.59	1.53	cognitive	expectrating	11	low_cue	n/a	31.16	Strong	31.16	Strong	0.47	1.07	task-social/cue/runtype-cognitive/scl/l001.png	n/a	n/a	n/a	n/a	n/a	n/a	n/a	n/a
353.7	5.0	cognitive	stimulus	11	low_cue	low_stim	n/a	n/a	n/a	n/a	n/a	n/a	task-social/stim/runtype-cognitive/17_50_R.jpg	n/a	n/a	n/a	n/a	n/a	diff	diff	True
362.0	n/a	cognitive	outcomerating	11	low_cue	low_stim	n/a	n/a	12.3	Moderate	0.47	1.07	task-social/outcomerating/task-cognitive_scale.png	n/a	n/a	n/a	n/a	n/a	n/a	n/a	n/a
372.29	1.0	cognitive	cue	12	low_cue	n/a	n/a	n/a	n/a	n/a	n/a	n/a	task-social/cue/runtype-cognitive/scl/l047.png	n/a	n/a	n/a	n/a	n/a	n/a	n/a	n/a
374.31	1.35	cognitive	expectrating	12	low_cue	n/a	42.71	Strong	42.71	Strong	0.07	1.28	task-social/cue/runtype-cognitive/scl/l047.png	n/a	n/a	n/a	n/a	n/a	n/a	n/a	n/a
381.39	5.0	cognitive	stimulus	12	low_cue	med_stim	n/a	n/a	n/a	n/a	n/a	n/a	task-social/stim/runtype-cognitive/12_100.jpg	n/a	n/a	n/a	n/a	n/a	same	same	True
394.8	1.72	cognitive	outcomerating	12	low_cue	med_stim	12.8	Moderate	12.8	Moderate	0.07	1.28	task-social/outcomerating/task-cognitive_scale.png	n/a	n/a	n/a	n/a	n/a	n/a	n/a	n/a
