onset	duration	run_type	trial_type	trial_index	cue	stimulusintensity	rating_value	rating_glmslabel	rating_value_fillna	rating_glmslabel_fillna	rating_mouseonset	rating_mousedur	stim_file_TODO	pain_onset_ttl1	pain_onset_ttl2	pain_onset_ttl3	pain_onset_ttl4	pain_stimulus_delivery_success	cognitive_correct_response	cognitive_participant_response	cognitive_response_accuracy
10.09	0.99	cognitive	cue	1	high_cue	n/a	n/a	n/a	n/a	n/a	n/a	n/a	task-social/cue/runtype-cognitive/sch/h049.png	n/a	n/a	n/a	n/a	n/a	n/a	n/a	n/a
12.41	3.44	cognitive	expectrating	1	high_cue	n/a	22.96	Moderate	22.96	Moderate	1.03	2.4	task-social/cue/runtype-cognitive/sch/h049.png	n/a	n/a	n/a	n/a	n/a	n/a	n/a	n/a
20.21	5.0	cognitive	stimulus	1	high_cue	med_stim	n/a	n/a	n/a	n/a	n/a	n/a	task-social/stim/runtype-cognitive/29_100.jpg	n/a	n/a	n/a	n/a	n/a	same	diff	False
31.5	3.83	cognitive	outcomerating	1	high_cue	med_stim	37.01	Strong	37.01	Strong	1.03	2.4	task-social/outcomerating/task-cognitive_scale.png	n/a	n/a	n/a	n/a	n/a	n/a	n/a	n/a
36.3	0.98	cognitive	cue	2	high_cue	n/a	n/a	n/a	n/a	n/a	n/a	n/a	task-social/cue/runtype-cognitive/sch/h007.png	n/a	n/a	n/a	n/a	n/a	n/a	n/a	n/a
39.2	2.05	cognitive	expectrating	2	high_cue	n/a	14.71	Moderate	14.71	Moderate	0.57	1.48	task-social/cue/runtype-cognitive/sch/h007.png	n/a	n/a	n/a	n/a	n/a	n/a	n/a	n/a
47.49	5.0	cognitive	stimulus	2	high_cue	low_stim	n/a	n/a	n/a	n/a	n/a	n/a	task-social/stim/runtype-cognitive/39_50_R.jpg	n/a	n/a	n/a	n/a	n/a	diff	diff	True
55.79	n/a	cognitive	outcomerating	2	high_cue	low_stim	n/a	n/a	15.32	Moderate	0.57	1.48	task-social/outcomerating/task-cognitive_scale.png	n/a	n/a	n/a	n/a	n/a	n/a	n/a	n/a
68.4	0.99	cognitive	cue	3	low_cue	n/a	n/a	n/a	n/a	n/a	n/a	n/a	task-social/cue/runtype-cognitive/scl/l037.png	n/a	n/a	n/a	n/a	n/a	n/a	n/a	n/a
71.3	3.87	cognitive	expectrating	3	low_cue	n/a	12.03	Moderate	12.03	Moderate	1.25	2.62	task-social/cue/runtype-cognitive/scl/l037.png	n/a	n/a	n/a	n/a	n/a	n/a	n/a	n/a
80.5	5.0	cognitive	stimulus	3	low_cue	med_stim	n/a	n/a	n/a	n/a	n/a	n/a	task-social/stim/runtype-cognitive/17_100_R.jpg	n/a	n/a	n/a	n/a	n/a	diff	diff	True
96.39	2.7	cognitive	outcomerating	3	low_cue	med_stim	15.6	Moderate	15.6	Moderate	1.25	2.62	task-social/outcomerating/task-cognitive_scale.png	n/a	n/a	n/a	n/a	n/a	n/a	n/a	n/a
103.09	0.99	cognitive	cue	4	high_cue	n/a	n/a	n/a	n/a	n/a	n/a	n/a	task-social/cue/runtype-cognitive/sch/h030.png	n/a	n/a	n/a	n/a	n/a	n/a	n/a	n/a
106.01	2.6	cognitive	expectrating	4	high_cue	n/a	10.49	Moderate	10.49	Moderate	1.22	1.38	task-social/cue/runtype-cognitive/sch/h030.png	n/a	n/a	n/a	n/a	n/a	n/a	n/a	n/a
115.2	5.0	cognitive	stimulus	4	high_cue	high_stim	n/a	n/a	n/a	n/a	n/a	n/a	task-social/stim/runtype-cognitive/27_150.jpg	n/a	n/a	n/a	n/a	n/a	same	same	True
127.0	3.78	cognitive	outcomerating	4	high_cue	high_stim	8.36	Weak	8.36	Weak	1.22	1.38	task-social/outcomerating/task-cognitive_scale.png	n/a	n/a	n/a	n/a	n/a	n/a	n/a	n/a
139.59	0.99	cognitive	cue	5	high_cue	n/a	n/a	n/a	n/a	n/a	n/a	n/a	task-social/cue/runtype-cognitive/sch/h044.png	n/a	n/a	n/a	n/a	n/a	n/a	n/a	n/a
141.69	3.92	cognitive	expectrating	5	high_cue	n/a	17.49	Moderate	17.49	Moderate	0.68	3.24	task-social/cue/runtype-cognitive/sch/h044.png	n/a	n/a	n/a	n/a	n/a	n/a	n/a	n/a
159.8	5.0	cognitive	stimulus	5	high_cue	high_stim	n/a	n/a	n/a	n/a	n/a	n/a	task-social/stim/runtype-cognitive/8_150_R.jpg	n/a	n/a	n/a	n/a	n/a	diff	n/a	False
169.7	1.62	cognitive	outcomerating	5	high_cue	high_stim	10.14	Moderate	10.14	Moderate	0.68	3.24	task-social/outcomerating/task-cognitive_scale.png	n/a	n/a	n/a	n/a	n/a	n/a	n/a	n/a
175.7	0.98	cognitive	cue	6	low_cue	n/a	n/a	n/a	n/a	n/a	n/a	n/a	task-social/cue/runtype-cognitive/scl/l036.png	n/a	n/a	n/a	n/a	n/a	n/a	n/a	n/a
178.5	3.64	cognitive	expectrating	6	low_cue	n/a	16.32	Moderate	16.32	Moderate	0.72	2.92	task-social/cue/runtype-cognitive/scl/l036.png	n/a	n/a	n/a	n/a	n/a	n/a	n/a	n/a
187.69	5.0	cognitive	stimulus	6	low_cue	high_stim	n/a	n/a	n/a	n/a	n/a	n/a	task-social/stim/runtype-cognitive/12_150.jpg	n/a	n/a	n/a	n/a	n/a	same	same	True
196.01	3.4	cognitive	outcomerating	6	low_cue	high_stim	19.09	Moderate	19.09	Moderate	0.72	2.92	task-social/outcomerating/task-cognitive_scale.png	n/a	n/a	n/a	n/a	n/a	n/a	n/a	n/a
203.1	0.99	cognitive	cue	7	high_cue	n/a	n/a	n/a	n/a	n/a	n/a	n/a	task-social/cue/runtype-cognitive/sch/h027.png	n/a	n/a	n/a	n/a	n/a	n/a	n/a	n/a
205.4	3.85	cognitive	expectrating	7	high_cue	n/a	2.99	Barely detectable	2.99	Barely detectable	1.18	2.67	task-social/cue/runtype-cognitive/sch/h027.png	n/a	n/a	n/a	n/a	n/a	n/a	n/a	n/a
217.6	5.0	cognitive	stimulus	7	high_cue	med_stim	n/a	n/a	n/a	n/a	n/a	n/a	task-social/stim/runtype-cognitive/6_100.jpg	n/a	n/a	n/a	n/a	n/a	same	same	True
230.01	n/a	cognitive	outcomerating	7	high_cue	med_stim	n/a	n/a	9.01	Weak	1.18	2.67	task-social/outcomerating/task-cognitive_scale.png	n/a	n/a	n/a	n/a	n/a	n/a	n/a	n/a
235.79	0.99	cognitive	cue	8	high_cue	n/a	n/a	n/a	n/a	n/a	n/a	n/a	task-social/cue/runtype-cognitive/sch/h047.png	n/a	n/a	n/a	n/a	n/a	n/a	n/a	n/a
237.79	2.38	cognitive	expectrating	8	high_cue	n/a	4.74	Weak	4.74	Weak	1.22	1.17	task-social/cue/runtype-cognitive/sch/h047.png	n/a	n/a	n/a	n/a	n/a	n/a	n/a	n/a
245.3	5.0	cognitive	stimulus	8	high_cue	low_stim	n/a	n/a	n/a	n/a	n/a	n/a	task-social/stim/runtype-cognitive/29_50.jpg	n/a	n/a	n/a	n/a	n/a	same	same	True
257.0	1.4	cognitive	outcomerating	8	high_cue	low_stim	0.0	n/a	0.0	n/a	1.22	1.17	task-social/outcomerating/task-cognitive_scale.png	n/a	n/a	n/a	n/a	n/a	n/a	n/a	n/a
262.8	0.98	cognitive	cue	9	low_cue	n/a	n/a	n/a	n/a	n/a	n/a	n/a	task-social/cue/runtype-cognitive/scl/l018.png	n/a	n/a	n/a	n/a	n/a	n/a	n/a	n/a
265.0	n/a	cognitive	expectrating	9	low_cue	n/a	n/a	n/a	18.95	Moderate	2.47	3.52	task-social/cue/runtype-cognitive/scl/l018.png	n/a	n/a	n/a	n/a	n/a	n/a	n/a	n/a
272.79	5.0	cognitive	stimulus	9	low_cue	high_stim	n/a	n/a	n/a	n/a	n/a	n/a	task-social/stim/runtype-cognitive/41_150.jpg	n/a	n/a	n/a	n/a	n/a	same	same	True
289.8	2.13	cognitive	outcomerating	9	low_cue	high_stim	17.34	Moderate	17.34	Moderate	2.47	3.52	task-social/outcomerating/task-cognitive_scale.png	n/a	n/a	n/a	n/a	n/a	n/a	n/a	n/a
294.6	0.98	cognitive	cue	10	low_cue	n/a	n/a	n/a	n/a	n/a	n/a	n/a	task-social/cue/runtype-cognitive/scl/l043.png	n/a	n/a	n/a	n/a	n/a	n/a	n/a	n/a
297.5	3.55	cognitive	expectrating	10	low_cue	n/a	9.65	Weak	9.65	Weak	0.15	3.4	task-social/cue/runtype-cognitive/scl/l043.png	n/a	n/a	n/a	n/a	n/a	n/a	n/a	n/a
308.9	5.0	cognitive	stimulus	10	low_cue	low_stim	n/a	n/a	n/a	n/a	n/a	n/a	task-social/stim/runtype-cognitive/6_50_R.jpg	n/a	n/a	n/a	n/a	n/a	diff	diff	True
318.79	3.3	cognitive	outcomerating	10	low_cue	low_stim	2.78	Barely detectable	2.78	Barely detectable	0.15	3.4	task-social/outcomerating/task-cognitive_scale.png	n/a	n/a	n/a	n/a	n/a	n/a	n/a	n/a
332.99	0.99	cognitive	cue	11	low_cue	n/a	n/a	n/a	n/a	n/a	n/a	n/a	task-social/cue/runtype-cognitive/scl/l001.png	n/a	n/a	n/a	n/a	n/a	n/a	n/a	n/a
335.6	2.07	cognitive	expectrating	11	low_cue	n/a	6.24	Weak	6.24	Weak	0.75	1.32	task-social/cue/runtype-cognitive/scl/l001.png	n/a	n/a	n/a	n/a	n/a	n/a	n/a	n/a
353.7	5.0	cognitive	stimulus	11	low_cue	low_stim	n/a	n/a	n/a	n/a	n/a	n/a	task-social/stim/runtype-cognitive/17_50_R.jpg	n/a	n/a	n/a	n/a	n/a	diff	diff	True
362.01	n/a	cognitive	outcomerating	11	low_cue	low_stim	n/a	n/a	4.63	Weak	0.75	1.32	task-social/outcomerating/task-cognitive_scale.png	n/a	n/a	n/a	n/a	n/a	n/a	n/a	n/a
372.29	0.99	cognitive	cue	12	low_cue	n/a	n/a	n/a	n/a	n/a	n/a	n/a	task-social/cue/runtype-cognitive/scl/l047.png	n/a	n/a	n/a	n/a	n/a	n/a	n/a	n/a
374.31	3.58	cognitive	expectrating	12	low_cue	n/a	3.03	Weak	3.03	Weak	0.05	3.53	task-social/cue/runtype-cognitive/scl/l047.png	n/a	n/a	n/a	n/a	n/a	n/a	n/a	n/a
381.4	5.0	cognitive	stimulus	12	low_cue	med_stim	n/a	n/a	n/a	n/a	n/a	n/a	task-social/stim/runtype-cognitive/12_100.jpg	n/a	n/a	n/a	n/a	n/a	same	same	True
394.8	1.67	cognitive	outcomerating	12	low_cue	med_stim	0.0	n/a	0.0	n/a	0.05	3.53	task-social/outcomerating/task-cognitive_scale.png	n/a	n/a	n/a	n/a	n/a	n/a	n/a	n/a
