onset	duration	run_type	trial_type	trial_index	cue	stimulusintensity	rating_value	rating_glmslabel	rating_value_fillna	rating_glmslabel_fillna	rating_mouseonset	rating_mousedur	stim_file	pain_onset_ttl1	pain_onset_ttl2	pain_onset_ttl3	pain_onset_ttl4	pain_stimulus_delivery_success	cognitive_correct_response	cognitive_participant_response	cognitive_response_accuracy
3.4	1.0	pain	cue	1	low_cue	n/a	n/a	n/a	n/a	n/a	n/a	n/a	task-social/cue/runtype-pain/scl/l027.png	n/a	n/a	n/a	n/a	n/a	n/a	n/a	n/a
6.11	2.84	pain	expectrating	1	low_cue	n/a	28.52	Moderate	28.52	Moderate	0.82	2.02	task-social/cue/runtype-pain/scl/l027.png	n/a	n/a	n/a	n/a	n/a	n/a	n/a	n/a
16.51	12.819999999999997	pain	stimulus	1	low_cue	high_stim	n/a	n/a	n/a	n/a	n/a	n/a	n/a	16.51	20.52	25.52	29.33	success	n/a	n/a	n/a
32.59	n/a	pain	outcomerating	1	low_cue	high_stim	n/a	n/a	74.28	Very Strong	1.5	2.4	task-social/outcomerating/task-pain_scale.png	n/a	n/a	n/a	n/a	success	n/a	n/a	n/a
41.59	1.0	pain	cue	2	high_cue	n/a	n/a	n/a	n/a	n/a	n/a	n/a	task-social/cue/runtype-pain/sch/h036.png	n/a	n/a	n/a	n/a	n/a	n/a	n/a	n/a
44.69	n/a	pain	expectrating	2	high_cue	n/a	n/a	n/a	78.4	Very Strong	1.05	3.88	task-social/cue/runtype-pain/sch/h036.png	n/a	n/a	n/a	n/a	n/a	n/a	n/a	n/a
53.21	12.369999999999997	pain	stimulus	2	high_cue	med_stim	n/a	n/a	n/a	n/a	n/a	n/a	n/a	53.21	56.97	61.97	65.58	success	n/a	n/a	n/a
69.29	n/a	pain	outcomerating	2	high_cue	med_stim	n/a	n/a	60.45	Strong	1.1	2.48	task-social/outcomerating/task-pain_scale.png	n/a	n/a	n/a	n/a	success	n/a	n/a	n/a
78.39	1.0	pain	cue	3	low_cue	n/a	n/a	n/a	n/a	n/a	n/a	n/a	task-social/cue/runtype-pain/scl/l032.png	n/a	n/a	n/a	n/a	n/a	n/a	n/a	n/a
81.49	2.96	pain	expectrating	3	low_cue	n/a	25.94	Moderate	25.94	Moderate	1.13	1.83	task-social/cue/runtype-pain/scl/l032.png	n/a	n/a	n/a	n/a	n/a	n/a	n/a	n/a
86.02	11.91000000000001	pain	stimulus	3	low_cue	low_stim	n/a	n/a	n/a	n/a	n/a	n/a	n/a	86.02	89.52	94.52	97.92	success	n/a	n/a	n/a
97.8	3.02	pain	outcomerating	3	low_cue	low_stim	84.91	Very Strong	84.91	Very Strong	0.8	2.22	task-social/outcomerating/task-pain_scale.png	n/a	n/a	n/a	n/a	success	n/a	n/a	n/a
105.88	1.0	pain	cue	4	low_cue	n/a	n/a	n/a	n/a	n/a	n/a	n/a	task-social/cue/runtype-pain/scl/l023.png	n/a	n/a	n/a	n/a	n/a	n/a	n/a	n/a
107.4	3.52	pain	expectrating	4	low_cue	n/a	25.02	Moderate	25.02	Moderate	0.8	2.72	task-social/cue/runtype-pain/scl/l023.png	n/a	n/a	n/a	n/a	n/a	n/a	n/a	n/a
112.23	11.909999999999997	pain	stimulus	4	low_cue	low_stim	n/a	n/a	n/a	n/a	n/a	n/a	n/a	112.23	115.73	120.73	124.13	success	n/a	n/a	n/a
127.99	2.91	pain	outcomerating	4	low_cue	low_stim	58.29	Strong	58.29	Strong	0.43	2.48	task-social/outcomerating/task-pain_scale.png	n/a	n/a	n/a	n/a	success	n/a	n/a	n/a
137.1	1.0	pain	cue	5	high_cue	n/a	n/a	n/a	n/a	n/a	n/a	n/a	task-social/cue/runtype-pain/sch/h027.png	n/a	n/a	n/a	n/a	n/a	n/a	n/a	n/a
140.2	3.07	pain	expectrating	5	high_cue	n/a	105.32	Strongest sensation of any kind	105.32	Strongest sensation of any kind	0.52	2.56	task-social/cue/runtype-pain/sch/h027.png	n/a	n/a	n/a	n/a	n/a	n/a	n/a	n/a
147.93	11.909999999999997	pain	stimulus	5	high_cue	low_stim	n/a	n/a	n/a	n/a	n/a	n/a	n/a	147.93	151.43	156.43	159.83	success	n/a	n/a	n/a
159.89	3.47	pain	outcomerating	5	high_cue	low_stim	81.38	Very Strong	81.38	Very Strong	1.22	2.25	task-social/outcomerating/task-pain_scale.png	n/a	n/a	n/a	n/a	success	n/a	n/a	n/a
168.99	1.0	pain	cue	6	high_cue	n/a	n/a	n/a	n/a	n/a	n/a	n/a	task-social/cue/runtype-pain/sch/h042.png	n/a	n/a	n/a	n/a	n/a	n/a	n/a	n/a
170.99	2.94	pain	expectrating	6	high_cue	n/a	107.24	Strongest sensation of any kind	107.24	Strongest sensation of any kind	0.67	2.28	task-social/cue/runtype-pain/sch/h042.png	n/a	n/a	n/a	n/a	n/a	n/a	n/a	n/a
175.52	12.359999999999985	pain	stimulus	6	high_cue	med_stim	n/a	n/a	n/a	n/a	n/a	n/a	n/a	175.52	179.28	184.28	187.89	success	n/a	n/a	n/a
187.3	3.3	pain	outcomerating	6	high_cue	med_stim	98.07	Strongest sensation of any kind	98.07	Strongest sensation of any kind	1.12	2.19	task-social/outcomerating/task-pain_scale.png	n/a	n/a	n/a	n/a	success	n/a	n/a	n/a
194.38	1.0	pain	cue	7	high_cue	n/a	n/a	n/a	n/a	n/a	n/a	n/a	task-social/cue/runtype-pain/sch/h011.png	n/a	n/a	n/a	n/a	n/a	n/a	n/a	n/a
196.4	3.12	pain	expectrating	7	high_cue	n/a	93.01	Very Strong	93.01	Very Strong	0.85	2.27	task-social/cue/runtype-pain/sch/h011.png	n/a	n/a	n/a	n/a	n/a	n/a	n/a	n/a
207.41	11.909999999999997	pain	stimulus	7	high_cue	low_stim	n/a	n/a	n/a	n/a	n/a	n/a	n/a	207.41	210.91	215.91	219.31	success	n/a	n/a	n/a
222.29	3.36	pain	outcomerating	7	high_cue	low_stim	77.52	Very Strong	77.52	Very Strong	0.67	2.69	task-social/outcomerating/task-pain_scale.png	n/a	n/a	n/a	n/a	success	n/a	n/a	n/a
234.8	1.0	pain	cue	8	low_cue	n/a	n/a	n/a	n/a	n/a	n/a	n/a	task-social/cue/runtype-pain/scl/l039.png	n/a	n/a	n/a	n/a	n/a	n/a	n/a	n/a
237.3	2.52	pain	expectrating	8	low_cue	n/a	44.02	Strong	44.02	Strong	0.87	1.65	task-social/cue/runtype-pain/scl/l039.png	n/a	n/a	n/a	n/a	n/a	n/a	n/a	n/a
249.31	12.819999999999993	pain	stimulus	8	low_cue	high_stim	n/a	n/a	n/a	n/a	n/a	n/a	n/a	249.31	253.32	258.32	262.13	success	n/a	n/a	n/a
262.69	3.44	pain	outcomerating	8	low_cue	high_stim	107.12	Strongest sensation of any kind	107.12	Strongest sensation of any kind	0.48	2.96	task-social/outcomerating/task-pain_scale.png	n/a	n/a	n/a	n/a	success	n/a	n/a	n/a
271.8	1.0	pain	cue	9	low_cue	n/a	n/a	n/a	n/a	n/a	n/a	n/a	task-social/cue/runtype-pain/scl/l053.png	n/a	n/a	n/a	n/a	n/a	n/a	n/a	n/a
274.9	3.54	pain	expectrating	9	low_cue	n/a	68.33	Very Strong	68.33	Very Strong	1.08	2.45	task-social/cue/runtype-pain/scl/l053.png	n/a	n/a	n/a	n/a	n/a	n/a	n/a	n/a
284.65	12.360000000000014	pain	stimulus	9	low_cue	med_stim	n/a	n/a	n/a	n/a	n/a	n/a	n/a	284.65	288.41	293.41	297.02	success	n/a	n/a	n/a
294.39	3.45	pain	outcomerating	9	low_cue	med_stim	85.16	Very Strong	85.16	Very Strong	1.53	1.92	task-social/outcomerating/task-pain_scale.png	n/a	n/a	n/a	n/a	success	n/a	n/a	n/a
299.89	1.0	pain	cue	10	low_cue	n/a	n/a	n/a	n/a	n/a	n/a	n/a	task-social/cue/runtype-pain/scl/l004.png	n/a	n/a	n/a	n/a	n/a	n/a	n/a	n/a
301.79	3.82	pain	expectrating	10	low_cue	n/a	44.51	Strong	44.51	Strong	0.72	3.1	task-social/cue/runtype-pain/scl/l004.png	n/a	n/a	n/a	n/a	n/a	n/a	n/a	n/a
313.52	12.360000000000014	pain	stimulus	10	low_cue	med_stim	n/a	n/a	n/a	n/a	n/a	n/a	n/a	313.52	317.28	322.28	325.89	success	n/a	n/a	n/a
326.1	3.17	pain	outcomerating	10	low_cue	med_stim	96.21	Very Strong	96.21	Very Strong	0.43	2.74	task-social/outcomerating/task-pain_scale.png	n/a	n/a	n/a	n/a	success	n/a	n/a	n/a
337.89	1.0	pain	cue	11	high_cue	n/a	n/a	n/a	n/a	n/a	n/a	n/a	task-social/cue/runtype-pain/sch/h026.png	n/a	n/a	n/a	n/a	n/a	n/a	n/a	n/a
340.59	2.88	pain	expectrating	11	high_cue	n/a	96.9	Very Strong	96.9	Very Strong	0.65	2.23	task-social/cue/runtype-pain/sch/h026.png	n/a	n/a	n/a	n/a	n/a	n/a	n/a	n/a
346.02	12.819999999999993	pain	stimulus	11	high_cue	high_stim	n/a	n/a	n/a	n/a	n/a	n/a	n/a	346.02	350.03	355.03	358.84	success	n/a	n/a	n/a
355.49	n/a	pain	outcomerating	11	high_cue	high_stim	n/a	n/a	107.83	Strongest sensation of any kind	0.85	2.83	task-social/outcomerating/task-pain_scale.png	n/a	n/a	n/a	n/a	success	n/a	n/a	n/a
362.6	1.0	pain	cue	12	high_cue	n/a	n/a	n/a	n/a	n/a	n/a	n/a	task-social/cue/runtype-pain/sch/h028.png	n/a	n/a	n/a	n/a	n/a	n/a	n/a	n/a
364.8	3.12	pain	expectrating	12	high_cue	n/a	118.21	Strongest sensation of any kind	118.21	Strongest sensation of any kind	0.45	2.67	task-social/cue/runtype-pain/sch/h028.png	n/a	n/a	n/a	n/a	n/a	n/a	n/a	n/a
376.53	12.82000000000005	pain	stimulus	12	high_cue	high_stim	n/a	n/a	n/a	n/a	n/a	n/a	n/a	376.53	380.54	385.54	389.35	success	n/a	n/a	n/a
394.59	2.58	pain	outcomerating	12	high_cue	high_stim	100.68	Strongest sensation of any kind	100.68	Strongest sensation of any kind	0.52	2.06	task-social/outcomerating/task-pain_scale.png	n/a	n/a	n/a	n/a	success	n/a	n/a	n/a
