onset	duration	run_type	trial_type	trial_index	cue	stimulusintensity	rating_value	rating_glmslabel	rating_value_fillna	rating_glmslabel_fillna	rating_mouseonset	rating_mousedur	stim_file	pain_onset_ttl1	pain_onset_ttl2	pain_onset_ttl3	pain_onset_ttl4	pain_stimulus_delivery_success	cognitive_correct_response	cognitive_participant_response	cognitive_response_accuracy
8.1	0.98	vicarious	cue	1	high_cue	n/a	n/a	n/a	n/a	n/a	n/a	n/a	task-social/cue/runtype-vicarious/sch/h024.png	n/a	n/a	n/a	n/a	n/a	n/a	n/a	n/a
10.01	2.72	vicarious	expectrating	1	high_cue	n/a	28.72	Moderate	28.72	Moderate	0.05	2.67	task-social/cue/runtype-vicarious/sch/h024.png	n/a	n/a	n/a	n/a	n/a	n/a	n/a	n/a
23.28	5.0	vicarious	stimulus	1	high_cue	low_stim	n/a	n/a	n/a	n/a	n/a	n/a	task-social/stim/runtype-vicarious/ch092t2aeaff_L.mp4	n/a	n/a	n/a	n/a	n/a	n/a	n/a	n/a
39.61	2.52	vicarious	outcomerating	1	high_cue	low_stim	11.99	Moderate	11.99	Moderate	0.05	2.67	task-social/outcomerating/task-vicarious_scale.png	n/a	n/a	n/a	n/a	n/a	n/a	n/a	n/a
52.4	0.98	vicarious	cue	2	low_cue	n/a	n/a	n/a	n/a	n/a	n/a	n/a	task-social/cue/runtype-vicarious/scl/l020.png	n/a	n/a	n/a	n/a	n/a	n/a	n/a	n/a
55.0	3.42	vicarious	expectrating	2	low_cue	n/a	0.0	n/a	0.0	n/a	0.35	3.07	task-social/cue/runtype-vicarious/scl/l020.png	n/a	n/a	n/a	n/a	n/a	n/a	n/a	n/a
68.98	5.0	vicarious	stimulus	2	low_cue	med_stim	n/a	n/a	n/a	n/a	n/a	n/a	task-social/stim/runtype-vicarious/mg066t2aaunaff_M.mp4	n/a	n/a	n/a	n/a	n/a	n/a	n/a	n/a
83.89	2.33	vicarious	outcomerating	2	low_cue	med_stim	24.68	Moderate	24.68	Moderate	0.35	3.07	task-social/outcomerating/task-vicarious_scale.png	n/a	n/a	n/a	n/a	n/a	n/a	n/a	n/a
93.2	0.98	vicarious	cue	3	high_cue	n/a	n/a	n/a	n/a	n/a	n/a	n/a	task-social/cue/runtype-vicarious/sch/h044.png	n/a	n/a	n/a	n/a	n/a	n/a	n/a	n/a
96.1	1.35	vicarious	expectrating	3	high_cue	n/a	41.42	Strong	41.42	Strong	0.07	1.28	task-social/cue/runtype-vicarious/sch/h044.png	n/a	n/a	n/a	n/a	n/a	n/a	n/a	n/a
105.58	5.0	vicarious	stimulus	3	high_cue	high_stim	n/a	n/a	n/a	n/a	n/a	n/a	task-social/stim/runtype-vicarious/bm049t2aeunaff_H.mp4	n/a	n/a	n/a	n/a	n/a	n/a	n/a	n/a
116.4	3.47	vicarious	outcomerating	3	high_cue	high_stim	17.49	Moderate	17.49	Moderate	0.07	1.28	task-social/outcomerating/task-vicarious_scale.png	n/a	n/a	n/a	n/a	n/a	n/a	n/a	n/a
123.39	0.99	vicarious	cue	4	low_cue	n/a	n/a	n/a	n/a	n/a	n/a	n/a	task-social/cue/runtype-vicarious/scl/l017.png	n/a	n/a	n/a	n/a	n/a	n/a	n/a	n/a
126.71	1.47	vicarious	expectrating	4	low_cue	n/a	0.0	n/a	0.0	n/a	0.13	1.33	task-social/cue/runtype-vicarious/scl/l017.png	n/a	n/a	n/a	n/a	n/a	n/a	n/a	n/a
134.68	5.0	vicarious	stimulus	4	low_cue	high_stim	n/a	n/a	n/a	n/a	n/a	n/a	task-social/stim/runtype-vicarious/mg066t1aaaff_H.mp4	n/a	n/a	n/a	n/a	n/a	n/a	n/a	n/a
143.0	2.6	vicarious	outcomerating	4	low_cue	high_stim	40.1	Strong	40.1	Strong	0.13	1.33	task-social/outcomerating/task-vicarious_scale.png	n/a	n/a	n/a	n/a	n/a	n/a	n/a	n/a
151.28	1.0	vicarious	cue	5	high_cue	n/a	n/a	n/a	n/a	n/a	n/a	n/a	task-social/cue/runtype-vicarious/sch/h032.png	n/a	n/a	n/a	n/a	n/a	n/a	n/a	n/a
153.1	1.42	vicarious	expectrating	5	high_cue	n/a	61.57	Strong	61.57	Strong	0.43	0.98	task-social/cue/runtype-vicarious/sch/h032.png	n/a	n/a	n/a	n/a	n/a	n/a	n/a	n/a
167.08	5.0	vicarious	stimulus	5	high_cue	low_stim	n/a	n/a	n/a	n/a	n/a	n/a	task-social/stim/runtype-vicarious/mg066t2aeunaff_L.mp4	n/a	n/a	n/a	n/a	n/a	n/a	n/a	n/a
177.69	3.77	vicarious	outcomerating	5	high_cue	low_stim	10.63	Moderate	10.63	Moderate	0.43	0.98	task-social/outcomerating/task-vicarious_scale.png	n/a	n/a	n/a	n/a	n/a	n/a	n/a	n/a
188.4	0.98	vicarious	cue	6	high_cue	n/a	n/a	n/a	n/a	n/a	n/a	n/a	task-social/cue/runtype-vicarious/sch/h013.png	n/a	n/a	n/a	n/a	n/a	n/a	n/a	n/a
190.5	2.37	vicarious	expectrating	6	high_cue	n/a	70.84	Very Strong	70.84	Very Strong	0.93	1.43	task-social/cue/runtype-vicarious/sch/h013.png	n/a	n/a	n/a	n/a	n/a	n/a	n/a	n/a
198.48	5.0	vicarious	stimulus	6	high_cue	med_stim	n/a	n/a	n/a	n/a	n/a	n/a	task-social/stim/runtype-vicarious/ch092t2aaaff_M.mp4	n/a	n/a	n/a	n/a	n/a	n/a	n/a	n/a
207.5	2.14	vicarious	outcomerating	6	high_cue	med_stim	11.13	Moderate	11.13	Moderate	0.93	1.43	task-social/outcomerating/task-vicarious_scale.png	n/a	n/a	n/a	n/a	n/a	n/a	n/a	n/a
218.19	0.99	vicarious	cue	7	low_cue	n/a	n/a	n/a	n/a	n/a	n/a	n/a	task-social/cue/runtype-vicarious/scl/l006.png	n/a	n/a	n/a	n/a	n/a	n/a	n/a	n/a
220.29	3.08	vicarious	expectrating	7	low_cue	n/a	0.46	No sensation	0.46	No sensation	0.05	3.03	task-social/cue/runtype-vicarious/scl/l006.png	n/a	n/a	n/a	n/a	n/a	n/a	n/a	n/a
230.18	5.0	vicarious	stimulus	7	low_cue	high_stim	n/a	n/a	n/a	n/a	n/a	n/a	task-social/stim/runtype-vicarious/dn124t1aiaff_H.mp4	n/a	n/a	n/a	n/a	n/a	n/a	n/a	n/a
239.2	1.94	vicarious	outcomerating	7	low_cue	high_stim	25.53	Moderate	25.53	Moderate	0.05	3.03	task-social/outcomerating/task-vicarious_scale.png	n/a	n/a	n/a	n/a	n/a	n/a	n/a	n/a
246.19	0.99	vicarious	cue	8	high_cue	n/a	n/a	n/a	n/a	n/a	n/a	n/a	task-social/cue/runtype-vicarious/sch/h049.png	n/a	n/a	n/a	n/a	n/a	n/a	n/a	n/a
248.69	2.66	vicarious	expectrating	8	high_cue	n/a	53.82	Strong	53.82	Strong	0.47	2.19	task-social/cue/runtype-vicarious/sch/h049.png	n/a	n/a	n/a	n/a	n/a	n/a	n/a	n/a
257.68	5.0	vicarious	stimulus	8	high_cue	med_stim	n/a	n/a	n/a	n/a	n/a	n/a	task-social/stim/runtype-vicarious/ak064t1aiaff_M.mp4	n/a	n/a	n/a	n/a	n/a	n/a	n/a	n/a
268.29	3.03	vicarious	outcomerating	8	high_cue	med_stim	0.0	n/a	0.0	n/a	0.47	2.19	task-social/outcomerating/task-vicarious_scale.png	n/a	n/a	n/a	n/a	n/a	n/a	n/a	n/a
277.6	0.98	vicarious	cue	9	low_cue	n/a	n/a	n/a	n/a	n/a	n/a	n/a	task-social/cue/runtype-vicarious/scl/l028.png	n/a	n/a	n/a	n/a	n/a	n/a	n/a	n/a
280.7	3.37	vicarious	expectrating	9	low_cue	n/a	5.05	Weak	5.05	Weak	1.23	2.13	task-social/cue/runtype-vicarious/scl/l028.png	n/a	n/a	n/a	n/a	n/a	n/a	n/a	n/a
292.48	5.0	vicarious	stimulus	9	low_cue	low_stim	n/a	n/a	n/a	n/a	n/a	n/a	task-social/stim/runtype-vicarious/mg101t2afunaff_L.mp4	n/a	n/a	n/a	n/a	n/a	n/a	n/a	n/a
305.21	1.43	vicarious	outcomerating	9	low_cue	low_stim	29.05	Strong	29.05	Strong	1.23	2.13	task-social/outcomerating/task-vicarious_scale.png	n/a	n/a	n/a	n/a	n/a	n/a	n/a	n/a
309.69	0.99	vicarious	cue	10	low_cue	n/a	n/a	n/a	n/a	n/a	n/a	n/a	task-social/cue/runtype-vicarious/scl/l047.png	n/a	n/a	n/a	n/a	n/a	n/a	n/a	n/a
311.99	n/a	vicarious	expectrating	10	low_cue	n/a	n/a	n/a	1.05	Barely detectable	3.38	3.92	task-social/cue/runtype-vicarious/scl/l047.png	n/a	n/a	n/a	n/a	n/a	n/a	n/a	n/a
319.98	5.0	vicarious	stimulus	10	low_cue	low_stim	n/a	n/a	n/a	n/a	n/a	n/a	task-social/stim/runtype-vicarious/ib109t1aiunaff_L.mp4	n/a	n/a	n/a	n/a	n/a	n/a	n/a	n/a
330.8	1.53	vicarious	outcomerating	10	low_cue	low_stim	26.67	Moderate	26.67	Moderate	3.38	3.92	task-social/outcomerating/task-vicarious_scale.png	n/a	n/a	n/a	n/a	n/a	n/a	n/a	n/a
339.19	0.99	vicarious	cue	11	high_cue	n/a	n/a	n/a	n/a	n/a	n/a	n/a	task-social/cue/runtype-vicarious/sch/h012.png	n/a	n/a	n/a	n/a	n/a	n/a	n/a	n/a
342.29	2.1	vicarious	expectrating	11	high_cue	n/a	12.73	Moderate	12.73	Moderate	1.0	1.1	task-social/cue/runtype-vicarious/sch/h012.png	n/a	n/a	n/a	n/a	n/a	n/a	n/a	n/a
354.58	5.0	vicarious	stimulus	11	high_cue	high_stim	n/a	n/a	n/a	n/a	n/a	n/a	task-social/stim/runtype-vicarious/ib109t1aiaff_H.mp4	n/a	n/a	n/a	n/a	n/a	n/a	n/a	n/a
366.9	1.8	vicarious	outcomerating	11	high_cue	high_stim	31.71	Strong	31.71	Strong	1.0	1.1	task-social/outcomerating/task-vicarious_scale.png	n/a	n/a	n/a	n/a	n/a	n/a	n/a	n/a
371.68	1.0	vicarious	cue	12	low_cue	n/a	n/a	n/a	n/a	n/a	n/a	n/a	task-social/cue/runtype-vicarious/scl/l003.png	n/a	n/a	n/a	n/a	n/a	n/a	n/a	n/a
374.0	1.5	vicarious	expectrating	12	low_cue	n/a	4.59	Weak	4.59	Weak	0.2	1.3	task-social/cue/runtype-vicarious/scl/l003.png	n/a	n/a	n/a	n/a	n/a	n/a	n/a	n/a
381.98	5.0	vicarious	stimulus	12	low_cue	med_stim	n/a	n/a	n/a	n/a	n/a	n/a	task-social/stim/runtype-vicarious/ib109t1afaff_M.mp4	n/a	n/a	n/a	n/a	n/a	n/a	n/a	n/a
394.81	1.22	vicarious	outcomerating	12	low_cue	med_stim	0.0	n/a	0.0	n/a	0.2	1.3	task-social/outcomerating/task-vicarious_scale.png	n/a	n/a	n/a	n/a	n/a	n/a	n/a	n/a
