onset	duration	run_type	trial_type	trial_index	cue	stimulusintensity	rating_value	rating_glmslabel	rating_value_fillna	rating_glmslabel_fillna	rating_mouseonset	rating_mousedur	stim_file_TODO	pain_onset_ttl1	pain_onset_ttl2	pain_onset_ttl3	pain_onset_ttl4	pain_stimulus_delivery_success	cognitive_correct_response	cognitive_participant_response	cognitive_response_accuracy
14.19	1.0	pain	cue	1	low_cue	n/a	n/a	n/a	n/a	n/a	n/a	n/a	task-social/cue/runtype-pain/scl/l011.png	n/a	n/a	n/a	n/a	n/a	n/a	n/a	n/a
16.01	3.07	pain	expectrating	1	low_cue	n/a	54.52	Strong	54.52	Strong	0.38	2.68	task-social/cue/runtype-pain/scl/l011.png	n/a	n/a	n/a	n/a	n/a	n/a	n/a	n/a
24.72	11.910000000000004	pain	stimulus	1	low_cue	low_stim	n/a	n/a	n/a	n/a	n/a	n/a	n/a	24.72	28.22	33.22	36.62	success	n/a	n/a	n/a
37.7	3.92	pain	outcomerating	1	low_cue	low_stim	65.39	Very Strong	65.39	Very Strong	0.38	2.68	task-social/outcomerating/task-pain_scale.png	n/a	n/a	n/a	n/a	success	n/a	n/a	n/a
43.79	1.0	pain	cue	2	low_cue	n/a	n/a	n/a	n/a	n/a	n/a	n/a	task-social/cue/runtype-pain/scl/l052.png	n/a	n/a	n/a	n/a	n/a	n/a	n/a	n/a
46.8	1.94	pain	expectrating	2	low_cue	n/a	42.37	Strong	42.37	Strong	0.05	1.89	task-social/cue/runtype-pain/scl/l052.png	n/a	n/a	n/a	n/a	n/a	n/a	n/a	n/a
55.52	12.359999999999992	pain	stimulus	2	low_cue	med_stim	n/a	n/a	n/a	n/a	n/a	n/a	n/a	55.52	59.28	64.28	67.89	success	n/a	n/a	n/a
69.29	2.37	pain	outcomerating	2	low_cue	med_stim	43.2	Strong	43.2	Strong	0.05	1.89	task-social/outcomerating/task-pain_scale.png	n/a	n/a	n/a	n/a	success	n/a	n/a	n/a
77.8	1.0	pain	cue	3	high_cue	n/a	n/a	n/a	n/a	n/a	n/a	n/a	task-social/cue/runtype-pain/sch/h049.png	n/a	n/a	n/a	n/a	n/a	n/a	n/a	n/a
80.8	2.68	pain	expectrating	3	high_cue	n/a	62.51	Strong	62.51	Strong	0.1	2.58	task-social/cue/runtype-pain/sch/h049.png	n/a	n/a	n/a	n/a	n/a	n/a	n/a	n/a
85.63	12.370000000000005	pain	stimulus	3	high_cue	med_stim	n/a	n/a	n/a	n/a	n/a	n/a	n/a	85.63	89.39	94.39	98.0	success	n/a	n/a	n/a
97.39	2.09	pain	outcomerating	3	high_cue	med_stim	71.57	Very Strong	71.57	Very Strong	0.1	2.58	task-social/outcomerating/task-pain_scale.png	n/a	n/a	n/a	n/a	success	n/a	n/a	n/a
110.49	1.0	pain	cue	4	low_cue	n/a	n/a	n/a	n/a	n/a	n/a	n/a	task-social/cue/runtype-pain/scl/l030.png	n/a	n/a	n/a	n/a	n/a	n/a	n/a	n/a
112.39	1.42	pain	expectrating	4	low_cue	n/a	52.49	Strong	52.49	Strong	0.05	1.37	task-social/cue/runtype-pain/scl/l030.png	n/a	n/a	n/a	n/a	n/a	n/a	n/a	n/a
123.92	12.820000000000007	pain	stimulus	4	low_cue	high_stim	n/a	n/a	n/a	n/a	n/a	n/a	n/a	123.92	127.93	132.93	136.74	success	n/a	n/a	n/a
136.1	3.07	pain	outcomerating	4	low_cue	high_stim	64.16	Very Strong	64.16	Very Strong	0.05	1.37	task-social/outcomerating/task-pain_scale.png	n/a	n/a	n/a	n/a	success	n/a	n/a	n/a
150.69	1.0	pain	cue	5	high_cue	n/a	n/a	n/a	n/a	n/a	n/a	n/a	task-social/cue/runtype-pain/sch/h030.png	n/a	n/a	n/a	n/a	n/a	n/a	n/a	n/a
152.39	1.45	pain	expectrating	5	high_cue	n/a	74.56	Very Strong	74.56	Very Strong	0.47	0.98	task-social/cue/runtype-pain/sch/h030.png	n/a	n/a	n/a	n/a	n/a	n/a	n/a	n/a
158.92	12.360000000000014	pain	stimulus	5	high_cue	med_stim	n/a	n/a	n/a	n/a	n/a	n/a	n/a	158.92	162.68	167.68	171.29	success	n/a	n/a	n/a
173.8	n/a	pain	outcomerating	5	high_cue	med_stim	n/a	n/a	47.94	Strong	0.47	0.98	task-social/outcomerating/task-pain_scale.png	n/a	n/a	n/a	n/a	success	n/a	n/a	n/a
178.69	1.0	pain	cue	6	low_cue	n/a	n/a	n/a	n/a	n/a	n/a	n/a	task-social/cue/runtype-pain/scl/l038.png	n/a	n/a	n/a	n/a	n/a	n/a	n/a	n/a
181.8	1.69	pain	expectrating	6	low_cue	n/a	53.96	Strong	53.96	Strong	0.3	1.39	task-social/cue/runtype-pain/scl/l038.png	n/a	n/a	n/a	n/a	n/a	n/a	n/a	n/a
188.01	12.820000000000022	pain	stimulus	6	low_cue	high_stim	n/a	n/a	n/a	n/a	n/a	n/a	n/a	188.01	192.02	197.02	200.83	success	n/a	n/a	n/a
200.09	2.67	pain	outcomerating	6	low_cue	high_stim	66.83	Very Strong	66.83	Very Strong	0.3	1.39	task-social/outcomerating/task-pain_scale.png	n/a	n/a	n/a	n/a	success	n/a	n/a	n/a
205.4	1.0	pain	cue	7	low_cue	n/a	n/a	n/a	n/a	n/a	n/a	n/a	task-social/cue/runtype-pain/scl/l042.png	n/a	n/a	n/a	n/a	n/a	n/a	n/a	n/a
208.4	1.58	pain	expectrating	7	low_cue	n/a	65.08	Very Strong	65.08	Very Strong	0.38	1.2	task-social/cue/runtype-pain/scl/l042.png	n/a	n/a	n/a	n/a	n/a	n/a	n/a	n/a
217.73	11.900000000000006	pain	stimulus	7	low_cue	low_stim	n/a	n/a	n/a	n/a	n/a	n/a	n/a	217.73	221.23	226.23	229.63	success	n/a	n/a	n/a
232.59	2.8	pain	outcomerating	7	low_cue	low_stim	28.65	Moderate	28.65	Moderate	0.38	1.2	task-social/outcomerating/task-pain_scale.png	n/a	n/a	n/a	n/a	success	n/a	n/a	n/a
237.49	1.0	pain	cue	8	high_cue	n/a	n/a	n/a	n/a	n/a	n/a	n/a	task-social/cue/runtype-pain/sch/h017.png	n/a	n/a	n/a	n/a	n/a	n/a	n/a	n/a
239.19	1.78	pain	expectrating	8	high_cue	n/a	108.58	Strongest sensation of any kind	108.58	Strongest sensation of any kind	0.48	1.3	task-social/cue/runtype-pain/sch/h017.png	n/a	n/a	n/a	n/a	n/a	n/a	n/a	n/a
244.06	12.819999999999993	pain	stimulus	8	high_cue	high_stim	n/a	n/a	n/a	n/a	n/a	n/a	n/a	244.06	248.07	253.07	256.88	success	n/a	n/a	n/a
257.9	2.32	pain	outcomerating	8	high_cue	high_stim	73.23	Very Strong	73.23	Very Strong	0.48	1.3	task-social/outcomerating/task-pain_scale.png	n/a	n/a	n/a	n/a	success	n/a	n/a	n/a
265.78	1.0	pain	cue	9	high_cue	n/a	n/a	n/a	n/a	n/a	n/a	n/a	task-social/cue/runtype-pain/sch/h023.png	n/a	n/a	n/a	n/a	n/a	n/a	n/a	n/a
268.8	1.54	pain	expectrating	9	high_cue	n/a	69.31	Very Strong	69.31	Very Strong	0.33	1.21	task-social/cue/runtype-pain/sch/h023.png	n/a	n/a	n/a	n/a	n/a	n/a	n/a	n/a
275.01	12.829999999999984	pain	stimulus	9	high_cue	high_stim	n/a	n/a	n/a	n/a	n/a	n/a	n/a	275.01	279.02	284.02	287.83	success	n/a	n/a	n/a
287.99	2.07	pain	outcomerating	9	high_cue	high_stim	68.71	Very Strong	68.71	Very Strong	0.33	1.21	task-social/outcomerating/task-pain_scale.png	n/a	n/a	n/a	n/a	success	n/a	n/a	n/a
296.7	1.0	pain	cue	10	high_cue	n/a	n/a	n/a	n/a	n/a	n/a	n/a	task-social/cue/runtype-pain/sch/h035.png	n/a	n/a	n/a	n/a	n/a	n/a	n/a	n/a
299.5	1.53	pain	expectrating	10	high_cue	n/a	81.48	Very Strong	81.48	Very Strong	0.3	1.23	task-social/cue/runtype-pain/sch/h035.png	n/a	n/a	n/a	n/a	n/a	n/a	n/a	n/a
314.12	11.899999999999977	pain	stimulus	10	high_cue	low_stim	n/a	n/a	n/a	n/a	n/a	n/a	n/a	314.12	317.62	322.62	326.02	success	n/a	n/a	n/a
326.99	n/a	pain	outcomerating	10	high_cue	low_stim	n/a	n/a	n/a	n/a	0.3	1.23	task-social/outcomerating/task-pain_scale.png	n/a	n/a	n/a	n/a	success	n/a	n/a	n/a
332.69	1.0	pain	cue	11	high_cue	n/a	n/a	n/a	n/a	n/a	n/a	n/a	task-social/cue/runtype-pain/sch/h039.png	n/a	n/a	n/a	n/a	n/a	n/a	n/a	n/a
335.59	n/a	pain	expectrating	11	high_cue	n/a	n/a	n/a	35.43	Strong	0.5	3.98	task-social/cue/runtype-pain/sch/h039.png	n/a	n/a	n/a	n/a	n/a	n/a	n/a	n/a
344.54	11.899999999999977	pain	stimulus	11	high_cue	low_stim	n/a	n/a	n/a	n/a	n/a	n/a	n/a	344.54	348.04	353.04	356.44	success	n/a	n/a	n/a
358.5	1.41	pain	outcomerating	11	high_cue	low_stim	54.65	Strong	54.65	Strong	0.5	3.98	task-social/outcomerating/task-pain_scale.png	n/a	n/a	n/a	n/a	success	n/a	n/a	n/a
365.29	1.0	pain	cue	12	low_cue	n/a	n/a	n/a	n/a	n/a	n/a	n/a	task-social/cue/runtype-pain/scl/l041.png	n/a	n/a	n/a	n/a	n/a	n/a	n/a	n/a
367.19	1.95	pain	expectrating	12	low_cue	n/a	47.11	Strong	47.11	Strong	0.4	1.55	task-social/cue/runtype-pain/scl/l041.png	n/a	n/a	n/a	n/a	n/a	n/a	n/a	n/a
378.82	12.360000000000014	pain	stimulus	12	low_cue	med_stim	n/a	n/a	n/a	n/a	n/a	n/a	n/a	378.82	382.58	387.58	391.19	success	n/a	n/a	n/a
394.5	2.48	pain	outcomerating	12	low_cue	med_stim	32.35	Strong	32.35	Strong	0.4	1.55	task-social/outcomerating/task-pain_scale.png	n/a	n/a	n/a	n/a	success	n/a	n/a	n/a
