onset	duration	run_type	trial_type	trial_index	cue	stimulusintensity	rating_value	rating_glmslabel	rating_value_fillna	rating_glmslabel_fillna	rating_mouseonset	rating_mousedur	stim_file	pain_onset_ttl1	pain_onset_ttl2	pain_onset_ttl3	pain_onset_ttl4	pain_stimulus_delivery_success	cognitive_correct_response	cognitive_participant_response	cognitive_response_accuracy
7.88	1.0	pain	cue	1	high_cue	n/a	n/a	n/a	n/a	n/a	n/a	n/a	task-social/cue/runtype-pain/sch/h026.png	n/a	n/a	n/a	n/a	n/a	n/a	n/a	n/a
10.1	1.18	pain	expectrating	1	high_cue	n/a	45.49	Strong	45.49	Strong	0.42	0.77	task-social/cue/runtype-pain/sch/h026.png	n/a	n/a	n/a	n/a	n/a	n/a	n/a	n/a
18.85	11.899999999999999	pain	stimulus	1	high_cue	low_stim	n/a	n/a	n/a	n/a	n/a	n/a	n/a	18.85	22.35	27.35	30.75	success	n/a	n/a	n/a
32.99	1.24	pain	outcomerating	1	high_cue	low_stim	85.1	Very Strong	85.1	Very Strong	0.45	0.79	task-social/outcomerating/task-pain_scale.png	n/a	n/a	n/a	n/a	success	n/a	n/a	n/a
37.59	1.0	pain	cue	2	low_cue	n/a	n/a	n/a	n/a	n/a	n/a	n/a	task-social/cue/runtype-pain/scl/l010.png	n/a	n/a	n/a	n/a	n/a	n/a	n/a	n/a
39.99	1.05	pain	expectrating	2	low_cue	n/a	28.43	Moderate	28.43	Moderate	0.15	0.9	task-social/cue/runtype-pain/scl/l010.png	n/a	n/a	n/a	n/a	n/a	n/a	n/a	n/a
45.41	12.370000000000005	pain	stimulus	2	low_cue	med_stim	n/a	n/a	n/a	n/a	n/a	n/a	n/a	45.41	49.17	54.17	57.78	success	n/a	n/a	n/a
57.5	1.73	pain	outcomerating	2	low_cue	med_stim	87.93	Very Strong	87.93	Very Strong	0.82	0.92	task-social/outcomerating/task-pain_scale.png	n/a	n/a	n/a	n/a	success	n/a	n/a	n/a
66.69	1.0	pain	cue	3	high_cue	n/a	n/a	n/a	n/a	n/a	n/a	n/a	task-social/cue/runtype-pain/sch/h056.png	n/a	n/a	n/a	n/a	n/a	n/a	n/a	n/a
68.89	1.31	pain	expectrating	3	high_cue	n/a	94.86	Very Strong	94.86	Very Strong	0.45	0.86	task-social/cue/runtype-pain/sch/h056.png	n/a	n/a	n/a	n/a	n/a	n/a	n/a	n/a
79.91	11.909999999999997	pain	stimulus	3	high_cue	low_stim	n/a	n/a	n/a	n/a	n/a	n/a	n/a	79.91	83.41	88.41	91.81	success	n/a	n/a	n/a
90.4	1.4	pain	outcomerating	3	high_cue	low_stim	62.58	Strong	62.58	Strong	0.45	0.95	task-social/outcomerating/task-pain_scale.png	n/a	n/a	n/a	n/a	success	n/a	n/a	n/a
95.48	1.0	pain	cue	4	low_cue	n/a	n/a	n/a	n/a	n/a	n/a	n/a	task-social/cue/runtype-pain/scl/l044.png	n/a	n/a	n/a	n/a	n/a	n/a	n/a	n/a
99.0	0.87	pain	expectrating	4	low_cue	n/a	34.01	Strong	34.01	Strong	0.37	0.5	task-social/cue/runtype-pain/scl/l044.png	n/a	n/a	n/a	n/a	n/a	n/a	n/a	n/a
105.62	12.36	pain	stimulus	4	low_cue	med_stim	n/a	n/a	n/a	n/a	n/a	n/a	n/a	105.62	109.38	114.38	117.99	success	n/a	n/a	n/a
120.79	1.29	pain	outcomerating	4	low_cue	med_stim	77.73	Very Strong	77.73	Very Strong	0.42	0.87	task-social/outcomerating/task-pain_scale.png	n/a	n/a	n/a	n/a	success	n/a	n/a	n/a
125.89	1.0	pain	cue	5	high_cue	n/a	n/a	n/a	n/a	n/a	n/a	n/a	task-social/cue/runtype-pain/sch/h049.png	n/a	n/a	n/a	n/a	n/a	n/a	n/a	n/a
127.59	1.44	pain	expectrating	5	high_cue	n/a	91.86	Very Strong	91.86	Very Strong	0.42	1.02	task-social/cue/runtype-pain/sch/h049.png	n/a	n/a	n/a	n/a	n/a	n/a	n/a	n/a
132.23	12.830000000000013	pain	stimulus	5	high_cue	high_stim	n/a	n/a	n/a	n/a	n/a	n/a	n/a	132.23	136.24	141.24	145.05	success	n/a	n/a	n/a
147.38	1.27	pain	outcomerating	5	high_cue	high_stim	115.0	Strongest sensation of any kind	115.0	Strongest sensation of any kind	0.37	0.9	task-social/outcomerating/task-pain_scale.png	n/a	n/a	n/a	n/a	success	n/a	n/a	n/a
151.99	1.0	pain	cue	6	low_cue	n/a	n/a	n/a	n/a	n/a	n/a	n/a	task-social/cue/runtype-pain/scl/l043.png	n/a	n/a	n/a	n/a	n/a	n/a	n/a	n/a
155.49	0.96	pain	expectrating	6	low_cue	n/a	29.14	Strong	29.14	Strong	0.3	0.66	task-social/cue/runtype-pain/scl/l043.png	n/a	n/a	n/a	n/a	n/a	n/a	n/a	n/a
167.72	11.900000000000006	pain	stimulus	6	low_cue	low_stim	n/a	n/a	n/a	n/a	n/a	n/a	n/a	167.72	171.22	176.22	179.62	success	n/a	n/a	n/a
181.9	1.32	pain	outcomerating	6	low_cue	low_stim	43.04	Strong	43.04	Strong	0.55	0.77	task-social/outcomerating/task-pain_scale.png	n/a	n/a	n/a	n/a	success	n/a	n/a	n/a
187.48	1.0	pain	cue	7	low_cue	n/a	n/a	n/a	n/a	n/a	n/a	n/a	task-social/cue/runtype-pain/scl/l055.png	n/a	n/a	n/a	n/a	n/a	n/a	n/a	n/a
189.7	0.98	pain	expectrating	7	low_cue	n/a	34.9	Strong	34.9	Strong	0.4	0.58	task-social/cue/runtype-pain/scl/l055.png	n/a	n/a	n/a	n/a	n/a	n/a	n/a	n/a
201.95	12.820000000000022	pain	stimulus	7	low_cue	high_stim	n/a	n/a	n/a	n/a	n/a	n/a	n/a	201.95	205.96	210.96	214.77	success	n/a	n/a	n/a
217.19	1.37	pain	outcomerating	7	low_cue	high_stim	98.75	Strongest sensation of any kind	98.75	Strongest sensation of any kind	0.52	0.85	task-social/outcomerating/task-pain_scale.png	n/a	n/a	n/a	n/a	success	n/a	n/a	n/a
223.4	0.98	pain	cue	8	low_cue	n/a	n/a	n/a	n/a	n/a	n/a	n/a	task-social/cue/runtype-pain/scl/l006.png	n/a	n/a	n/a	n/a	n/a	n/a	n/a	n/a
225.6	1.25	pain	expectrating	8	low_cue	n/a	37.51	Strong	37.51	Strong	0.43	0.82	task-social/cue/runtype-pain/scl/l006.png	n/a	n/a	n/a	n/a	n/a	n/a	n/a	n/a
230.23	11.909999999999997	pain	stimulus	8	low_cue	low_stim	n/a	n/a	n/a	n/a	n/a	n/a	n/a	230.23	233.73	238.73	242.13	success	n/a	n/a	n/a
245.49	1.29	pain	outcomerating	8	low_cue	low_stim	45.81	Strong	45.81	Strong	0.5	0.79	task-social/outcomerating/task-pain_scale.png	n/a	n/a	n/a	n/a	success	n/a	n/a	n/a
259.29	1.0	pain	cue	9	high_cue	n/a	n/a	n/a	n/a	n/a	n/a	n/a	task-social/cue/runtype-pain/sch/h005.png	n/a	n/a	n/a	n/a	n/a	n/a	n/a	n/a
262.79	1.4	pain	expectrating	9	high_cue	n/a	79.99	Very Strong	79.99	Very Strong	0.5	0.9	task-social/cue/runtype-pain/sch/h005.png	n/a	n/a	n/a	n/a	n/a	n/a	n/a	n/a
269.41	12.819999999999993	pain	stimulus	9	high_cue	high_stim	n/a	n/a	n/a	n/a	n/a	n/a	n/a	269.41	273.42	278.42	282.23	success	n/a	n/a	n/a
281.48	1.5	pain	outcomerating	9	high_cue	high_stim	99.69	Strongest sensation of any kind	99.69	Strongest sensation of any kind	0.58	0.92	task-social/outcomerating/task-pain_scale.png	n/a	n/a	n/a	n/a	success	n/a	n/a	n/a
291.69	1.0	pain	cue	10	low_cue	n/a	n/a	n/a	n/a	n/a	n/a	n/a	task-social/cue/runtype-pain/scl/l009.png	n/a	n/a	n/a	n/a	n/a	n/a	n/a	n/a
294.09	1.02	pain	expectrating	10	low_cue	n/a	36.68	Strong	36.68	Strong	0.42	0.61	task-social/cue/runtype-pain/scl/l009.png	n/a	n/a	n/a	n/a	n/a	n/a	n/a	n/a
299.7	12.829999999999984	pain	stimulus	10	low_cue	high_stim	n/a	n/a	n/a	n/a	n/a	n/a	n/a	299.7	303.71	308.71	312.52	success	n/a	n/a	n/a
310.2	1.58	pain	outcomerating	10	low_cue	high_stim	89.5	Very Strong	89.5	Very Strong	0.6	0.98	task-social/outcomerating/task-pain_scale.png	n/a	n/a	n/a	n/a	success	n/a	n/a	n/a
328.69	1.0	pain	cue	11	high_cue	n/a	n/a	n/a	n/a	n/a	n/a	n/a	task-social/cue/runtype-pain/sch/h010.png	n/a	n/a	n/a	n/a	n/a	n/a	n/a	n/a
331.09	1.23	pain	expectrating	11	high_cue	n/a	44.01	Strong	44.01	Strong	0.5	0.73	task-social/cue/runtype-pain/sch/h010.png	n/a	n/a	n/a	n/a	n/a	n/a	n/a	n/a
344.8	12.370000000000005	pain	stimulus	11	high_cue	med_stim	n/a	n/a	n/a	n/a	n/a	n/a	n/a	344.8	348.56	353.56	357.17	success	n/a	n/a	n/a
359.8	1.28	pain	outcomerating	11	high_cue	med_stim	82.07	Very Strong	82.07	Very Strong	0.47	0.82	task-social/outcomerating/task-pain_scale.png	n/a	n/a	n/a	n/a	success	n/a	n/a	n/a
369.58	1.0	pain	cue	12	high_cue	n/a	n/a	n/a	n/a	n/a	n/a	n/a	task-social/cue/runtype-pain/sch/h050.png	n/a	n/a	n/a	n/a	n/a	n/a	n/a	n/a
371.59	1.02	pain	expectrating	12	high_cue	n/a	44.51	Strong	44.51	Strong	0.4	0.62	task-social/cue/runtype-pain/sch/h050.png	n/a	n/a	n/a	n/a	n/a	n/a	n/a	n/a
382.64	12.370000000000005	pain	stimulus	12	high_cue	med_stim	n/a	n/a	n/a	n/a	n/a	n/a	n/a	382.64	386.4	391.4	395.01	success	n/a	n/a	n/a
394.79	1.25	pain	outcomerating	12	high_cue	med_stim	98.4	Strongest sensation of any kind	98.4	Strongest sensation of any kind	0.35	0.9	task-social/outcomerating/task-pain_scale.png	n/a	n/a	n/a	n/a	success	n/a	n/a	n/a
