onset	duration	trial_type	response_x	response_y	situation	context	modality	stim_file_TODO
8.844	32.167	narrative_presentation	n/a	n/a	Slaying of kin unrecognized	town	Text	task-narratives/Narrative3Situation1.txt
41.011	3.602	rating_feeling	686	407	Slaying of kin unrecognized	town	Text	n/a
42.211	2.402	feeling_mouse_trajectory	686	407	Slaying of kin unrecognized	town	Text	n/a
45.06	1.434	rating_expectation	653	367	Slaying of kin unrecognized	town	Text	n/a
45.527	0.967	expectation_mouse_trajectory	653	367	Slaying of kin unrecognized	town	Text	n/a
53.143	17.112	narrative_presentation	n/a	n/a	Erroneous judgement	town	Text	task-narratives/Narrative3Situation2.txt
70.256	2.806	rating_feeling	1149	654	Erroneous judgement	town	Text	n/a
71.589	1.473	feeling_mouse_trajectory	1149	654	Erroneous judgement	town	Text	n/a
74.292	1.604	rating_expectation	1188	491	Erroneous judgement	town	Text	n/a
74.375	1.521	expectation_mouse_trajectory	1188	491	Erroneous judgement	town	Text	n/a
80.387	10.392	narrative_presentation	n/a	n/a	Revolt	town	Text	task-narratives/Narrative3Situation3.txt
90.779	3.035	rating_feeling	1021	464	Revolt	town	Text	n/a
92.146	1.668	feeling_mouse_trajectory	1021	464	Revolt	town	Text	n/a
94.795	1.868	rating_expectation	1200	459	Revolt	town	Text	n/a
94.895	1.768	expectation_mouse_trajectory	1200	459	Revolt	town	Text	n/a
99.861	28.149	narrative_presentation	n/a	n/a	The enigma	city	Text	task-narratives/Narrative3Situation4.txt
128.01	2.785	rating_feeling	895	434	The enigma	city	Text	n/a
129.543	1.251	feeling_mouse_trajectory	895	434	The enigma	city	Text	n/a
132.026	1.451	rating_expectation	1280	538	The enigma	city	Text	n/a
132.426	1.051	expectation_mouse_trajectory	1280	538	The enigma	city	Text	n/a
139.109	15.096	narrative_presentation	n/a	n/a	Deliverance	city	Text	task-narratives/Narrative3Situation5.txt
154.205	2.825	rating_feeling	863	558	Deliverance	city	Text	n/a
155.522	1.508	feeling_mouse_trajectory	863	558	Deliverance	city	Text	n/a
158.241	0.906	rating_expectation	756	485	Deliverance	city	Text	n/a
158.274	0.873	expectation_mouse_trajectory	756	485	Deliverance	city	Text	n/a
165.352	15.076	narrative_presentation	n/a	n/a	Remorse	city	Text	task-narratives/Narrative3Situation6.txt
180.428	1.851	rating_feeling	815	512	Remorse	city	Text	n/a
181.394	0.885	feeling_mouse_trajectory	815	512	Remorse	city	Text	n/a
184.445	1.918	rating_expectation	1230	488	Remorse	city	Text	n/a
184.762	1.601	expectation_mouse_trajectory	1230	488	Remorse	city	Text	n/a
192.512	36.85	narrative_presentation	n/a	n/a	Loss of loved one	forest	Text	task-narratives/Narrative3Situation7.txt
229.362	2.118	rating_feeling	724	463	Loss of loved one	forest	Text	n/a
230.446	1.035	feeling_mouse_trajectory	724	463	Loss of loved one	forest	Text	n/a
233.38	1.334	rating_expectation	673	374	Loss of loved one	forest	Text	n/a
233.813	0.901	expectation_mouse_trajectory	673	374	Loss of loved one	forest	Text	n/a
239.446	9.713	narrative_presentation	n/a	n/a	All sacrificed for passion	forest	Text	task-narratives/Narrative3Situation8.txt
249.159	2.039	rating_feeling	746	529	All sacrificed for passion	forest	Text	n/a
250.043	1.156	feeling_mouse_trajectory	746	529	All sacrificed for passion	forest	Text	n/a
253.191	1.755	rating_expectation	1002	333	All sacrificed for passion	forest	Text	n/a
253.224	1.721	expectation_mouse_trajectory	1002	333	All sacrificed for passion	forest	Text	n/a
258.27	27.481	narrative_presentation	n/a	n/a	Discovery of dishonour of loved one	forest	Text	task-narratives/Narrative3Situation9.txt
285.751	2.135	rating_feeling	654	411	Discovery of dishonour of loved one	forest	Text	n/a
286.568	1.318	feeling_mouse_trajectory	654	411	Discovery of dishonour of loved one	forest	Text	n/a
289.785	1.291	rating_expectation	605	396	Discovery of dishonour of loved one	forest	Text	n/a
289.835	1.241	expectation_mouse_trajectory	605	396	Discovery of dishonour of loved one	forest	Text	n/a
295.867	22.445	narrative_presentation	n/a	n/a	Conflict with a god	swamp	Text	task-narratives/Narrative4Situation1.txt
318.312	3.917	rating_feeling	878	451	Conflict with a god	swamp	Text	n/a
320.312	1.917	feeling_mouse_trajectory	878	451	Conflict with a god	swamp	Text	n/a
322.33	2.401	rating_expectation	765	300	Conflict with a god	swamp	Text	n/a
323.03	1.701	expectation_mouse_trajectory	765	300	Conflict with a god	swamp	Text	n/a
331.397	24.796	narrative_presentation	n/a	n/a	Adultery	swamp	Text	task-narratives/Narrative4Situation2.txt
356.193	2.435	rating_feeling	689	420	Adultery	swamp	Text	n/a
356.96	1.668	feeling_mouse_trajectory	689	420	Adultery	swamp	Text	n/a
360.211	1.685	rating_expectation	638	325	Adultery	swamp	Text	n/a
360.594	1.301	expectation_mouse_trajectory	638	325	Adultery	swamp	Text	n/a
366.277	21.116	narrative_presentation	n/a	n/a	Slaying of kin unrecognized	swamp	Text	task-narratives/Narrative4Situation3.txt
387.393	3.171	rating_feeling	737	473	Slaying of kin unrecognized	swamp	Text	n/a
389.659	0.904	feeling_mouse_trajectory	737	473	Slaying of kin unrecognized	swamp	Text	n/a
391.425	1.053	rating_expectation	583	384	Slaying of kin unrecognized	swamp	Text	n/a
391.775	0.703	expectation_mouse_trajectory	583	384	Slaying of kin unrecognized	swamp	Text	n/a
396.505	21.111	narrative_presentation	n/a	n/a	Fatal imprudence	hospital	Text	task-narratives/Narrative4Situation4.txt
417.616	2.643	rating_feeling	661	426	Fatal imprudence	hospital	Text	n/a
418.4	1.86	feeling_mouse_trajectory	661	426	Fatal imprudence	hospital	Text	n/a
421.633	0.859	rating_expectation	821	585	Fatal imprudence	hospital	Text	n/a
421.983	0.509	expectation_mouse_trajectory	821	585	Fatal imprudence	hospital	Text	n/a
426.716	25.796	narrative_presentation	n/a	n/a	Erroneous judgement	hospital	Text	task-narratives/Narrative4Situation5.txt
452.512	2.902	rating_feeling	746	546	Erroneous judgement	hospital	Text	n/a
453.979	1.435	feeling_mouse_trajectory	746	546	Erroneous judgement	hospital	Text	n/a
456.53	1.801	rating_expectation	767	429	Erroneous judgement	hospital	Text	n/a
456.613	1.718	expectation_mouse_trajectory	767	429	Erroneous judgement	hospital	Text	n/a
461.596	23.447	narrative_presentation	n/a	n/a	Necessity of sacrificing loved ones	hospital	Text	task-narratives/Narrative4Situation6.txt
485.043	2.752	rating_feeling	985	438	Necessity of sacrificing loved ones	hospital	Text	n/a
486.026	1.769	feeling_mouse_trajectory	985	438	Necessity of sacrificing loved ones	hospital	Text	n/a
489.075	1.568	rating_expectation	1112	434	Necessity of sacrificing loved ones	hospital	Text	n/a
489.109	1.534	expectation_mouse_trajectory	1112	434	Necessity of sacrificing loved ones	hospital	Text	n/a
494.141	19.093	narrative_presentation	n/a	n/a	Recovery of a lost one	prison	Text	task-narratives/Narrative4Situation7.txt
513.235	2.858	rating_feeling	867	529	Recovery of a lost one	prison	Text	n/a
514.685	1.408	feeling_mouse_trajectory	867	529	Recovery of a lost one	prison	Text	n/a
517.258	1.206	rating_expectation	771	470	Recovery of a lost one	prison	Text	n/a
517.508	0.956	expectation_mouse_trajectory	771	470	Recovery of a lost one	prison	Text	n/a
522.352	38.535	narrative_presentation	n/a	n/a	Crimes of love	prison	Text	task-narratives/Narrative4Situation8.txt
560.886	3.04	rating_feeling	798	459	Crimes of love	prison	Text	n/a
562.903	1.023	feeling_mouse_trajectory	798	459	Crimes of love	prison	Text	n/a
564.908	1.338	rating_expectation	623	356	Crimes of love	prison	Text	n/a
565.141	1.105	expectation_mouse_trajectory	623	356	Crimes of love	prison	Text	n/a
574.004	12.391	narrative_presentation	n/a	n/a	Abduction	prison	Text	task-narratives/Narrative4Situation9.txt
586.396	3.002	rating_feeling	798	546	Abduction	prison	Text	n/a
587.762	1.636	feeling_mouse_trajectory	798	546	Abduction	prison	Text	n/a
590.413	2.218	rating_expectation	696	376	Abduction	prison	Text	n/a
591.68	0.952	expectation_mouse_trajectory	696	376	Abduction	prison	Text	n/a
