onset	duration	run_type	trial_type	trial_index	cue	stimulusintensity	rating_value	rating_glmslabel	rating_value_fillna	rating_glmslabel_fillna	rating_mouseonset	rating_mousedur	stim_file_TODO	pain_onset_ttl1	pain_onset_ttl2	pain_onset_ttl3	pain_onset_ttl4	pain_stimulus_delivery_success	cognitive_correct_response	cognitive_participant_response	cognitive_response_accuracy
9.09	1.0	pain	cue	1	high_cue	n/a	n/a	n/a	n/a	n/a	n/a	n/a	task-social/cue/runtype-pain/sch/h002.png	n/a	n/a	n/a	n/a	n/a	n/a	n/a	n/a
10.73	2.19	pain	expectrating	1	high_cue	n/a	29.86	Strong	29.86	Strong	0.5	1.69	task-social/cue/runtype-pain/sch/h002.png	n/a	n/a	n/a	n/a	n/a	n/a	n/a	n/a
20.66	12.819999999999997	pain	stimulus	1	high_cue	high_stim	n/a	n/a	n/a	n/a	n/a	n/a	n/a	20.66	24.67	29.67	33.48	success	n/a	n/a	n/a
32.6	2.47	pain	outcomerating	1	high_cue	high_stim	27.49	Moderate	27.49	Moderate	0.5	1.69	task-social/outcomerating/task-pain_scale.png	n/a	n/a	n/a	n/a	success	n/a	n/a	n/a
45.51	1.0	pain	cue	2	low_cue	n/a	n/a	n/a	n/a	n/a	n/a	n/a	task-social/cue/runtype-pain/scl/l040.png	n/a	n/a	n/a	n/a	n/a	n/a	n/a	n/a
47.41	2.97	pain	expectrating	2	low_cue	n/a	12.53	Moderate	12.53	Moderate	0.58	2.38	task-social/cue/runtype-pain/scl/l040.png	n/a	n/a	n/a	n/a	n/a	n/a	n/a	n/a
58.75	11.909999999999997	pain	stimulus	2	low_cue	low_stim	n/a	n/a	n/a	n/a	n/a	n/a	n/a	58.75	62.25	67.25	70.65	success	n/a	n/a	n/a
75.5	2.05	pain	outcomerating	2	low_cue	low_stim	6.9	Weak	6.9	Weak	0.58	2.38	task-social/outcomerating/task-pain_scale.png	n/a	n/a	n/a	n/a	success	n/a	n/a	n/a
87.21	1.0	pain	cue	3	high_cue	n/a	n/a	n/a	n/a	n/a	n/a	n/a	task-social/cue/runtype-pain/sch/h033.png	n/a	n/a	n/a	n/a	n/a	n/a	n/a	n/a
89.51	2.45	pain	expectrating	3	high_cue	n/a	28.72	Moderate	28.72	Moderate	0.33	2.12	task-social/cue/runtype-pain/sch/h033.png	n/a	n/a	n/a	n/a	n/a	n/a	n/a	n/a
102.52	11.900000000000006	pain	stimulus	3	high_cue	low_stim	n/a	n/a	n/a	n/a	n/a	n/a	n/a	102.52	106.02	111.02	114.42	success	n/a	n/a	n/a
118.4	2.64	pain	outcomerating	3	high_cue	low_stim	21.12	Moderate	21.12	Moderate	0.33	2.12	task-social/outcomerating/task-pain_scale.png	n/a	n/a	n/a	n/a	success	n/a	n/a	n/a
129.11	1.0	pain	cue	4	high_cue	n/a	n/a	n/a	n/a	n/a	n/a	n/a	task-social/cue/runtype-pain/sch/h020.png	n/a	n/a	n/a	n/a	n/a	n/a	n/a	n/a
131.01	1.95	pain	expectrating	4	high_cue	n/a	32.52	Strong	32.52	Strong	0.42	1.53	task-social/cue/runtype-pain/sch/h020.png	n/a	n/a	n/a	n/a	n/a	n/a	n/a	n/a
136.12	12.359999999999985	pain	stimulus	4	high_cue	med_stim	n/a	n/a	n/a	n/a	n/a	n/a	n/a	136.12	139.88	144.88	148.49	success	n/a	n/a	n/a
148.61	2.44	pain	outcomerating	4	high_cue	med_stim	24.1	Moderate	24.1	Moderate	0.42	1.53	task-social/outcomerating/task-pain_scale.png	n/a	n/a	n/a	n/a	success	n/a	n/a	n/a
155.4	1.0	pain	cue	5	low_cue	n/a	n/a	n/a	n/a	n/a	n/a	n/a	task-social/cue/runtype-pain/scl/l032.png	n/a	n/a	n/a	n/a	n/a	n/a	n/a	n/a
158.62	2.28	pain	expectrating	5	low_cue	n/a	12.75	Moderate	12.75	Moderate	0.42	1.87	task-social/cue/runtype-pain/scl/l032.png	n/a	n/a	n/a	n/a	n/a	n/a	n/a	n/a
168.52	11.909999999999997	pain	stimulus	5	low_cue	low_stim	n/a	n/a	n/a	n/a	n/a	n/a	n/a	168.52	172.02	177.02	180.42	success	n/a	n/a	n/a
184.31	2.26	pain	outcomerating	5	low_cue	low_stim	19.16	Moderate	19.16	Moderate	0.42	1.87	task-social/outcomerating/task-pain_scale.png	n/a	n/a	n/a	n/a	success	n/a	n/a	n/a
189.6	1.0	pain	cue	6	low_cue	n/a	n/a	n/a	n/a	n/a	n/a	n/a	task-social/cue/runtype-pain/scl/l031.png	n/a	n/a	n/a	n/a	n/a	n/a	n/a	n/a
192.3	3.02	pain	expectrating	6	low_cue	n/a	19.02	Moderate	19.02	Moderate	0.68	2.34	task-social/cue/runtype-pain/scl/l031.png	n/a	n/a	n/a	n/a	n/a	n/a	n/a	n/a
197.73	12.820000000000022	pain	stimulus	6	low_cue	high_stim	n/a	n/a	n/a	n/a	n/a	n/a	n/a	197.73	201.74	206.74	210.55	success	n/a	n/a	n/a
208.2	2.72	pain	outcomerating	6	low_cue	high_stim	21.12	Moderate	21.12	Moderate	0.68	2.34	task-social/outcomerating/task-pain_scale.png	n/a	n/a	n/a	n/a	success	n/a	n/a	n/a
214.1	1.0	pain	cue	7	low_cue	n/a	n/a	n/a	n/a	n/a	n/a	n/a	task-social/cue/runtype-pain/scl/l038.png	n/a	n/a	n/a	n/a	n/a	n/a	n/a	n/a
216.41	2.75	pain	expectrating	7	low_cue	n/a	18.22	Moderate	18.22	Moderate	0.4	2.35	task-social/cue/runtype-pain/scl/l038.png	n/a	n/a	n/a	n/a	n/a	n/a	n/a	n/a
222.14	12.370000000000005	pain	stimulus	7	low_cue	med_stim	n/a	n/a	n/a	n/a	n/a	n/a	n/a	222.14	225.9	230.9	234.51	success	n/a	n/a	n/a
232.71	2.89	pain	outcomerating	7	low_cue	med_stim	9.46	Weak	9.46	Weak	0.4	2.35	task-social/outcomerating/task-pain_scale.png	n/a	n/a	n/a	n/a	success	n/a	n/a	n/a
239.0	1.0	pain	cue	8	low_cue	n/a	n/a	n/a	n/a	n/a	n/a	n/a	task-social/cue/runtype-pain/scl/l044.png	n/a	n/a	n/a	n/a	n/a	n/a	n/a	n/a
241.4	2.32	pain	expectrating	8	low_cue	n/a	13.48	Moderate	13.48	Moderate	0.4	1.92	task-social/cue/runtype-pain/scl/l044.png	n/a	n/a	n/a	n/a	n/a	n/a	n/a	n/a
246.52	12.359999999999985	pain	stimulus	8	low_cue	med_stim	n/a	n/a	n/a	n/a	n/a	n/a	n/a	246.52	250.28	255.28	258.89	success	n/a	n/a	n/a
261.71	2.78	pain	outcomerating	8	low_cue	med_stim	6.21	Weak	6.21	Weak	0.4	1.92	task-social/outcomerating/task-pain_scale.png	n/a	n/a	n/a	n/a	success	n/a	n/a	n/a
268.01	0.98	pain	cue	9	low_cue	n/a	n/a	n/a	n/a	n/a	n/a	n/a	task-social/cue/runtype-pain/scl/l005.png	n/a	n/a	n/a	n/a	n/a	n/a	n/a	n/a
271.21	3.93	pain	expectrating	9	low_cue	n/a	11.36	Moderate	11.36	Moderate	3.05	0.88	task-social/cue/runtype-pain/scl/l005.png	n/a	n/a	n/a	n/a	n/a	n/a	n/a	n/a
279.74	12.829999999999984	pain	stimulus	9	low_cue	high_stim	n/a	n/a	n/a	n/a	n/a	n/a	n/a	279.74	283.75	288.75	292.56	success	n/a	n/a	n/a
294.9	1.98	pain	outcomerating	9	low_cue	high_stim	22.36	Moderate	22.36	Moderate	3.05	0.88	task-social/outcomerating/task-pain_scale.png	n/a	n/a	n/a	n/a	success	n/a	n/a	n/a
305.0	1.0	pain	cue	10	high_cue	n/a	n/a	n/a	n/a	n/a	n/a	n/a	task-social/cue/runtype-pain/sch/h001.png	n/a	n/a	n/a	n/a	n/a	n/a	n/a	n/a
308.11	2.35	pain	expectrating	10	high_cue	n/a	24.92	Moderate	24.92	Moderate	0.38	1.97	task-social/cue/runtype-pain/sch/h001.png	n/a	n/a	n/a	n/a	n/a	n/a	n/a	n/a
315.12	11.909999999999968	pain	stimulus	10	high_cue	low_stim	n/a	n/a	n/a	n/a	n/a	n/a	n/a	315.12	318.62	323.62	327.02	success	n/a	n/a	n/a
328.6	1.65	pain	outcomerating	10	high_cue	low_stim	7.64	Weak	7.64	Weak	0.38	1.97	task-social/outcomerating/task-pain_scale.png	n/a	n/a	n/a	n/a	success	n/a	n/a	n/a
339.2	1.0	pain	cue	11	high_cue	n/a	n/a	n/a	n/a	n/a	n/a	n/a	task-social/cue/runtype-pain/sch/h035.png	n/a	n/a	n/a	n/a	n/a	n/a	n/a	n/a
341.9	2.45	pain	expectrating	11	high_cue	n/a	37.2	Strong	37.2	Strong	0.35	2.1	task-social/cue/runtype-pain/sch/h035.png	n/a	n/a	n/a	n/a	n/a	n/a	n/a	n/a
350.43	12.360000000000014	pain	stimulus	11	high_cue	med_stim	n/a	n/a	n/a	n/a	n/a	n/a	n/a	350.43	354.19	359.19	362.8	success	n/a	n/a	n/a
364.91	2.42	pain	outcomerating	11	high_cue	med_stim	21.72	Moderate	21.72	Moderate	0.35	2.1	task-social/outcomerating/task-pain_scale.png	n/a	n/a	n/a	n/a	success	n/a	n/a	n/a
370.1	1.0	pain	cue	12	high_cue	n/a	n/a	n/a	n/a	n/a	n/a	n/a	task-social/cue/runtype-pain/sch/h056.png	n/a	n/a	n/a	n/a	n/a	n/a	n/a	n/a
372.8	1.89	pain	expectrating	12	high_cue	n/a	37.83	Strong	37.83	Strong	0.32	1.57	task-social/cue/runtype-pain/sch/h056.png	n/a	n/a	n/a	n/a	n/a	n/a	n/a	n/a
385.54	12.819999999999993	pain	stimulus	12	high_cue	high_stim	n/a	n/a	n/a	n/a	n/a	n/a	n/a	385.54	389.55	394.55	398.36	success	n/a	n/a	n/a
395.01	3.97	pain	outcomerating	12	high_cue	high_stim	27.18	Moderate	27.18	Moderate	0.32	1.57	task-social/outcomerating/task-pain_scale.png	n/a	n/a	n/a	n/a	success	n/a	n/a	n/a
