onset	duration	run_type	trial_type	trial_index	cue	stimulusintensity	rating_value	rating_glmslabel	rating_value_fillna	rating_glmslabel_fillna	rating_mouseonset	rating_mousedur	stim_file	pain_onset_ttl1	pain_onset_ttl2	pain_onset_ttl3	pain_onset_ttl4	pain_stimulus_delivery_success	cognitive_correct_response	cognitive_participant_response	cognitive_response_accuracy
4.1	0.99	vicarious	cue	1	high_cue	n/a	n/a	n/a	n/a	n/a	n/a	n/a	task-social/cue/runtype-vicarious/sch/h012.png	n/a	n/a	n/a	n/a	n/a	n/a	n/a	n/a
7.23	2.15	vicarious	expectrating	1	high_cue	n/a	46.73	Strong	46.73	Strong	0.73	1.42	task-social/cue/runtype-vicarious/sch/h012.png	n/a	n/a	n/a	n/a	n/a	n/a	n/a	n/a
14.49	5.0	vicarious	stimulus	1	high_cue	med_stim	n/a	n/a	n/a	n/a	n/a	n/a	task-social/stim/runtype-vicarious/jy115t1aeaff_M.mp4	n/a	n/a	n/a	n/a	n/a	n/a	n/a	n/a
23.7	2.22	vicarious	outcomerating	1	high_cue	med_stim	10.22	Moderate	10.22	Moderate	0.45	1.77	task-social/outcomerating/task-vicarious_scale.png	n/a	n/a	n/a	n/a	n/a	n/a	n/a	n/a
33.49	0.99	vicarious	cue	2	low_cue	n/a	n/a	n/a	n/a	n/a	n/a	n/a	task-social/cue/runtype-vicarious/scl/l043.png	n/a	n/a	n/a	n/a	n/a	n/a	n/a	n/a
36.61	2.11	vicarious	expectrating	2	low_cue	n/a	3.68	Weak	3.68	Weak	0.45	1.66	task-social/cue/runtype-vicarious/scl/l043.png	n/a	n/a	n/a	n/a	n/a	n/a	n/a	n/a
49.49	5.0	vicarious	stimulus	2	low_cue	low_stim	n/a	n/a	n/a	n/a	n/a	n/a	task-social/stim/runtype-vicarious/jy115t1aaunaff_L.mp4	n/a	n/a	n/a	n/a	n/a	n/a	n/a	n/a
62.4	1.68	vicarious	outcomerating	2	low_cue	low_stim	0.0	n/a	0.0	n/a	0.5	1.18	task-social/outcomerating/task-vicarious_scale.png	n/a	n/a	n/a	n/a	n/a	n/a	n/a	n/a
71.61	0.98	vicarious	cue	3	high_cue	n/a	n/a	n/a	n/a	n/a	n/a	n/a	task-social/cue/runtype-vicarious/sch/h017.png	n/a	n/a	n/a	n/a	n/a	n/a	n/a	n/a
73.61	1.73	vicarious	expectrating	3	high_cue	n/a	54.65	Strong	54.65	Strong	0.7	1.03	task-social/cue/runtype-vicarious/sch/h017.png	n/a	n/a	n/a	n/a	n/a	n/a	n/a	n/a
86.49	5.0	vicarious	stimulus	3	high_cue	low_stim	n/a	n/a	n/a	n/a	n/a	n/a	task-social/stim/runtype-vicarious/dr052t1aeunaff_L.mp4	n/a	n/a	n/a	n/a	n/a	n/a	n/a	n/a
97.12	2.34	vicarious	outcomerating	3	high_cue	low_stim	14.71	Moderate	14.71	Moderate	0.55	1.79	task-social/outcomerating/task-vicarious_scale.png	n/a	n/a	n/a	n/a	n/a	n/a	n/a	n/a
105.6	0.98	vicarious	cue	4	high_cue	n/a	n/a	n/a	n/a	n/a	n/a	n/a	task-social/cue/runtype-vicarious/sch/h033.png	n/a	n/a	n/a	n/a	n/a	n/a	n/a	n/a
108.7	1.43	vicarious	expectrating	4	high_cue	n/a	71.34	Very Strong	71.34	Very Strong	0.18	1.25	task-social/cue/runtype-vicarious/sch/h033.png	n/a	n/a	n/a	n/a	n/a	n/a	n/a	n/a
119.89	5.0	vicarious	stimulus	4	high_cue	high_stim	n/a	n/a	n/a	n/a	n/a	n/a	task-social/stim/runtype-vicarious/jh123t1aeaff_H.mp4	n/a	n/a	n/a	n/a	n/a	n/a	n/a	n/a
127.51	1.96	vicarious	outcomerating	4	high_cue	high_stim	22.67	Moderate	22.67	Moderate	0.53	1.42	task-social/outcomerating/task-vicarious_scale.png	n/a	n/a	n/a	n/a	n/a	n/a	n/a	n/a
132.8	0.99	vicarious	cue	5	high_cue	n/a	n/a	n/a	n/a	n/a	n/a	n/a	task-social/cue/runtype-vicarious/sch/h026.png	n/a	n/a	n/a	n/a	n/a	n/a	n/a	n/a
135.91	1.59	vicarious	expectrating	5	high_cue	n/a	41.42	Strong	41.42	Strong	0.7	0.89	task-social/cue/runtype-vicarious/sch/h026.png	n/a	n/a	n/a	n/a	n/a	n/a	n/a	n/a
143.19	5.0	vicarious	stimulus	5	high_cue	low_stim	n/a	n/a	n/a	n/a	n/a	n/a	task-social/stim/runtype-vicarious/mg066t2aeunaff_L.mp4	n/a	n/a	n/a	n/a	n/a	n/a	n/a	n/a
152.42	1.6	vicarious	outcomerating	5	high_cue	low_stim	19.45	Moderate	19.45	Moderate	0.6	1.0	task-social/outcomerating/task-vicarious_scale.png	n/a	n/a	n/a	n/a	n/a	n/a	n/a	n/a
163.29	0.99	vicarious	cue	6	high_cue	n/a	n/a	n/a	n/a	n/a	n/a	n/a	task-social/cue/runtype-vicarious/sch/h021.png	n/a	n/a	n/a	n/a	n/a	n/a	n/a	n/a
165.31	2.12	vicarious	expectrating	6	high_cue	n/a	61.46	Strong	61.46	Strong	1.02	1.11	task-social/cue/runtype-vicarious/sch/h021.png	n/a	n/a	n/a	n/a	n/a	n/a	n/a	n/a
176.49	5.0	vicarious	stimulus	6	high_cue	med_stim	n/a	n/a	n/a	n/a	n/a	n/a	task-social/stim/runtype-vicarious/tv095t2afaff_M.mp4	n/a	n/a	n/a	n/a	n/a	n/a	n/a	n/a
184.51	2.47	vicarious	outcomerating	6	high_cue	med_stim	38.77	Strong	38.77	Strong	0.65	1.82	task-social/outcomerating/task-vicarious_scale.png	n/a	n/a	n/a	n/a	n/a	n/a	n/a	n/a
196.9	0.98	vicarious	cue	7	low_cue	n/a	n/a	n/a	n/a	n/a	n/a	n/a	task-social/cue/runtype-vicarious/scl/l008.png	n/a	n/a	n/a	n/a	n/a	n/a	n/a	n/a
199.3	1.9	vicarious	expectrating	7	low_cue	n/a	2.31	Barely detectable	2.31	Barely detectable	0.32	1.58	task-social/cue/runtype-vicarious/scl/l008.png	n/a	n/a	n/a	n/a	n/a	n/a	n/a	n/a
207.89	5.0	vicarious	stimulus	7	low_cue	high_stim	n/a	n/a	n/a	n/a	n/a	n/a	task-social/stim/runtype-vicarious/dr052t1aiaff_H.mp4	n/a	n/a	n/a	n/a	n/a	n/a	n/a	n/a
224.41	2.15	vicarious	outcomerating	7	low_cue	high_stim	29.05	Strong	29.05	Strong	0.28	1.87	task-social/outcomerating/task-vicarious_scale.png	n/a	n/a	n/a	n/a	n/a	n/a	n/a	n/a
231.4	0.99	vicarious	cue	8	low_cue	n/a	n/a	n/a	n/a	n/a	n/a	n/a	task-social/cue/runtype-vicarious/scl/l025.png	n/a	n/a	n/a	n/a	n/a	n/a	n/a	n/a
234.3	1.98	vicarious	expectrating	8	low_cue	n/a	0.0	n/a	0.0	n/a	0.72	1.27	task-social/cue/runtype-vicarious/scl/l025.png	n/a	n/a	n/a	n/a	n/a	n/a	n/a	n/a
242.89	5.0	vicarious	stimulus	8	low_cue	med_stim	n/a	n/a	n/a	n/a	n/a	n/a	task-social/stim/runtype-vicarious/aa048t2afunaff_M.mp4	n/a	n/a	n/a	n/a	n/a	n/a	n/a	n/a
257.01	1.87	vicarious	outcomerating	8	low_cue	med_stim	0.0	n/a	0.0	n/a	0.63	1.24	task-social/outcomerating/task-vicarious_scale.png	n/a	n/a	n/a	n/a	n/a	n/a	n/a	n/a
270.4	0.99	vicarious	cue	9	high_cue	n/a	n/a	n/a	n/a	n/a	n/a	n/a	task-social/cue/runtype-vicarious/sch/h007.png	n/a	n/a	n/a	n/a	n/a	n/a	n/a	n/a
272.2	1.62	vicarious	expectrating	9	high_cue	n/a	49.9	Strong	49.9	Strong	0.68	0.94	task-social/cue/runtype-vicarious/sch/h007.png	n/a	n/a	n/a	n/a	n/a	n/a	n/a	n/a
280.79	5.0	vicarious	stimulus	9	high_cue	high_stim	n/a	n/a	n/a	n/a	n/a	n/a	task-social/stim/runtype-vicarious/jy115t2aaaff_H.mp4	n/a	n/a	n/a	n/a	n/a	n/a	n/a	n/a
292.4	2.39	vicarious	outcomerating	9	high_cue	high_stim	47.11	Strong	47.11	Strong	0.73	1.65	task-social/outcomerating/task-vicarious_scale.png	n/a	n/a	n/a	n/a	n/a	n/a	n/a	n/a
297.69	0.99	vicarious	cue	10	low_cue	n/a	n/a	n/a	n/a	n/a	n/a	n/a	task-social/cue/runtype-vicarious/scl/l024.png	n/a	n/a	n/a	n/a	n/a	n/a	n/a	n/a
300.21	2.44	vicarious	expectrating	10	low_cue	n/a	6.44	Weak	6.44	Weak	0.47	1.97	task-social/cue/runtype-vicarious/scl/l024.png	n/a	n/a	n/a	n/a	n/a	n/a	n/a	n/a
308.29	5.0	vicarious	stimulus	10	low_cue	med_stim	n/a	n/a	n/a	n/a	n/a	n/a	task-social/stim/runtype-vicarious/mg066t2aaunaff_M.mp4	n/a	n/a	n/a	n/a	n/a	n/a	n/a	n/a
318.01	3.65	vicarious	outcomerating	10	low_cue	med_stim	7.13	Weak	7.13	Weak	0.78	2.87	task-social/outcomerating/task-vicarious_scale.png	n/a	n/a	n/a	n/a	n/a	n/a	n/a	n/a
327.2	0.98	vicarious	cue	11	low_cue	n/a	n/a	n/a	n/a	n/a	n/a	n/a	task-social/cue/runtype-vicarious/scl/l041.png	n/a	n/a	n/a	n/a	n/a	n/a	n/a	n/a
329.1	1.42	vicarious	expectrating	11	low_cue	n/a	0.7	No sensation	0.7	No sensation	0.57	0.85	task-social/cue/runtype-vicarious/scl/l041.png	n/a	n/a	n/a	n/a	n/a	n/a	n/a	n/a
346.59	5.0	vicarious	stimulus	11	low_cue	low_stim	n/a	n/a	n/a	n/a	n/a	n/a	task-social/stim/runtype-vicarious/th108t1aaunaff_L.mp4	n/a	n/a	n/a	n/a	n/a	n/a	n/a	n/a
367.02	3.99	vicarious	outcomerating	11	low_cue	low_stim	19.89	Moderate	19.89	Moderate	1.35	2.64	task-social/outcomerating/task-vicarious_scale.png	n/a	n/a	n/a	n/a	n/a	n/a	n/a	n/a
372.6	0.98	vicarious	cue	12	low_cue	n/a	n/a	n/a	n/a	n/a	n/a	n/a	task-social/cue/runtype-vicarious/scl/l030.png	n/a	n/a	n/a	n/a	n/a	n/a	n/a	n/a
374.6	1.58	vicarious	expectrating	12	low_cue	n/a	3.5	Weak	3.5	Weak	0.63	0.95	task-social/cue/runtype-vicarious/scl/l030.png	n/a	n/a	n/a	n/a	n/a	n/a	n/a	n/a
386.39	5.0	vicarious	stimulus	12	low_cue	high_stim	n/a	n/a	n/a	n/a	n/a	n/a	task-social/stim/runtype-vicarious/th108t1aeaff_H.mp4	n/a	n/a	n/a	n/a	n/a	n/a	n/a	n/a
394.41	2.26	vicarious	outcomerating	12	low_cue	high_stim	43.2	Strong	43.2	Strong	0.53	1.72	task-social/outcomerating/task-vicarious_scale.png	n/a	n/a	n/a	n/a	n/a	n/a	n/a	n/a
