onset	duration	trial_type	response_x	response_y	situation	context	modality	stim_file
4.807	54.295	narrative_presentation	n/a	n/a	Deliverance	prison	Audio	task-narratives/Narrative7Situation1.mp3
59.103	3.417	rating_feeling	690	494	Deliverance	prison	Audio	n/a
59.969	2.55	feeling_mouse_trajectory	690	494	Deliverance	prison	Audio	n/a
63.139	2.25	rating_expectation	693	445	Deliverance	prison	Audio	n/a
63.505	1.883	expectation_mouse_trajectory	693	445	Deliverance	prison	Audio	n/a
70.327	5.96	narrative_presentation	n/a	n/a	Adultery	prison	Audio	task-narratives/Narrative7Situation2.mp3
76.287	2.917	rating_feeling	690	494	Adultery	prison	Audio	n/a
76.821	2.383	feeling_mouse_trajectory	690	494	Adultery	prison	Audio	n/a
80.312	1.017	rating_expectation	693	445	Adultery	prison	Audio	n/a
80.845	0.483	expectation_mouse_trajectory	693	445	Adultery	prison	Audio	n/a
92.403	7.445	narrative_presentation	n/a	n/a	Pursuit	prison	Audio	task-narratives/Narrative7Situation3.mp3
99.847	2.9	rating_feeling	690	494	Pursuit	prison	Audio	n/a
100.581	2.167	feeling_mouse_trajectory	690	494	Pursuit	prison	Audio	n/a
103.889	2.967	rating_expectation	693	445	Pursuit	prison	Audio	n/a
104.439	2.417	expectation_mouse_trajectory	693	445	Pursuit	prison	Audio	n/a
110.975	11.495	narrative_presentation	n/a	n/a	Conflict with a god	park	Audio	task-narratives/Narrative7Situation4.mp3
122.47	3.75	rating_feeling	690	494	Conflict with a god	park	Audio	n/a
123.453	2.767	feeling_mouse_trajectory	690	494	Conflict with a god	park	Audio	n/a
126.5	3.95	rating_expectation	693	445	Conflict with a god	park	Audio	n/a
127.733	2.717	expectation_mouse_trajectory	693	445	Conflict with a god	park	Audio	n/a
135.595	7.975	narrative_presentation	n/a	n/a	Recovery of a lost one	park	Audio	task-narratives/Narrative7Situation5.mp3
143.569	1.583	rating_feeling	690	494	Recovery of a lost one	park	Audio	n/a
143.903	1.25	feeling_mouse_trajectory	690	494	Recovery of a lost one	park	Audio	n/a
147.607	1.85	rating_expectation	693	445	Recovery of a lost one	park	Audio	n/a
147.907	1.55	expectation_mouse_trajectory	693	445	Recovery of a lost one	park	Audio	n/a
154.708	8.776	narrative_presentation	n/a	n/a	Supplication	park	Audio	task-narratives/Narrative7Situation6.mp3
163.484	1.483	rating_feeling	690	494	Supplication	park	Audio	n/a
163.951	1.017	feeling_mouse_trajectory	690	494	Supplication	park	Audio	n/a
167.511	2.083	rating_expectation	693	445	Supplication	park	Audio	n/a
167.961	1.633	expectation_mouse_trajectory	693	445	Supplication	park	Audio	n/a
176.567	16.647	narrative_presentation	n/a	n/a	Involuntary crimes of love	hospital	Audio	task-narratives/Narrative7Situation7.mp3
193.214	3.767	rating_feeling	690	494	Involuntary crimes of love	hospital	Audio	n/a
193.781	3.2	feeling_mouse_trajectory	690	494	Involuntary crimes of love	hospital	Audio	n/a
197.238	3.383	rating_expectation	693	445	Involuntary crimes of love	hospital	Audio	n/a
198.522	2.1	expectation_mouse_trajectory	693	445	Involuntary crimes of love	hospital	Audio	n/a
203.292	8.777	narrative_presentation	n/a	n/a	An enemy loved	hospital	Audio	task-narratives/Narrative7Situation8.mp3
212.069	1.467	rating_feeling	690	494	An enemy loved	hospital	Audio	n/a
212.553	0.983	feeling_mouse_trajectory	690	494	An enemy loved	hospital	Audio	n/a
216.095	2.117	rating_expectation	693	445	An enemy loved	hospital	Audio	n/a
217.062	1.15	expectation_mouse_trajectory	693	445	An enemy loved	hospital	Audio	n/a
222.166	7.978	narrative_presentation	n/a	n/a	Ambition	hospital	Audio	task-narratives/Narrative7Situation9.mp3
230.144	0.933	rating_feeling	690	494	Ambition	hospital	Audio	n/a
230.561	0.517	feeling_mouse_trajectory	690	494	Ambition	hospital	Audio	n/a
234.171	1.05	rating_expectation	693	445	Ambition	hospital	Audio	n/a
234.521	0.7	expectation_mouse_trajectory	693	445	Ambition	hospital	Audio	n/a
243.24	15.312	narrative_presentation	n/a	n/a	Necessity of sacrificing loved ones	town	Audio	task-narratives/Narrative8Situation1.mp3
258.553	1.783	rating_feeling	690	494	Necessity of sacrificing loved ones	town	Audio	n/a
258.869	1.467	feeling_mouse_trajectory	690	494	Necessity of sacrificing loved ones	town	Audio	n/a
262.579	2.35	rating_expectation	693	445	Necessity of sacrificing loved ones	town	Audio	n/a
263.779	1.15	expectation_mouse_trajectory	693	445	Necessity of sacrificing loved ones	town	Audio	n/a
269.651	8.779	narrative_presentation	n/a	n/a	Abduction	town	Audio	task-narratives/Narrative8Situation2.mp3
278.43	1.95	rating_feeling	690	494	Abduction	town	Audio	n/a
278.813	1.567	feeling_mouse_trajectory	690	494	Abduction	town	Audio	n/a
282.454	1.183	rating_expectation	693	445	Abduction	town	Audio	n/a
282.82	0.817	expectation_mouse_trajectory	693	445	Abduction	town	Audio	n/a
290.509	22.148	narrative_presentation	n/a	n/a	Adultery	town	Audio	task-narratives/Narrative8Situation3.mp3
312.657	3.95	rating_feeling	690	494	Adultery	town	Audio	n/a
313.04	3.567	feeling_mouse_trajectory	690	494	Adultery	town	Audio	n/a
316.687	1.7	rating_expectation	693	445	Adultery	town	Audio	n/a
317.237	1.15	expectation_mouse_trajectory	693	445	Adultery	town	Audio	n/a
323.757	12.608	narrative_presentation	n/a	n/a	Obtaining	city	Audio	task-narratives/Narrative8Situation4.mp3
336.366	2.8	rating_feeling	690	494	Obtaining	city	Audio	n/a
337.182	1.983	feeling_mouse_trajectory	690	494	Obtaining	city	Audio	n/a
340.391	3.15	rating_expectation	693	445	Obtaining	city	Audio	n/a
340.941	2.6	expectation_mouse_trajectory	693	445	Obtaining	city	Audio	n/a
346.446	6.616	narrative_presentation	n/a	n/a	Supplication	city	Audio	task-narratives/Narrative8Situation5.mp3
353.063	2.7	rating_feeling	690	494	Supplication	city	Audio	n/a
353.579	2.183	feeling_mouse_trajectory	690	494	Supplication	city	Audio	n/a
357.104	1.833	rating_expectation	693	445	Supplication	city	Audio	n/a
357.471	1.467	expectation_mouse_trajectory	693	445	Supplication	city	Audio	n/a
363.185	5.979	narrative_presentation	n/a	n/a	Rivalry of kin	city	Audio	task-narratives/Narrative8Situation6.mp3
369.165	2.533	rating_feeling	690	494	Rivalry of kin	city	Audio	n/a
369.998	1.7	feeling_mouse_trajectory	690	494	Rivalry of kin	city	Audio	n/a
373.187	2.017	rating_expectation	693	445	Rivalry of kin	city	Audio	n/a
373.87	1.333	expectation_mouse_trajectory	693	445	Rivalry of kin	city	Audio	n/a
380.243	10.781	narrative_presentation	n/a	n/a	Recovery of a lost one	beach	Audio	task-narratives/Narrative8Situation7.mp3
391.024	3.0	rating_feeling	690	494	Recovery of a lost one	beach	Audio	n/a
391.84	2.183	feeling_mouse_trajectory	690	494	Recovery of a lost one	beach	Audio	n/a
395.054	1.867	rating_expectation	693	445	Recovery of a lost one	beach	Audio	n/a
395.47	1.45	expectation_mouse_trajectory	693	445	Recovery of a lost one	beach	Audio	n/a
402.133	11.286	narrative_presentation	n/a	n/a	Rivalry of superior versus inferior	beach	Audio	task-narratives/Narrative8Situation8.mp3
413.419	3.467	rating_feeling	690	494	Rivalry of superior versus inferior	beach	Audio	n/a
413.802	3.083	feeling_mouse_trajectory	690	494	Rivalry of superior versus inferior	beach	Audio	n/a
417.454	1.85	rating_expectation	693	445	Rivalry of superior versus inferior	beach	Audio	n/a
417.904	1.4	expectation_mouse_trajectory	693	445	Rivalry of superior versus inferior	beach	Audio	n/a
424.508	10.112	narrative_presentation	n/a	n/a	Slaying of kin unrecognized	beach	Audio	task-narratives/Narrative8Situation9.mp3
434.621	3.317	rating_feeling	690	494	Slaying of kin unrecognized	beach	Audio	n/a
435.038	2.9	feeling_mouse_trajectory	690	494	Slaying of kin unrecognized	beach	Audio	n/a
438.644	2.133	rating_expectation	693	445	Slaying of kin unrecognized	beach	Audio	n/a
439.578	1.2	expectation_mouse_trajectory	693	445	Slaying of kin unrecognized	beach	Audio	n/a
