onset	duration	trial_type	response_x	response_y	situation	context	modality	stim_file
4.818	25.99	narrative_presentation	n/a	n/a	Enmity of kin	prison	Audio	task-narratives/Narrative6Situation1.mp3
30.808	2.508	rating_feeling	725.0	584.0	Enmity of kin	prison	Audio	task-narratives/Narrative6Situation1.mp3
32.141	1.175	feeling_mouse_trajectory	725.0	584.0	Enmity of kin	prison	Audio	task-narratives/Narrative6Situation1.mp3
34.843	3.123	rating_expectation	768.0	528.0	Enmity of kin	prison	Audio	task-narratives/Narrative6Situation1.mp3
36.843	1.123	expectation_mouse_trajectory	768.0	528.0	Enmity of kin	prison	Audio	task-narratives/Narrative6Situation1.mp3
41.912	27.985	narrative_presentation	n/a	n/a	The enigma	town	Audio	task-narratives/Narrative6Situation2.mp3
69.897	2.985	rating_feeling	725.0	584.0	The enigma	town	Audio	task-narratives/Narrative6Situation2.mp3
71.364	1.518	feeling_mouse_trajectory	725.0	584.0	The enigma	town	Audio	task-narratives/Narrative6Situation2.mp3
73.93	2.992	rating_expectation	768.0	528.0	The enigma	town	Audio	task-narratives/Narrative6Situation2.mp3
74.88	2.042	expectation_mouse_trajectory	768.0	528.0	The enigma	town	Audio	task-narratives/Narrative6Situation2.mp3
82.995	11.978	narrative_presentation	n/a	n/a	Discovery of dishonour of loved one	prison	Audio	task-narratives/Narrative6Situation3.mp3
94.973	2.068	rating_feeling	725.0	584.0	Discovery of dishonour of loved one	prison	Audio	task-narratives/Narrative6Situation3.mp3
95.623	1.418	feeling_mouse_trajectory	725.0	584.0	Discovery of dishonour of loved one	prison	Audio	task-narratives/Narrative6Situation3.mp3
98.999	1.667	rating_expectation	768.0	528.0	Discovery of dishonour of loved one	prison	Audio	task-narratives/Narrative6Situation3.mp3
99.582	1.084	expectation_mouse_trajectory	768.0	528.0	Discovery of dishonour of loved one	prison	Audio	task-narratives/Narrative6Situation3.mp3
105.054	11.975	narrative_presentation	n/a	n/a	Loss of loved one	swamp	Audio	task-narratives/Narrative6Situation4.mp3
117.029	2.042	rating_feeling	725.0	584.0	Loss of loved one	swamp	Audio	task-narratives/Narrative6Situation4.mp3
117.879	1.192	feeling_mouse_trajectory	725.0	584.0	Loss of loved one	swamp	Audio	task-narratives/Narrative6Situation4.mp3
121.057	2.807	rating_expectation	768.0	528.0	Loss of loved one	swamp	Audio	task-narratives/Narrative6Situation4.mp3
123.023	0.841	expectation_mouse_trajectory	768.0	528.0	Loss of loved one	swamp	Audio	task-narratives/Narrative6Situation4.mp3
127.111	7.312	narrative_presentation	n/a	n/a	Necessity of sacrificing loved ones	park	Audio	task-narratives/Narrative6Situation5.mp3
134.423	3.967	rating_feeling	725.0	584.0	Necessity of sacrificing loved ones	park	Audio	task-narratives/Narrative6Situation5.mp3
135.139	3.25	feeling_mouse_trajectory	725.0	584.0	Necessity of sacrificing loved ones	park	Audio	task-narratives/Narrative6Situation5.mp3
138.447	0.634	rating_expectation	768.0	528.0	Necessity of sacrificing loved ones	park	Audio	task-narratives/Narrative6Situation5.mp3
139.33	-0.249	expectation_mouse_trajectory	768.0	528.0	Necessity of sacrificing loved ones	park	Audio	task-narratives/Narrative6Situation5.mp3
144.501	10.811	narrative_presentation	n/a	n/a	Daring Enterprise	swamp	Audio	task-narratives/Narrative6Situation6.mp3
155.312	2.901	rating_feeling	725.0	584.0	Daring Enterprise	swamp	Audio	task-narratives/Narrative6Situation6.mp3
156.029	2.185	feeling_mouse_trajectory	725.0	584.0	Daring Enterprise	swamp	Audio	task-narratives/Narrative6Situation6.mp3
159.338	1.11	rating_expectation	768.0	528.0	Daring Enterprise	swamp	Audio	task-narratives/Narrative6Situation6.mp3
159.771	0.677	expectation_mouse_trajectory	768.0	528.0	Daring Enterprise	swamp	Audio	task-narratives/Narrative6Situation6.mp3
168.393	23.282	narrative_presentation	n/a	n/a	Revolt	beach	Audio	task-narratives/Narrative6Situation7.mp3
191.675	2.434	rating_feeling	725.0	584.0	Revolt	beach	Audio	task-narratives/Narrative6Situation7.mp3
192.809	1.301	feeling_mouse_trajectory	725.0	584.0	Revolt	beach	Audio	task-narratives/Narrative6Situation7.mp3
195.701	2.835	rating_expectation	768.0	528.0	Revolt	beach	Audio	task-narratives/Narrative6Situation7.mp3
197.985	0.551	expectation_mouse_trajectory	768.0	528.0	Revolt	beach	Audio	task-narratives/Narrative6Situation7.mp3
204.758	5.275	narrative_presentation	n/a	n/a	Falling prey to misfortune	city	Audio	task-narratives/Narrative6Situation8.mp3
210.033	1.974	rating_feeling	725.0	584.0	Falling prey to misfortune	city	Audio	task-narratives/Narrative6Situation8.mp3
211.083	0.924	feeling_mouse_trajectory	725.0	584.0	Falling prey to misfortune	city	Audio	task-narratives/Narrative6Situation8.mp3
214.064	3.817	rating_expectation	768.0	528.0	Falling prey to misfortune	city	Audio	task-narratives/Narrative6Situation8.mp3
214.131	3.75	expectation_mouse_trajectory	768.0	528.0	Falling prey to misfortune	city	Audio	task-narratives/Narrative6Situation8.mp3
222.131	9.308	narrative_presentation	n/a	n/a	Mistaken jealousy	beach	Audio	task-narratives/Narrative6Situation9.mp3
231.439	n/a	rating_feeling	725.0	584.0	Mistaken jealousy	beach	Audio	task-narratives/Narrative6Situation9.mp3
n/a	n/a	feeling_mouse_trajectory	725.0	584.0	Mistaken jealousy	beach	Audio	task-narratives/Narrative6Situation9.mp3
235.466	1.717	rating_expectation	768.0	528.0	Mistaken jealousy	beach	Audio	task-narratives/Narrative6Situation9.mp3
236.649	0.534	expectation_mouse_trajectory	768.0	528.0	Mistaken jealousy	beach	Audio	task-narratives/Narrative6Situation9.mp3
244.522	12.65	narrative_presentation	n/a	n/a	Enmity of kin	prison	Audio	task-narratives/Narrative5Situation1.mp3
257.173	2.04	rating_feeling	725.0	584.0	Enmity of kin	prison	Audio	task-narratives/Narrative5Situation1.mp3
258.639	0.573	feeling_mouse_trajectory	725.0	584.0	Enmity of kin	prison	Audio	task-narratives/Narrative5Situation1.mp3
261.197	1.189	rating_expectation	768.0	528.0	Enmity of kin	prison	Audio	task-narratives/Narrative5Situation1.mp3
261.297	1.089	expectation_mouse_trajectory	768.0	528.0	Enmity of kin	prison	Audio	task-narratives/Narrative5Situation1.mp3
268.247	28.109	narrative_presentation	n/a	n/a	The enigma	town	Audio	task-narratives/Narrative5Situation2.mp3
296.355	2.492	rating_feeling	725.0	584.0	The enigma	town	Audio	task-narratives/Narrative5Situation2.mp3
296.855	1.992	feeling_mouse_trajectory	725.0	584.0	The enigma	town	Audio	task-narratives/Narrative5Situation2.mp3
300.398	1.034	rating_expectation	768.0	528.0	The enigma	town	Audio	task-narratives/Narrative5Situation2.mp3
300.564	0.867	expectation_mouse_trajectory	768.0	528.0	The enigma	town	Audio	task-narratives/Narrative5Situation2.mp3
307.478	13.291	narrative_presentation	n/a	n/a	Discovery of dishonour of loved one	prison	Audio	task-narratives/Narrative5Situation3.mp3
320.77	3.967	rating_feeling	725.0	584.0	Discovery of dishonour of loved one	prison	Audio	task-narratives/Narrative5Situation3.mp3
324.586	0.15	feeling_mouse_trajectory	725.0	584.0	Discovery of dishonour of loved one	prison	Audio	task-narratives/Narrative5Situation3.mp3
324.799	0.534	rating_expectation	768.0	528.0	Discovery of dishonour of loved one	prison	Audio	task-narratives/Narrative5Situation3.mp3
324.882	0.45	expectation_mouse_trajectory	768.0	528.0	Discovery of dishonour of loved one	prison	Audio	task-narratives/Narrative5Situation3.mp3
329.87	20.154	narrative_presentation	n/a	n/a	Loss of loved one	swamp	Audio	task-narratives/Narrative5Situation4.mp3
350.024	0.806	rating_feeling	725.0	584.0	Loss of loved one	swamp	Audio	task-narratives/Narrative5Situation4.mp3
350.09	0.739	feeling_mouse_trajectory	725.0	584.0	Loss of loved one	swamp	Audio	task-narratives/Narrative5Situation4.mp3
354.047	2.254	rating_expectation	768.0	528.0	Loss of loved one	swamp	Audio	task-narratives/Narrative5Situation4.mp3
354.097	2.204	expectation_mouse_trajectory	768.0	528.0	Loss of loved one	swamp	Audio	task-narratives/Narrative5Situation4.mp3
363.116	14.117	narrative_presentation	n/a	n/a	Necessity of sacrificing loved ones	park	Audio	task-narratives/Narrative5Situation5.mp3
377.233	2.334	rating_feeling	725.0	584.0	Necessity of sacrificing loved ones	park	Audio	task-narratives/Narrative5Situation5.mp3
378.267	1.301	feeling_mouse_trajectory	725.0	584.0	Necessity of sacrificing loved ones	park	Audio	task-narratives/Narrative5Situation5.mp3
381.253	1.818	rating_expectation	768.0	528.0	Necessity of sacrificing loved ones	park	Audio	task-narratives/Narrative5Situation5.mp3
381.587	1.484	expectation_mouse_trajectory	768.0	528.0	Necessity of sacrificing loved ones	park	Audio	task-narratives/Narrative5Situation5.mp3
388.31	5.48	narrative_presentation	n/a	n/a	Daring Enterprise	swamp	Audio	task-narratives/Narrative5Situation6.mp3
393.79	n/a	rating_feeling	725.0	584.0	Daring Enterprise	swamp	Audio	task-narratives/Narrative5Situation6.mp3
n/a	n/a	feeling_mouse_trajectory	725.0	584.0	Daring Enterprise	swamp	Audio	task-narratives/Narrative5Situation6.mp3
397.814	n/a	rating_expectation	768.0	528.0	Daring Enterprise	swamp	Audio	task-narratives/Narrative5Situation6.mp3
n/a	n/a	expectation_mouse_trajectory	768.0	528.0	Daring Enterprise	swamp	Audio	task-narratives/Narrative5Situation6.mp3
405.883	20.818	narrative_presentation	n/a	n/a	Revolt	beach	Audio	task-narratives/Narrative5Situation7.mp3
426.7	1.317	rating_feeling	725.0	584.0	Revolt	beach	Audio	task-narratives/Narrative5Situation7.mp3
427.167	0.851	feeling_mouse_trajectory	725.0	584.0	Revolt	beach	Audio	task-narratives/Narrative5Situation7.mp3
430.722	2.909	rating_expectation	768.0	528.0	Revolt	beach	Audio	task-narratives/Narrative5Situation7.mp3
431.838	1.792	expectation_mouse_trajectory	768.0	528.0	Revolt	beach	Audio	task-narratives/Narrative5Situation7.mp3
437.777	7.281	narrative_presentation	n/a	n/a	Falling prey to misfortune	city	Audio	task-narratives/Narrative5Situation8.mp3
445.059	1.537	rating_feeling	725.0	584.0	Falling prey to misfortune	city	Audio	task-narratives/Narrative5Situation8.mp3
445.675	0.92	feeling_mouse_trajectory	725.0	584.0	Falling prey to misfortune	city	Audio	task-narratives/Narrative5Situation8.mp3
449.08	1.602	rating_expectation	768.0	528.0	Falling prey to misfortune	city	Audio	task-narratives/Narrative5Situation8.mp3
449.114	1.569	expectation_mouse_trajectory	768.0	528.0	Falling prey to misfortune	city	Audio	task-narratives/Narrative5Situation8.mp3
456.134	37.947	narrative_presentation	n/a	n/a	Mistaken jealousy	beach	Audio	task-narratives/Narrative5Situation9.mp3
494.081	1.652	rating_feeling	725.0	584.0	Mistaken jealousy	beach	Audio	task-narratives/Narrative5Situation9.mp3
494.781	0.952	feeling_mouse_trajectory	725.0	584.0	Mistaken jealousy	beach	Audio	task-narratives/Narrative5Situation9.mp3
498.114	2.018	rating_expectation	768.0	528.0	Mistaken jealousy	beach	Audio	task-narratives/Narrative5Situation9.mp3
498.181	1.951	expectation_mouse_trajectory	768.0	528.0	Mistaken jealousy	beach	Audio	task-narratives/Narrative5Situation9.mp3
