onset	duration	run_type	trial_type	trial_index	cue	stimulusintensity	rating_value	rating_glmslabel	rating_value_fillna	rating_glmslabel_fillna	rating_mouseonset	rating_mousedur	stim_file	pain_onset_ttl1	pain_onset_ttl2	pain_onset_ttl3	pain_onset_ttl4	pain_stimulus_delivery_success	cognitive_correct_response	cognitive_participant_response	cognitive_response_accuracy
5.71	0.98	vicarious	cue	1	high_cue	n/a	n/a	n/a	n/a	n/a	n/a	n/a	task-social/cue/runtype-vicarious/sch/h009.png	n/a	n/a	n/a	n/a	n/a	n/a	n/a	n/a
8.34	2.25	vicarious	expectrating	1	high_cue	n/a	55.16	Strong	55.16	Strong	0.88	1.37	task-social/cue/runtype-vicarious/sch/h009.png	n/a	n/a	n/a	n/a	n/a	n/a	n/a	n/a
14.89	5.0	vicarious	stimulus	1	high_cue	high_stim	n/a	n/a	n/a	n/a	n/a	n/a	task-social/stim/runtype-vicarious/ll042t1aiaff_H.mp4	n/a	n/a	n/a	n/a	n/a	n/a	n/a	n/a
23.91	2.4	vicarious	outcomerating	1	high_cue	high_stim	107.0	Strongest-sensation-of-any-kind	107.0	Strongest-sensation-of-any-kind	0.88	1.37	task-social/outcomerating/task-vicarious_scale.png	n/a	n/a	n/a	n/a	n/a	n/a	n/a	n/a
29.0	0.99	vicarious	cue	2	low_cue	n/a	n/a	n/a	n/a	n/a	n/a	n/a	task-social/cue/runtype-vicarious/scl/l054.png	n/a	n/a	n/a	n/a	n/a	n/a	n/a	n/a
32.0	2.46	vicarious	expectrating	2	low_cue	n/a	7.38	Weak	7.38	Weak	0.65	1.81	task-social/cue/runtype-vicarious/scl/l054.png	n/a	n/a	n/a	n/a	n/a	n/a	n/a	n/a
43.89	5.0	vicarious	stimulus	2	low_cue	high_stim	n/a	n/a	n/a	n/a	n/a	n/a	task-social/stim/runtype-vicarious/jk103t1aaaff_H.mp4	n/a	n/a	n/a	n/a	n/a	n/a	n/a	n/a
55.21	3.4	vicarious	outcomerating	2	low_cue	high_stim	110.69	Strongest-sensation-of-any-kind	110.69	Strongest-sensation-of-any-kind	0.65	1.81	task-social/outcomerating/task-vicarious_scale.png	n/a	n/a	n/a	n/a	n/a	n/a	n/a	n/a
59.79	0.99	vicarious	cue	3	low_cue	n/a	n/a	n/a	n/a	n/a	n/a	n/a	task-social/cue/runtype-vicarious/scl/l017.png	n/a	n/a	n/a	n/a	n/a	n/a	n/a	n/a
62.21	1.87	vicarious	expectrating	3	low_cue	n/a	0.94	No-sensation	0.94	No-sensation	0.62	1.25	task-social/cue/runtype-vicarious/scl/l017.png	n/a	n/a	n/a	n/a	n/a	n/a	n/a	n/a
69.19	5.0	vicarious	stimulus	3	low_cue	high_stim	n/a	n/a	n/a	n/a	n/a	n/a	task-social/stim/runtype-vicarious/jh123t1aeaff_H.mp4	n/a	n/a	n/a	n/a	n/a	n/a	n/a	n/a
81.7	2.84	vicarious	outcomerating	3	low_cue	high_stim	63.12	Strong	63.12	Strong	0.62	1.25	task-social/outcomerating/task-vicarious_scale.png	n/a	n/a	n/a	n/a	n/a	n/a	n/a	n/a
94.89	1.0	vicarious	cue	4	high_cue	n/a	n/a	n/a	n/a	n/a	n/a	n/a	task-social/cue/runtype-vicarious/sch/h056.png	n/a	n/a	n/a	n/a	n/a	n/a	n/a	n/a
97.31	2.42	vicarious	expectrating	4	high_cue	n/a	49.55	Strong	49.55	Strong	1.03	1.39	task-social/cue/runtype-vicarious/sch/h056.png	n/a	n/a	n/a	n/a	n/a	n/a	n/a	n/a
104.49	5.0	vicarious	stimulus	4	high_cue	high_stim	n/a	n/a	n/a	n/a	n/a	n/a	task-social/stim/runtype-vicarious/jl047t1aiaff_H.mp4	n/a	n/a	n/a	n/a	n/a	n/a	n/a	n/a
115.41	2.45	vicarious	outcomerating	4	high_cue	high_stim	41.42	Strong	41.42	Strong	1.03	1.39	task-social/outcomerating/task-vicarious_scale.png	n/a	n/a	n/a	n/a	n/a	n/a	n/a	n/a
120.0	0.99	vicarious	cue	5	low_cue	n/a	n/a	n/a	n/a	n/a	n/a	n/a	task-social/cue/runtype-vicarious/scl/l014.png	n/a	n/a	n/a	n/a	n/a	n/a	n/a	n/a
123.0	1.73	vicarious	expectrating	5	low_cue	n/a	7.96	Weak	7.96	Weak	0.65	1.08	task-social/cue/runtype-vicarious/scl/l014.png	n/a	n/a	n/a	n/a	n/a	n/a	n/a	n/a
140.19	5.0	vicarious	stimulus	5	low_cue	low_stim	n/a	n/a	n/a	n/a	n/a	n/a	task-social/stim/runtype-vicarious/nm106t1aaunaff_L.mp4	n/a	n/a	n/a	n/a	n/a	n/a	n/a	n/a
151.51	3.67	vicarious	outcomerating	5	low_cue	low_stim	86.3	Very-Strong	86.3	Very-Strong	0.65	1.08	task-social/outcomerating/task-vicarious_scale.png	n/a	n/a	n/a	n/a	n/a	n/a	n/a	n/a
162.4	0.99	vicarious	cue	6	high_cue	n/a	n/a	n/a	n/a	n/a	n/a	n/a	task-social/cue/runtype-vicarious/sch/h049.png	n/a	n/a	n/a	n/a	n/a	n/a	n/a	n/a
165.4	2.43	vicarious	expectrating	6	high_cue	n/a	55.48	Strong	55.48	Strong	0.9	1.53	task-social/cue/runtype-vicarious/sch/h049.png	n/a	n/a	n/a	n/a	n/a	n/a	n/a	n/a
191.09	5.0	vicarious	stimulus	6	high_cue	low_stim	n/a	n/a	n/a	n/a	n/a	n/a	task-social/stim/runtype-vicarious/jh123t1aaunaff_L.mp4	n/a	n/a	n/a	n/a	n/a	n/a	n/a	n/a
207.82	2.75	vicarious	outcomerating	6	high_cue	low_stim	6.49	Weak	6.49	Weak	0.9	1.53	task-social/outcomerating/task-vicarious_scale.png	n/a	n/a	n/a	n/a	n/a	n/a	n/a	n/a
215.4	0.98	vicarious	cue	7	low_cue	n/a	n/a	n/a	n/a	n/a	n/a	n/a	task-social/cue/runtype-vicarious/scl/l021.png	n/a	n/a	n/a	n/a	n/a	n/a	n/a	n/a
217.6	2.22	vicarious	expectrating	7	low_cue	n/a	2.76	Barely-detectable	2.76	Barely-detectable	0.57	1.65	task-social/cue/runtype-vicarious/scl/l021.png	n/a	n/a	n/a	n/a	n/a	n/a	n/a	n/a
226.99	5.0	vicarious	stimulus	7	low_cue	med_stim	n/a	n/a	n/a	n/a	n/a	n/a	task-social/stim/runtype-vicarious/nm106t2aaunaff_M.mp4	n/a	n/a	n/a	n/a	n/a	n/a	n/a	n/a
240.61	2.92	vicarious	outcomerating	7	low_cue	med_stim	1.15	Barely-detectable	1.15	Barely-detectable	0.57	1.65	task-social/outcomerating/task-vicarious_scale.png	n/a	n/a	n/a	n/a	n/a	n/a	n/a	n/a
251.7	0.99	vicarious	cue	8	high_cue	n/a	n/a	n/a	n/a	n/a	n/a	n/a	task-social/cue/runtype-vicarious/sch/h054.png	n/a	n/a	n/a	n/a	n/a	n/a	n/a	n/a
254.3	2.97	vicarious	expectrating	8	high_cue	n/a	33.88	Strong	33.88	Strong	0.85	2.12	task-social/cue/runtype-vicarious/sch/h054.png	n/a	n/a	n/a	n/a	n/a	n/a	n/a	n/a
260.89	5.0	vicarious	stimulus	8	high_cue	med_stim	n/a	n/a	n/a	n/a	n/a	n/a	task-social/stim/runtype-vicarious/jh123t2aaaff_M.mp4	n/a	n/a	n/a	n/a	n/a	n/a	n/a	n/a
270.11	2.51	vicarious	outcomerating	8	high_cue	med_stim	31.2	Strong	31.2	Strong	0.85	2.12	task-social/outcomerating/task-vicarious_scale.png	n/a	n/a	n/a	n/a	n/a	n/a	n/a	n/a
279.99	0.99	vicarious	cue	9	high_cue	n/a	n/a	n/a	n/a	n/a	n/a	n/a	task-social/cue/runtype-vicarious/sch/h043.png	n/a	n/a	n/a	n/a	n/a	n/a	n/a	n/a
281.89	2.75	vicarious	expectrating	9	high_cue	n/a	47.71	Strong	47.71	Strong	1.92	0.83	task-social/cue/runtype-vicarious/sch/h043.png	n/a	n/a	n/a	n/a	n/a	n/a	n/a	n/a
289.89	5.0	vicarious	stimulus	9	high_cue	med_stim	n/a	n/a	n/a	n/a	n/a	n/a	task-social/stim/runtype-vicarious/jl047t1aiunaff_M.mp4	n/a	n/a	n/a	n/a	n/a	n/a	n/a	n/a
299.32	1.73	vicarious	outcomerating	9	high_cue	med_stim	15.88	Moderate	15.88	Moderate	1.92	0.83	task-social/outcomerating/task-vicarious_scale.png	n/a	n/a	n/a	n/a	n/a	n/a	n/a	n/a
308.4	0.98	vicarious	cue	10	low_cue	n/a	n/a	n/a	n/a	n/a	n/a	n/a	task-social/cue/runtype-vicarious/scl/l044.png	n/a	n/a	n/a	n/a	n/a	n/a	n/a	n/a
311.4	1.96	vicarious	expectrating	10	low_cue	n/a	4.38	Weak	4.38	Weak	0.65	1.31	task-social/cue/runtype-vicarious/scl/l044.png	n/a	n/a	n/a	n/a	n/a	n/a	n/a	n/a
318.99	5.0	vicarious	stimulus	10	low_cue	med_stim	n/a	n/a	n/a	n/a	n/a	n/a	task-social/stim/runtype-vicarious/jk103t2aaunaff_M.mp4	n/a	n/a	n/a	n/a	n/a	n/a	n/a	n/a
331.51	1.98	vicarious	outcomerating	10	low_cue	med_stim	22.66	Moderate	22.66	Moderate	0.65	1.31	task-social/outcomerating/task-vicarious_scale.png	n/a	n/a	n/a	n/a	n/a	n/a	n/a	n/a
341.1	0.99	vicarious	cue	11	high_cue	n/a	n/a	n/a	n/a	n/a	n/a	n/a	task-social/cue/runtype-vicarious/sch/h015.png	n/a	n/a	n/a	n/a	n/a	n/a	n/a	n/a
343.0	2.62	vicarious	expectrating	11	high_cue	n/a	42.89	Strong	42.89	Strong	0.67	1.95	task-social/cue/runtype-vicarious/sch/h015.png	n/a	n/a	n/a	n/a	n/a	n/a	n/a	n/a
354.89	5.0	vicarious	stimulus	11	high_cue	low_stim	n/a	n/a	n/a	n/a	n/a	n/a	task-social/stim/runtype-vicarious/jk103t1aaunaff_L.mp4	n/a	n/a	n/a	n/a	n/a	n/a	n/a	n/a
364.71	2.6	vicarious	outcomerating	11	high_cue	low_stim	7.13	Weak	7.13	Weak	0.67	1.95	task-social/outcomerating/task-vicarious_scale.png	n/a	n/a	n/a	n/a	n/a	n/a	n/a	n/a
374.29	0.99	vicarious	cue	12	low_cue	n/a	n/a	n/a	n/a	n/a	n/a	n/a	task-social/cue/runtype-vicarious/scl/l031.png	n/a	n/a	n/a	n/a	n/a	n/a	n/a	n/a
376.2	2.4	vicarious	expectrating	12	low_cue	n/a	6.21	Weak	6.21	Weak	0.5	1.9	task-social/cue/runtype-vicarious/scl/l031.png	n/a	n/a	n/a	n/a	n/a	n/a	n/a	n/a
382.99	5.0	vicarious	stimulus	12	low_cue	low_stim	n/a	n/a	n/a	n/a	n/a	n/a	task-social/stim/runtype-vicarious/bg096t2afunaff_L.mp4	n/a	n/a	n/a	n/a	n/a	n/a	n/a	n/a
395.0	3.38	vicarious	outcomerating	12	low_cue	low_stim	9.69	Weak	9.69	Weak	0.5	1.9	task-social/outcomerating/task-vicarious_scale.png	n/a	n/a	n/a	n/a	n/a	n/a	n/a	n/a
