onset	duration	trial_type	response_value	rating_type	expression	sex	race	age	stim_file
3.862	1.328	face	n/a	sex	happy	male	WC	old	task-faces/1Happy_Model3_2Male_1WC_2Old.mp4
5.19	1.44	rating	0.0	sex	happy	male	WC	old	n/a
6.006	0.624	rating_mouse_trajectory	0.0	sex	happy	male	WC	old	n/a
7.209	2.065	face	n/a	sex	pleasure	female	EA	young	task-faces/8Pleasure_Model1_1Female_2EA_1Young.mp4
9.274	0.77	rating	0.8503	sex	pleasure	female	EA	young	n/a
9.591	0.453	rating_mouse_trajectory	0.8503	sex	pleasure	female	EA	young	n/a
11.216	1.327	face	n/a	sex	disgust	male	African	old	task-faces/4Disgust_Model5_2Male_3African_2Old.mp4
12.542	0.703	rating	0.0	sex	disgust	male	African	old	n/a
12.842	0.403	rating_mouse_trajectory	0.0	sex	disgust	male	African	old	n/a
15.466	2.044	face	n/a	sex	pain	male	WC	old	task-faces/7Pain_Model2_2Male_1WC_2Old.mp4
17.511	0.535	rating	0.0	sex	pain	male	WC	old	n/a
17.561	0.485	rating_mouse_trajectory	0.0	sex	pain	male	WC	old	n/a
19.433	1.346	face	n/a	sex	anger	male	African	old	task-faces/5Anger_Model3_2Male_3African_2Old.mp4
20.779	0.651	rating	0.0	sex	anger	male	African	old	n/a
20.812	0.618	rating_mouse_trajectory	0.0	sex	anger	male	African	old	n/a
26.719	1.312	face	n/a	sex	happy	male	African	young	task-faces/1Happy_Model1_2Male_3African_1Young.mp4
28.031	1.7	rating	0.4094	sex	happy	male	African	young	n/a
28.831	0.9	rating_mouse_trajectory	0.4094	sex	happy	male	African	young	n/a
29.954	1.312	face	n/a	sex	disgust	male	African	young	task-faces/4Disgust_Model1_2Male_3African_1Young.mp4
31.266	1.085	rating	0.646	sex	disgust	male	African	young	n/a
31.699	0.652	rating_mouse_trajectory	0.646	sex	disgust	male	African	young	n/a
33.172	1.311	face	n/a	sex	fear	male	African	old	task-faces/3Fear_Model1_2Male_3African_2Old.mp4
34.484	0.968	rating	0.0676	sex	fear	male	African	old	n/a
34.634	0.818	rating_mouse_trajectory	0.0676	sex	fear	male	African	old	n/a
36.399	1.32	face	n/a	sex	fear	female	African	young	task-faces/3Fear_Model2_1Female_3African_1Young.mp4
37.718	0.902	rating	0.7371	sex	fear	female	African	young	n/a
38.102	0.518	rating_mouse_trajectory	0.7371	sex	fear	female	African	young	n/a
39.641	1.312	face	n/a	sex	happy	male	EA	young	task-faces/1Happy_Model1_2Male_2EA_1Young.mp4
40.953	0.924	rating	0.2091	sex	happy	male	EA	young	n/a
41.236	0.641	rating_mouse_trajectory	0.2091	sex	happy	male	EA	young	n/a
44.877	1.328	face	n/a	sex	fear	male	WC	old	task-faces/3Fear_Model3_2Male_1WC_2Old.mp4
46.205	0.539	rating	0.0	sex	fear	male	WC	old	n/a
46.288	0.456	rating_mouse_trajectory	0.0	sex	fear	male	WC	old	n/a
49.133	2.057	face	n/a	sex	pain	female	African	young	task-faces/7Pain_Model4_1Female_3African_1Young.mp4
51.19	1.204	rating	0.7714	sex	pain	female	African	young	n/a
51.507	0.887	rating_mouse_trajectory	0.7714	sex	pain	female	African	young	n/a
55.103	2.056	face	n/a	sex	pain	male	African	young	task-faces/7Pain_Model3_2Male_3African_1Young.mp4
57.159	1.002	rating	0.0	sex	pain	male	African	young	n/a
57.326	0.835	rating_mouse_trajectory	0.0	sex	pain	male	African	young	n/a
60.065	1.329	face	n/a	sex	disgust	female	WC	young	task-faces/4Disgust_Model2_1Female_1WC_1Young.mp4
61.394	1.535	rating	0.004	sex	disgust	female	WC	young	n/a
61.727	1.202	rating_mouse_trajectory	0.004	sex	disgust	female	WC	young	n/a
64.3	2.046	face	n/a	sex	pain	male	WC	young	task-faces/7Pain_Model4_2Male_1WC_1Young.mp4
66.346	0.668	rating	0.0	sex	pain	male	WC	young	n/a
66.562	0.451	rating_mouse_trajectory	0.0	sex	pain	male	WC	young	n/a
69.266	2.049	face	n/a	sex	pain	male	African	old	task-faces/7Pain_Model1_2Male_3African_2Old.mp4
71.314	1.868	rating	0.1485	sex	pain	male	African	old	n/a
71.964	1.218	rating_mouse_trajectory	0.1485	sex	pain	male	African	old	n/a
74.232	1.334	face	n/a	sex	surprise	male	EA	young	task-faces/2Surprise_Model4_2Male_2EA_1Young.mp4
75.566	0.818	rating	0.1748	sex	surprise	male	EA	young	n/a
75.849	0.535	rating_mouse_trajectory	0.1748	sex	surprise	male	EA	young	n/a
78.483	1.335	face	n/a	sex	fear	female	WC	young	task-faces/3Fear_Model5_1Female_1WC_1Young.mp4
79.817	1.443	rating	0.5995	sex	fear	female	WC	young	n/a
80.484	0.776	rating_mouse_trajectory	0.5995	sex	fear	female	WC	young	n/a
84.725	1.328	face	n/a	sex	surprise	female	EA	old	task-faces/2Surprise_Model3_1Female_2EA_2Old.mp4
86.053	1.708	rating	0.282	sex	surprise	female	EA	old	n/a
86.886	0.874	rating_mouse_trajectory	0.282	sex	surprise	female	EA	old	n/a
87.982	1.322	face	n/a	sex	anger	female	EA	young	task-faces/5Anger_Model5_1Female_2EA_1Young.mp4
89.304	1.44	rating	0.6197	sex	anger	female	EA	young	n/a
89.354	1.39	rating_mouse_trajectory	0.6197	sex	anger	female	EA	young	n/a
92.228	1.328	face	n/a	sex	happy	male	WC	young	task-faces/1Happy_Model5_2Male_1WC_1Young.mp4
93.556	0.788	rating	0.0	sex	happy	male	WC	young	n/a
93.739	0.605	rating_mouse_trajectory	0.0	sex	happy	male	WC	young	n/a
95.479	2.062	face	n/a	sex	pain	female	African	old	task-faces/7Pain_Model5_1Female_3African_2Old.mp4
97.541	1.02	rating	0.0	sex	pain	female	African	old	n/a
97.641	0.92	rating_mouse_trajectory	0.0	sex	pain	female	African	old	n/a
100.465	1.311	face	n/a	sex	anger	male	EA	old	task-faces/5Anger_Model2_2Male_2EA_2Old.mp4
101.776	1.068	rating	0.0	sex	anger	male	EA	old	n/a
102.126	0.718	rating_mouse_trajectory	0.0	sex	anger	male	EA	old	n/a
104.682	1.311	face	n/a	sex	disgust	male	WC	young	task-faces/4Disgust_Model3_2Male_1WC_1Young.mp4
105.994	0.719	rating	0.002	sex	disgust	male	WC	young	n/a
106.26	0.452	rating_mouse_trajectory	0.002	sex	disgust	male	WC	young	n/a
108.9	2.045	face	n/a	sex	pleasure	male	EA	old	task-faces/8Pleasure_Model5_2Male_2EA_2Old.mp4
110.946	0.601	rating	0.0	sex	pleasure	male	EA	old	n/a
110.996	0.551	rating_mouse_trajectory	0.0	sex	pleasure	male	EA	old	n/a
112.865	1.315	face	n/a	sex	sad	female	EA	young	task-faces/6Sad_Model2_1Female_2EA_1Young.mp4
114.18	0.821	rating	0.0716	sex	sad	female	EA	young	n/a
114.33	0.671	rating_mouse_trajectory	0.0716	sex	sad	female	EA	young	n/a
116.103	2.045	face	n/a	sex	pain	female	WC	old	task-faces/7Pain_Model4_1Female_1WC_2Old.mp4
118.148	0.951	rating	0.0	sex	pain	female	WC	old	n/a
118.448	0.651	rating_mouse_trajectory	0.0	sex	pain	female	WC	old	n/a
120.056	1.31	face	n/a	sex	sad	male	EA	young	task-faces/6Sad_Model3_2Male_2EA_1Young.mp4
121.366	1.702	rating	0.0	sex	sad	male	EA	young	n/a
121.966	1.102	rating_mouse_trajectory	0.0	sex	sad	male	EA	young	n/a
124.286	1.316	face	n/a	sex	disgust	female	WC	old	task-faces/4Disgust_Model1_1Female_1WC_2Old.mp4
125.601	0.918	rating	0.0	sex	disgust	female	WC	old	n/a
125.901	0.618	rating_mouse_trajectory	0.0	sex	disgust	female	WC	old	n/a
128.508	2.045	face	n/a	sex	pleasure	female	African	young	task-faces/8Pleasure_Model1_1Female_3African_1Young.mp4
130.553	0.775	rating	0.0	sex	pleasure	female	African	young	n/a
130.903	0.425	rating_mouse_trajectory	0.0	sex	pleasure	female	African	young	n/a
133.477	2.045	face	n/a	sex	pain	female	EA	old	task-faces/7Pain_Model2_1Female_2EA_2Old.mp4
135.522	1.472	rating	0.2678	sex	pain	female	EA	old	n/a
136.272	0.722	rating_mouse_trajectory	0.2678	sex	pain	female	EA	old	n/a
137.445	1.312	face	n/a	sex	anger	female	African	young	task-faces/5Anger_Model1_1Female_3African_1Young.mp4
138.756	0.755	rating	0.6622	sex	anger	female	African	young	n/a
139.039	0.471	rating_mouse_trajectory	0.6622	sex	anger	female	African	young	n/a
140.663	2.044	face	n/a	sex	pleasure	male	WC	old	task-faces/8Pleasure_Model3_2Male_1WC_2Old.mp4
142.708	1.036	rating	0.0	sex	pleasure	male	WC	old	n/a
142.824	0.92	rating_mouse_trajectory	0.0	sex	pleasure	male	WC	old	n/a
145.615	1.311	face	n/a	sex	fear	male	African	young	task-faces/3Fear_Model5_2Male_3African_1Young.mp4
146.926	1.752	rating	0.646	sex	fear	male	African	young	n/a
147.442	1.235	rating_mouse_trajectory	0.646	sex	fear	male	African	young	n/a
148.83	2.047	face	n/a	sex	pleasure	male	WC	young	task-faces/8Pleasure_Model4_2Male_1WC_1Young.mp4
150.877	0.918	rating	0.1242	sex	pleasure	male	WC	young	n/a
150.994	0.802	rating_mouse_trajectory	0.1242	sex	pleasure	male	WC	young	n/a
152.781	2.047	face	n/a	sex	pain	female	WC	young	task-faces/7Pain_Model1_1Female_1WC_1Young.mp4
154.829	0.654	rating	0.0	sex	pain	female	WC	young	n/a
154.879	0.604	rating_mouse_trajectory	0.0	sex	pain	female	WC	young	n/a
158.749	1.315	face	n/a	sex	sad	female	WC	young	task-faces/6Sad_Model4_1Female_1WC_1Young.mp4
160.064	0.835	rating	0.0	sex	sad	female	WC	young	n/a
160.114	0.785	rating_mouse_trajectory	0.0	sex	sad	female	WC	young	n/a
163.971	1.312	face	n/a	sex	happy	male	African	old	task-faces/1Happy_Model5_2Male_3African_2Old.mp4
165.283	1.545	rating	0.1505	sex	happy	male	African	old	n/a
165.566	1.261	rating_mouse_trajectory	0.1505	sex	happy	male	African	old	n/a
170.199	1.319	face	n/a	sex	surprise	male	WC	old	task-faces/2Surprise_Model2_2Male_1WC_2Old.mp4
171.518	0.635	rating	0.093	sex	surprise	male	WC	old	n/a
171.568	0.585	rating_mouse_trajectory	0.093	sex	surprise	male	WC	old	n/a
174.442	1.311	face	n/a	sex	disgust	female	African	young	task-faces/4Disgust_Model5_1Female_3African_1Young.mp4
175.753	0.858	rating	0.5934	sex	disgust	female	African	young	n/a
175.803	0.808	rating_mouse_trajectory	0.5934	sex	disgust	female	African	young	n/a
178.677	1.311	face	n/a	sex	happy	female	WC	young	task-faces/1Happy_Model5_1Female_1WC_1Young.mp4
179.988	0.723	rating	0.0	sex	happy	female	WC	young	n/a
180.038	0.673	rating_mouse_trajectory	0.0	sex	happy	female	WC	young	n/a
181.911	2.045	face	n/a	sex	pleasure	female	WC	old	task-faces/8Pleasure_Model3_1Female_1WC_2Old.mp4
183.956	0.454	rating	0.0	sex	pleasure	female	WC	old	n/a
184.023	0.388	rating_mouse_trajectory	0.0	sex	pleasure	female	WC	old	n/a
186.88	1.311	face	n/a	sex	fear	male	WC	young	task-faces/3Fear_Model4_2Male_1WC_1Young.mp4
188.191	1.87	rating	0.0	sex	fear	male	WC	young	n/a
189.091	0.97	rating_mouse_trajectory	0.0	sex	fear	male	WC	young	n/a
190.096	1.297	face	n/a	sex	happy	female	African	old	task-faces/1Happy_Model3_1Female_3African_2Old.mp4
191.392	1.768	rating	0.6218	sex	happy	female	African	old	n/a
191.526	1.635	rating_mouse_trajectory	0.6218	sex	happy	female	African	old	n/a
195.299	1.312	face	n/a	sex	surprise	male	WC	young	task-faces/2Surprise_Model5_2Male_1WC_1Young.mp4
196.611	0.902	rating	0.0	sex	surprise	male	WC	young	n/a
196.661	0.852	rating_mouse_trajectory	0.0	sex	surprise	male	WC	young	n/a
200.533	1.314	face	n/a	sex	anger	female	WC	young	task-faces/5Anger_Model4_1Female_1WC_1Young.mp4
201.846	0.685	rating	0.0	sex	anger	female	WC	young	n/a
201.896	0.635	rating_mouse_trajectory	0.0	sex	anger	female	WC	young	n/a
204.766	1.316	face	n/a	sex	surprise	female	African	young	task-faces/2Surprise_Model5_1Female_3African_1Young.mp4
206.081	1.579	rating	0.6845	sex	surprise	female	African	young	n/a
206.231	1.429	rating_mouse_trajectory	0.6845	sex	surprise	female	African	young	n/a
208.999	1.317	face	n/a	sex	surprise	female	WC	old	task-faces/2Surprise_Model2_1Female_1WC_2Old.mp4
210.316	1.544	rating	0.0797	sex	surprise	female	WC	old	n/a
210.583	1.278	rating_mouse_trajectory	0.0797	sex	surprise	female	WC	old	n/a
213.223	1.311	face	n/a	sex	sad	male	WC	young	task-faces/6Sad_Model2_2Male_1WC_1Young.mp4
214.534	1.702	rating	0.0	sex	sad	male	WC	young	n/a
215.134	1.102	rating_mouse_trajectory	0.0	sex	sad	male	WC	young	n/a
217.449	1.32	face	n/a	sex	surprise	female	African	old	task-faces/2Surprise_Model4_1Female_3African_2Old.mp4
218.769	1.641	rating	0.2921	sex	surprise	female	African	old	n/a
219.686	0.725	rating_mouse_trajectory	0.2921	sex	surprise	female	African	old	n/a
221.693	1.311	face	n/a	sex	anger	male	WC	old	task-faces/5Anger_Model4_2Male_1WC_2Old.mp4
223.004	0.74	rating	0.0061	sex	anger	male	WC	old	n/a
223.054	0.69	rating_mouse_trajectory	0.0061	sex	anger	male	WC	old	n/a
225.932	1.307	face	n/a	sex	happy	female	EA	young	task-faces/1Happy_Model5_1Female_2EA_1Young.mp4
227.239	1.805	rating	0.731	sex	happy	female	EA	young	n/a
227.289	1.755	rating_mouse_trajectory	0.731	sex	happy	female	EA	young	n/a
230.163	1.311	face	n/a	sex	disgust	female	EA	young	task-faces/4Disgust_Model4_1Female_2EA_1Young.mp4
231.474	1.003	rating	1.0	sex	disgust	female	EA	young	n/a
231.674	0.803	rating_mouse_trajectory	1.0	sex	disgust	female	EA	young	n/a
233.381	1.311	face	n/a	sex	surprise	female	WC	young	task-faces/2Surprise_Model3_1Female_1WC_1Young.mp4
234.692	0.819	rating	0.0	sex	surprise	female	WC	young	n/a
235.058	0.452	rating_mouse_trajectory	0.0	sex	surprise	female	WC	young	n/a
236.596	2.048	face	n/a	sex	pain	female	EA	young	task-faces/7Pain_Model2_1Female_2EA_1Young.mp4
238.643	1.685	rating	0.8099	sex	pain	female	EA	young	n/a
238.693	1.635	rating_mouse_trajectory	0.8099	sex	pain	female	EA	young	n/a
242.566	1.312	face	n/a	sex	sad	female	African	old	task-faces/6Sad_Model1_1Female_3African_2Old.mp4
243.879	0.918	rating	0.735	sex	sad	female	African	old	n/a
244.062	0.735	rating_mouse_trajectory	0.735	sex	sad	female	African	old	n/a
245.803	1.31	face	n/a	sex	surprise	male	EA	old	task-faces/2Surprise_Model4_2Male_2EA_2Old.mp4
247.113	0.785	rating	0.0	sex	surprise	male	EA	old	n/a
247.446	0.451	rating_mouse_trajectory	0.0	sex	surprise	male	EA	old	n/a
253.032	1.317	face	n/a	sex	surprise	male	African	old	task-faces/2Surprise_Model2_2Male_3African_2Old.mp4
254.349	0.701	rating	0.0	sex	surprise	male	African	old	n/a
254.549	0.501	rating_mouse_trajectory	0.0	sex	surprise	male	African	old	n/a
256.255	1.312	face	n/a	sex	anger	female	EA	old	task-faces/5Anger_Model5_1Female_2EA_2Old.mp4
257.567	0.635	rating	0.0	sex	anger	female	EA	old	n/a
257.684	0.518	rating_mouse_trajectory	0.0	sex	anger	female	EA	old	n/a
260.483	1.303	face	n/a	sex	sad	female	African	young	task-faces/6Sad_Model3_1Female_3African_1Young.mp4
261.785	1.226	rating	0.8058	sex	sad	female	African	young	n/a
262.269	0.742	rating_mouse_trajectory	0.8058	sex	sad	female	African	young	n/a
264.709	1.311	face	n/a	sex	sad	female	WC	old	task-faces/6Sad_Model2_1Female_1WC_2Old.mp4
266.02	0.674	rating	0.0243	sex	sad	female	WC	old	n/a
266.12	0.574	rating_mouse_trajectory	0.0243	sex	sad	female	WC	old	n/a
268.944	2.045	face	n/a	sex	pleasure	male	EA	young	task-faces/8Pleasure_Model2_2Male_2EA_1Young.mp4
270.989	1.072	rating	0.0979	sex	pleasure	male	EA	young	n/a
271.555	0.505	rating_mouse_trajectory	0.0979	sex	pleasure	male	EA	young	n/a
272.913	2.044	face	n/a	sex	pleasure	female	EA	old	task-faces/8Pleasure_Model1_1Female_2EA_2Old.mp4
274.957	0.604	rating	0.2314	sex	pleasure	female	EA	old	n/a
275.074	0.487	rating_mouse_trajectory	0.2314	sex	pleasure	female	EA	old	n/a
277.881	1.311	face	n/a	sex	surprise	female	EA	young	task-faces/2Surprise_Model5_1Female_2EA_1Young.mp4
279.192	0.919	rating	0.8038	sex	surprise	female	EA	young	n/a
279.242	0.869	rating_mouse_trajectory	0.8038	sex	surprise	female	EA	young	n/a
281.097	1.313	face	n/a	sex	happy	female	African	young	task-faces/1Happy_Model3_1Female_3African_1Young.mp4
282.41	0.818	rating	0.7836	sex	happy	female	African	young	n/a
282.626	0.602	rating_mouse_trajectory	0.7836	sex	happy	female	African	young	n/a
285.317	2.045	face	n/a	sex	pleasure	male	African	old	task-faces/8Pleasure_Model3_2Male_3African_2Old.mp4
287.361	0.901	rating	0.0566	sex	pleasure	male	African	old	n/a
287.411	0.851	rating_mouse_trajectory	0.0566	sex	pleasure	male	African	old	n/a
290.283	1.314	face	n/a	sex	surprise	male	African	young	task-faces/2Surprise_Model5_2Male_3African_1Young.mp4
291.596	1.719	rating	0.2354	sex	surprise	male	African	young	n/a
292.03	1.285	rating_mouse_trajectory	0.2354	sex	surprise	male	African	young	n/a
293.516	1.315	face	n/a	sex	disgust	male	WC	old	task-faces/4Disgust_Model2_2Male_1WC_2Old.mp4
294.831	0.668	rating	0.0	sex	disgust	male	WC	old	n/a
295.081	0.418	rating_mouse_trajectory	0.0	sex	disgust	male	WC	old	n/a
298.749	1.317	face	n/a	sex	anger	male	EA	young	task-faces/5Anger_Model2_2Male_2EA_1Young.mp4
300.066	0.951	rating	0.0	sex	anger	male	EA	young	n/a
300.533	0.485	rating_mouse_trajectory	0.0	sex	anger	male	EA	young	n/a
302.983	1.319	face	n/a	sex	anger	male	WC	young	task-faces/5Anger_Model1_2Male_1WC_1Young.mp4
304.301	0.685	rating	0.0	sex	anger	male	WC	young	n/a
304.568	0.418	rating_mouse_trajectory	0.0	sex	anger	male	WC	young	n/a
307.216	1.303	face	n/a	sex	happy	male	EA	old	task-faces/1Happy_Model3_2Male_2EA_2Old.mp4
308.519	0.891	rating	0.0392	sex	happy	male	EA	old	n/a
308.569	0.841	rating_mouse_trajectory	0.0392	sex	happy	male	EA	old	n/a
310.448	2.039	face	n/a	sex	pleasure	female	WC	young	task-faces/8Pleasure_Model5_1Female_1WC_1Young.mp4
312.488	0.656	rating	0.0	sex	pleasure	female	WC	young	n/a
312.538	0.606	rating_mouse_trajectory	0.0	sex	pleasure	female	WC	young	n/a
314.41	1.312	face	n/a	sex	fear	female	African	old	task-faces/3Fear_Model3_1Female_3African_2Old.mp4
315.722	0.922	rating	0.6582	sex	fear	female	African	old	n/a
316.122	0.522	rating_mouse_trajectory	0.6582	sex	fear	female	African	old	n/a
318.646	1.311	face	n/a	sex	fear	female	EA	old	task-faces/3Fear_Model4_1Female_2EA_2Old.mp4
319.957	0.77	rating	0.0	sex	fear	female	EA	old	n/a
320.257	0.47	rating_mouse_trajectory	0.0	sex	fear	female	EA	old	n/a
322.881	1.311	face	n/a	sex	sad	female	EA	old	task-faces/6Sad_Model3_1Female_2EA_2Old.mp4
324.192	0.552	rating	0.0	sex	sad	female	EA	old	n/a
324.359	0.385	rating_mouse_trajectory	0.0	sex	sad	female	EA	old	n/a
327.098	1.312	face	n/a	sex	disgust	female	EA	old	task-faces/4Disgust_Model5_1Female_2EA_2Old.mp4
328.41	0.618	rating	0.0	sex	disgust	female	EA	old	n/a
328.56	0.468	rating_mouse_trajectory	0.0	sex	disgust	female	EA	old	n/a
330.314	1.314	face	n/a	sex	sad	male	EA	old	task-faces/6Sad_Model1_2Male_2EA_2Old.mp4
331.628	0.535	rating	0.0	sex	sad	male	EA	old	n/a
331.678	0.485	rating_mouse_trajectory	0.0	sex	sad	male	EA	old	n/a
335.55	2.047	face	n/a	sex	pain	male	EA	old	task-faces/7Pain_Model3_2Male_2EA_2Old.mp4
337.597	0.452	rating	0.0	sex	pain	male	EA	old	n/a
337.664	0.385	rating_mouse_trajectory	0.0	sex	pain	male	EA	old	n/a
340.516	1.316	face	n/a	sex	sad	male	WC	old	task-faces/6Sad_Model2_2Male_1WC_2Old.mp4
341.832	0.952	rating	0.0	sex	sad	male	WC	old	n/a
342.432	0.352	rating_mouse_trajectory	0.0	sex	sad	male	WC	old	n/a
345.739	1.312	face	n/a	sex	fear	male	EA	young	task-faces/3Fear_Model4_2Male_2EA_1Young.mp4
347.05	1.093	rating	0.0081	sex	fear	male	EA	young	n/a
347.717	0.427	rating_mouse_trajectory	0.0081	sex	fear	male	EA	young	n/a
349.974	2.044	face	n/a	sex	pleasure	male	African	young	task-faces/8Pleasure_Model3_2Male_3African_1Young.mp4
352.019	0.725	rating	0.1141	sex	pleasure	male	African	young	n/a
352.119	0.625	rating_mouse_trajectory	0.1141	sex	pleasure	male	African	young	n/a
354.943	1.311	face	n/a	sex	sad	male	African	young	task-faces/6Sad_Model4_2Male_3African_1Young.mp4
356.254	1.007	rating	0.004	sex	sad	male	African	young	n/a
356.587	0.674	rating_mouse_trajectory	0.004	sex	sad	male	African	young	n/a
360.178	2.045	face	n/a	sex	pain	male	EA	young	task-faces/7Pain_Model1_2Male_2EA_1Young.mp4
362.223	0.621	rating	0.0	sex	pain	male	EA	young	n/a
362.273	0.571	rating_mouse_trajectory	0.0	sex	pain	male	EA	young	n/a
364.146	1.312	face	n/a	sex	disgust	male	EA	young	task-faces/4Disgust_Model4_2Male_2EA_1Young.mp4
365.457	1.47	rating	0.0	sex	disgust	male	EA	young	n/a
365.991	0.937	rating_mouse_trajectory	0.0	sex	disgust	male	EA	young	n/a
367.363	1.312	face	n/a	sex	happy	female	EA	old	task-faces/1Happy_Model3_1Female_2EA_2Old.mp4
368.675	0.736	rating	0.9818	sex	happy	female	EA	old	n/a
368.825	0.586	rating_mouse_trajectory	0.9818	sex	happy	female	EA	old	n/a
372.581	1.312	face	n/a	sex	fear	male	EA	old	task-faces/3Fear_Model4_2Male_2EA_2Old.mp4
373.894	0.918	rating	0.0453	sex	fear	male	EA	old	n/a
374.06	0.751	rating_mouse_trajectory	0.0453	sex	fear	male	EA	old	n/a
376.818	1.31	face	n/a	sex	sad	male	African	old	task-faces/6Sad_Model1_2Male_3African_2Old.mp4
378.129	1.785	rating	0.6764	sex	sad	male	African	old	n/a
378.529	1.385	rating_mouse_trajectory	0.6764	sex	sad	male	African	old	n/a
381.049	1.314	face	n/a	sex	anger	female	African	old	task-faces/5Anger_Model2_1Female_3African_2Old.mp4
382.364	0.985	rating	0.8706	sex	anger	female	African	old	n/a
382.414	0.935	rating_mouse_trajectory	0.8706	sex	anger	female	African	old	n/a
387.283	2.033	face	n/a	sex	pleasure	female	African	old	task-faces/8Pleasure_Model5_1Female_3African_2Old.mp4
389.316	0.818	rating	0.9798	sex	pleasure	female	African	old	n/a
389.366	0.768	rating_mouse_trajectory	0.9798	sex	pleasure	female	African	old	n/a
391.231	1.303	face	n/a	sex	disgust	male	EA	old	task-faces/4Disgust_Model2_2Male_2EA_2Old.mp4
392.534	0.827	rating	0.0	sex	disgust	male	EA	old	n/a
392.634	0.727	rating_mouse_trajectory	0.0	sex	disgust	male	EA	old	n/a
396.441	1.311	face	n/a	sex	disgust	female	African	old	task-faces/4Disgust_Model5_1Female_3African_2Old.mp4
397.753	0.941	rating	0.0	sex	disgust	female	African	old	n/a
397.819	0.875	rating_mouse_trajectory	0.0	sex	disgust	female	African	old	n/a
400.677	1.311	face	n/a	sex	fear	female	EA	young	task-faces/3Fear_Model1_1Female_2EA_1Young.mp4
401.988	1.44	rating	1.0	sex	fear	female	EA	young	n/a
402.054	1.373	rating_mouse_trajectory	1.0	sex	fear	female	EA	young	n/a
405.916	1.307	face	n/a	sex	fear	female	WC	old	task-faces/3Fear_Model5_1Female_1WC_2Old.mp4
407.223	0.788	rating	0.0162	sex	fear	female	WC	old	n/a
407.456	0.555	rating_mouse_trajectory	0.0162	sex	fear	female	WC	old	n/a
410.147	1.311	face	n/a	sex	anger	female	WC	old	task-faces/5Anger_Model4_1Female_1WC_2Old.mp4
411.458	0.72	rating	0.0	sex	anger	female	WC	old	n/a
411.808	0.37	rating_mouse_trajectory	0.0	sex	anger	female	WC	old	n/a
413.363	1.312	face	n/a	sex	anger	male	African	young	task-faces/5Anger_Model5_2Male_3African_1Young.mp4
414.676	0.669	rating	0.9939	sex	anger	male	African	young	n/a
414.826	0.519	rating_mouse_trajectory	0.9939	sex	anger	male	African	young	n/a
416.579	1.314	face	n/a	sex	happy	female	WC	old	task-faces/1Happy_Model2_1Female_1WC_2Old.mp4
417.893	0.518	rating	0.0	sex	happy	female	WC	old	n/a
417.977	0.435	rating_mouse_trajectory	0.0	sex	happy	female	WC	old	n/a
