onset	duration	run_type	trial_type	trial_index	cue	stimulusintensity	rating_value	rating_glmslabel	rating_value_fillna	rating_glmslabel_fillna	rating_mouseonset	rating_mousedur	stim_file_TODO	pain_onset_ttl1	pain_onset_ttl2	pain_onset_ttl3	pain_onset_ttl4	pain_stimulus_delivery_success	cognitive_correct_response	cognitive_participant_response	cognitive_response_accuracy
11.3	0.99	vicarious	cue	1	high_cue	n/a	n/a	n/a	n/a	n/a	n/a	n/a	task-social/cue/runtype-vicarious/sch/h042.png	n/a	n/a	n/a	n/a	n/a	n/a	n/a	n/a
14.22	1.71	vicarious	expectrating	1	high_cue	n/a	48.92	Strong	48.92	Strong	0.3	1.41	task-social/cue/runtype-vicarious/sch/h042.png	n/a	n/a	n/a	n/a	n/a	n/a	n/a	n/a
21.29	5.0	vicarious	stimulus	1	high_cue	high_stim	n/a	n/a	n/a	n/a	n/a	n/a	task-social/stim/runtype-vicarious/bn080t1afaff_H.mp4	n/a	n/a	n/a	n/a	n/a	n/a	n/a	n/a
32.71	2.12	vicarious	outcomerating	1	high_cue	high_stim	32.92	Strong	32.92	Strong	0.3	1.41	task-social/outcomerating/task-vicarious_scale.png	n/a	n/a	n/a	n/a	n/a	n/a	n/a	n/a
44.29	0.99	vicarious	cue	2	low_cue	n/a	n/a	n/a	n/a	n/a	n/a	n/a	task-social/cue/runtype-vicarious/scl/l003.png	n/a	n/a	n/a	n/a	n/a	n/a	n/a	n/a
47.19	2.84	vicarious	expectrating	2	low_cue	n/a	1.91	Barely detectable	1.91	Barely detectable	0.55	2.29	task-social/cue/runtype-vicarious/scl/l003.png	n/a	n/a	n/a	n/a	n/a	n/a	n/a	n/a
61.39	5.0	vicarious	stimulus	2	low_cue	high_stim	n/a	n/a	n/a	n/a	n/a	n/a	task-social/stim/runtype-vicarious/vw121t1aaaff_H.mp4	n/a	n/a	n/a	n/a	n/a	n/a	n/a	n/a
70.7	2.27	vicarious	outcomerating	2	low_cue	high_stim	27.2	Moderate	27.2	Moderate	0.55	2.29	task-social/outcomerating/task-vicarious_scale.png	n/a	n/a	n/a	n/a	n/a	n/a	n/a	n/a
80.69	0.99	vicarious	cue	3	high_cue	n/a	n/a	n/a	n/a	n/a	n/a	n/a	task-social/cue/runtype-vicarious/sch/h018.png	n/a	n/a	n/a	n/a	n/a	n/a	n/a	n/a
83.69	1.97	vicarious	expectrating	3	high_cue	n/a	28.72	Moderate	28.72	Moderate	0.73	1.23	task-social/cue/runtype-vicarious/sch/h018.png	n/a	n/a	n/a	n/a	n/a	n/a	n/a	n/a
91.99	5.0	vicarious	stimulus	3	high_cue	high_stim	n/a	n/a	n/a	n/a	n/a	n/a	task-social/stim/runtype-vicarious/mg101t2aeaff_H.mp4	n/a	n/a	n/a	n/a	n/a	n/a	n/a	n/a
100.6	1.91	vicarious	outcomerating	3	high_cue	high_stim	26.05	Moderate	26.05	Moderate	0.73	1.23	task-social/outcomerating/task-vicarious_scale.png	n/a	n/a	n/a	n/a	n/a	n/a	n/a	n/a
105.6	0.98	vicarious	cue	4	low_cue	n/a	n/a	n/a	n/a	n/a	n/a	n/a	task-social/cue/runtype-vicarious/scl/l014.png	n/a	n/a	n/a	n/a	n/a	n/a	n/a	n/a
107.4	2.3	vicarious	expectrating	4	low_cue	n/a	14.93	Moderate	14.93	Moderate	0.45	1.85	task-social/cue/runtype-vicarious/scl/l014.png	n/a	n/a	n/a	n/a	n/a	n/a	n/a	n/a
114.49	5.0	vicarious	stimulus	4	low_cue	med_stim	n/a	n/a	n/a	n/a	n/a	n/a	task-social/stim/runtype-vicarious/mg101t2aeunaff_M.mp4	n/a	n/a	n/a	n/a	n/a	n/a	n/a	n/a
126.11	2.45	vicarious	outcomerating	4	low_cue	med_stim	1.61	Barely detectable	1.61	Barely detectable	0.45	1.85	task-social/outcomerating/task-vicarious_scale.png	n/a	n/a	n/a	n/a	n/a	n/a	n/a	n/a
133.79	0.99	vicarious	cue	5	high_cue	n/a	n/a	n/a	n/a	n/a	n/a	n/a	task-social/cue/runtype-vicarious/sch/h003.png	n/a	n/a	n/a	n/a	n/a	n/a	n/a	n/a
135.59	1.58	vicarious	expectrating	5	high_cue	n/a	46.8	Strong	46.8	Strong	0.8	0.78	task-social/cue/runtype-vicarious/sch/h003.png	n/a	n/a	n/a	n/a	n/a	n/a	n/a	n/a
147.89	5.0	vicarious	stimulus	5	high_cue	low_stim	n/a	n/a	n/a	n/a	n/a	n/a	task-social/stim/runtype-vicarious/bg096t2afunaff_L.mp4	n/a	n/a	n/a	n/a	n/a	n/a	n/a	n/a
159.5	1.85	vicarious	outcomerating	5	high_cue	low_stim	5.3	Weak	5.3	Weak	0.8	0.78	task-social/outcomerating/task-vicarious_scale.png	n/a	n/a	n/a	n/a	n/a	n/a	n/a	n/a
169.49	0.99	vicarious	cue	6	high_cue	n/a	n/a	n/a	n/a	n/a	n/a	n/a	task-social/cue/runtype-vicarious/sch/h049.png	n/a	n/a	n/a	n/a	n/a	n/a	n/a	n/a
172.39	1.85	vicarious	expectrating	6	high_cue	n/a	50.16	Strong	50.16	Strong	0.48	1.37	task-social/cue/runtype-vicarious/sch/h049.png	n/a	n/a	n/a	n/a	n/a	n/a	n/a	n/a
186.89	5.0	vicarious	stimulus	6	high_cue	med_stim	n/a	n/a	n/a	n/a	n/a	n/a	task-social/stim/runtype-vicarious/ib109t1afaff_M.mp4	n/a	n/a	n/a	n/a	n/a	n/a	n/a	n/a
196.7	3.69	vicarious	outcomerating	6	high_cue	med_stim	23.68	Moderate	23.68	Moderate	0.48	1.37	task-social/outcomerating/task-vicarious_scale.png	n/a	n/a	n/a	n/a	n/a	n/a	n/a	n/a
204.4	0.98	vicarious	cue	7	low_cue	n/a	n/a	n/a	n/a	n/a	n/a	n/a	task-social/cue/runtype-vicarious/scl/l013.png	n/a	n/a	n/a	n/a	n/a	n/a	n/a	n/a
207.3	1.75	vicarious	expectrating	7	low_cue	n/a	13.01	Moderate	13.01	Moderate	0.68	1.07	task-social/cue/runtype-vicarious/scl/l013.png	n/a	n/a	n/a	n/a	n/a	n/a	n/a	n/a
218.38	5.0	vicarious	stimulus	7	low_cue	high_stim	n/a	n/a	n/a	n/a	n/a	n/a	task-social/stim/runtype-vicarious/ch092t2aiaff_H.mp4	n/a	n/a	n/a	n/a	n/a	n/a	n/a	n/a
228.41	1.52	vicarious	outcomerating	7	low_cue	high_stim	37.65	Strong	37.65	Strong	0.68	1.07	task-social/outcomerating/task-vicarious_scale.png	n/a	n/a	n/a	n/a	n/a	n/a	n/a	n/a
234.3	0.99	vicarious	cue	8	high_cue	n/a	n/a	n/a	n/a	n/a	n/a	n/a	task-social/cue/runtype-vicarious/sch/h028.png	n/a	n/a	n/a	n/a	n/a	n/a	n/a	n/a
236.2	3.42	vicarious	expectrating	8	high_cue	n/a	44.35	Strong	44.35	Strong	2.25	1.17	task-social/cue/runtype-vicarious/sch/h028.png	n/a	n/a	n/a	n/a	n/a	n/a	n/a	n/a
244.89	5.0	vicarious	stimulus	8	high_cue	low_stim	n/a	n/a	n/a	n/a	n/a	n/a	task-social/stim/runtype-vicarious/mg101t2afunaff_L.mp4	n/a	n/a	n/a	n/a	n/a	n/a	n/a	n/a
255.71	2.13	vicarious	outcomerating	8	high_cue	low_stim	14.37	Moderate	14.37	Moderate	2.25	1.17	task-social/outcomerating/task-vicarious_scale.png	n/a	n/a	n/a	n/a	n/a	n/a	n/a	n/a
266.69	0.99	vicarious	cue	9	low_cue	n/a	n/a	n/a	n/a	n/a	n/a	n/a	task-social/cue/runtype-vicarious/scl/l010.png	n/a	n/a	n/a	n/a	n/a	n/a	n/a	n/a
268.49	2.0	vicarious	expectrating	9	low_cue	n/a	4.38	Weak	4.38	Weak	0.52	1.48	task-social/cue/runtype-vicarious/scl/l010.png	n/a	n/a	n/a	n/a	n/a	n/a	n/a	n/a
280.79	5.0	vicarious	stimulus	9	low_cue	low_stim	n/a	n/a	n/a	n/a	n/a	n/a	task-social/stim/runtype-vicarious/ib109t1aiunaff_L.mp4	n/a	n/a	n/a	n/a	n/a	n/a	n/a	n/a
289.0	1.87	vicarious	outcomerating	9	low_cue	low_stim	13.03	Moderate	13.03	Moderate	0.52	1.48	task-social/outcomerating/task-vicarious_scale.png	n/a	n/a	n/a	n/a	n/a	n/a	n/a	n/a
294.8	0.98	vicarious	cue	10	high_cue	n/a	n/a	n/a	n/a	n/a	n/a	n/a	task-social/cue/runtype-vicarious/sch/h038.png	n/a	n/a	n/a	n/a	n/a	n/a	n/a	n/a
297.3	2.63	vicarious	expectrating	10	high_cue	n/a	21.5	Moderate	21.5	Moderate	0.92	1.72	task-social/cue/runtype-vicarious/sch/h038.png	n/a	n/a	n/a	n/a	n/a	n/a	n/a	n/a
307.89	5.0	vicarious	stimulus	10	high_cue	med_stim	n/a	n/a	n/a	n/a	n/a	n/a	task-social/stim/runtype-vicarious/jk103t2aaunaff_M.mp4	n/a	n/a	n/a	n/a	n/a	n/a	n/a	n/a
317.21	3.6	vicarious	outcomerating	10	high_cue	med_stim	27.49	Moderate	27.49	Moderate	0.92	1.72	task-social/outcomerating/task-vicarious_scale.png	n/a	n/a	n/a	n/a	n/a	n/a	n/a	n/a
327.1	0.98	vicarious	cue	11	low_cue	n/a	n/a	n/a	n/a	n/a	n/a	n/a	task-social/cue/runtype-vicarious/scl/l016.png	n/a	n/a	n/a	n/a	n/a	n/a	n/a	n/a
330.0	2.74	vicarious	expectrating	11	low_cue	n/a	5.98	Weak	5.98	Weak	0.47	2.27	task-social/cue/runtype-vicarious/scl/l016.png	n/a	n/a	n/a	n/a	n/a	n/a	n/a	n/a
342.89	5.0	vicarious	stimulus	11	low_cue	med_stim	n/a	n/a	n/a	n/a	n/a	n/a	task-social/stim/runtype-vicarious/bm049t2aeaff_M.mp4	n/a	n/a	n/a	n/a	n/a	n/a	n/a	n/a
361.51	2.53	vicarious	outcomerating	11	low_cue	med_stim	16.1	Moderate	16.1	Moderate	0.47	2.27	task-social/outcomerating/task-vicarious_scale.png	n/a	n/a	n/a	n/a	n/a	n/a	n/a	n/a
366.5	0.99	vicarious	cue	12	low_cue	n/a	n/a	n/a	n/a	n/a	n/a	n/a	task-social/cue/runtype-vicarious/scl/l034.png	n/a	n/a	n/a	n/a	n/a	n/a	n/a	n/a
369.4	1.39	vicarious	expectrating	12	low_cue	n/a	10.99	Moderate	10.99	Moderate	0.45	0.94	task-social/cue/runtype-vicarious/scl/l034.png	n/a	n/a	n/a	n/a	n/a	n/a	n/a	n/a
376.18	5.0	vicarious	stimulus	12	low_cue	low_stim	n/a	n/a	n/a	n/a	n/a	n/a	task-social/stim/runtype-vicarious/bn080t1afunaff_L.mp4	n/a	n/a	n/a	n/a	n/a	n/a	n/a	n/a
394.81	1.73	vicarious	outcomerating	12	low_cue	low_stim	11.85	Moderate	11.85	Moderate	0.45	0.94	task-social/outcomerating/task-vicarious_scale.png	n/a	n/a	n/a	n/a	n/a	n/a	n/a	n/a
