onset	duration	trial_type	response_x	response_y	situation	context	modality	stim_file
4.821	54.249	narrative_presentation	n/a	n/a	Deliverance	prison	Audio	task-narratives/Narrative7Situation1.mp3
59.07	3.717	rating_feeling	627	380	Deliverance	prison	Audio	n/a
60.153	2.633	feeling_mouse_trajectory	627	380	Deliverance	prison	Audio	n/a
63.127	3.1	rating_expectation	719	485	Deliverance	prison	Audio	n/a
63.244	2.983	expectation_mouse_trajectory	719	485	Deliverance	prison	Audio	n/a
70.33	5.894	narrative_presentation	n/a	n/a	Adultery	prison	Audio	task-narratives/Narrative7Situation2.mp3
76.223	3.933	rating_feeling	774	596	Adultery	prison	Audio	n/a
77.173	2.983	feeling_mouse_trajectory	774	596	Adultery	prison	Audio	n/a
80.265	2.367	rating_expectation	801	565	Adultery	prison	Audio	n/a
80.732	1.9	expectation_mouse_trajectory	801	565	Adultery	prison	Audio	n/a
92.34	7.398	narrative_presentation	n/a	n/a	Pursuit	prison	Audio	task-narratives/Narrative7Situation3.mp3
99.738	3.973	rating_feeling	1112	586	Pursuit	prison	Audio	n/a
100.705	3.006	feeling_mouse_trajectory	1112	586	Pursuit	prison	Audio	n/a
103.778	0.021	rating_expectation	960	707	Pursuit	prison	Audio	n/a
103.828	-0.029	expectation_mouse_trajectory	960	707	Pursuit	prison	Audio	n/a
110.864	11.428	narrative_presentation	n/a	n/a	Conflict with a god	park	Audio	task-narratives/Narrative7Situation4.mp3
122.292	3.635	rating_feeling	797	554	Conflict with a god	park	Audio	n/a
123.042	2.885	feeling_mouse_trajectory	797	554	Conflict with a god	park	Audio	n/a
126.316	3.968	rating_expectation	786	425	Conflict with a god	park	Audio	n/a
127.316	2.968	expectation_mouse_trajectory	786	425	Conflict with a god	park	Audio	n/a
135.393	7.934	narrative_presentation	n/a	n/a	Recovery of a lost one	park	Audio	task-narratives/Narrative7Situation5.mp3
143.327	2.589	rating_feeling	807	564	Recovery of a lost one	park	Audio	n/a
143.71	2.206	feeling_mouse_trajectory	807	564	Recovery of a lost one	park	Audio	n/a
147.365	3.971	rating_expectation	770	568	Recovery of a lost one	park	Audio	n/a
148.448	2.888	expectation_mouse_trajectory	770	568	Recovery of a lost one	park	Audio	n/a
154.465	8.725	narrative_presentation	n/a	n/a	Supplication	park	Audio	task-narratives/Narrative7Situation6.mp3
163.19	3.683	rating_feeling	957	378	Supplication	park	Audio	n/a
163.957	2.917	feeling_mouse_trajectory	957	378	Supplication	park	Audio	n/a
167.216	3.969	rating_expectation	819	509	Supplication	park	Audio	n/a
168.549	2.635	expectation_mouse_trajectory	819	509	Supplication	park	Audio	n/a
176.271	16.602	narrative_presentation	n/a	n/a	Involuntary crimes of love	hospital	Audio	task-narratives/Narrative7Situation7.mp3
192.874	3.983	rating_feeling	937	357	Involuntary crimes of love	hospital	Audio	n/a
194.374	2.483	feeling_mouse_trajectory	937	357	Involuntary crimes of love	hospital	Audio	n/a
196.897	3.636	rating_expectation	1023	497	Involuntary crimes of love	hospital	Audio	n/a
198.863	1.67	expectation_mouse_trajectory	1023	497	Involuntary crimes of love	hospital	Audio	n/a
202.949	8.727	narrative_presentation	n/a	n/a	An enemy loved	hospital	Audio	task-narratives/Narrative7Situation8.mp3
211.675	3.935	rating_feeling	683	471	An enemy loved	hospital	Audio	n/a
212.342	3.269	feeling_mouse_trajectory	683	471	An enemy loved	hospital	Audio	n/a
215.702	2.951	rating_expectation	718	501	An enemy loved	hospital	Audio	n/a
216.468	2.185	expectation_mouse_trajectory	718	501	An enemy loved	hospital	Audio	n/a
221.757	7.933	narrative_presentation	n/a	n/a	Ambition	hospital	Audio	task-narratives/Narrative7Situation9.mp3
229.69	3.417	rating_feeling	1169	459	Ambition	hospital	Audio	n/a
230.124	2.983	feeling_mouse_trajectory	1169	459	Ambition	hospital	Audio	n/a
233.731	2.439	rating_expectation	915	404	Ambition	hospital	Audio	n/a
234.864	1.306	expectation_mouse_trajectory	915	404	Ambition	hospital	Audio	n/a
242.817	15.279	narrative_presentation	n/a	n/a	Necessity of sacrificing loved ones	town	Audio	task-narratives/Narrative8Situation1.mp3
258.096	3.952	rating_feeling	895	324	Necessity of sacrificing loved ones	town	Audio	n/a
258.18	3.869	feeling_mouse_trajectory	895	324	Necessity of sacrificing loved ones	town	Audio	n/a
262.12	3.218	rating_expectation	940	323	Necessity of sacrificing loved ones	town	Audio	n/a
262.57	2.768	expectation_mouse_trajectory	940	323	Necessity of sacrificing loved ones	town	Audio	n/a
269.175	8.726	narrative_presentation	n/a	n/a	Abduction	town	Audio	task-narratives/Narrative8Situation2.mp3
277.901	3.05	rating_feeling	680	472	Abduction	town	Audio	n/a
278.185	2.767	feeling_mouse_trajectory	680	472	Abduction	town	Audio	n/a
281.933	3.605	rating_expectation	854	450	Abduction	town	Audio	n/a
282.699	2.838	expectation_mouse_trajectory	854	450	Abduction	town	Audio	n/a
289.985	22.098	narrative_presentation	n/a	n/a	Adultery	town	Audio	task-narratives/Narrative8Situation3.mp3
312.083	2.667	rating_feeling	889	457	Adultery	town	Audio	n/a
312.683	2.067	feeling_mouse_trajectory	889	457	Adultery	town	Audio	n/a
316.109	3.742	rating_expectation	904	408	Adultery	town	Audio	n/a
317.159	2.692	expectation_mouse_trajectory	904	408	Adultery	town	Audio	n/a
323.18	12.565	narrative_presentation	n/a	n/a	Obtaining	city	Audio	task-narratives/Narrative8Situation4.mp3
335.745	3.283	rating_feeling	743	483	Obtaining	city	Audio	n/a
336.229	2.8	feeling_mouse_trajectory	743	483	Obtaining	city	Audio	n/a
339.768	3.835	rating_expectation	809	452	Obtaining	city	Audio	n/a
340.518	3.085	expectation_mouse_trajectory	809	452	Obtaining	city	Audio	n/a
345.823	6.58	narrative_presentation	n/a	n/a	Supplication	city	Audio	task-narratives/Narrative8Situation5.mp3
352.402	2.4	rating_feeling	942	352	Supplication	city	Audio	n/a
353.469	1.333	feeling_mouse_trajectory	942	352	Supplication	city	Audio	n/a
356.425	3.943	rating_expectation	1005	413	Supplication	city	Audio	n/a
356.975	3.393	expectation_mouse_trajectory	1005	413	Supplication	city	Audio	n/a
362.5	5.927	narrative_presentation	n/a	n/a	Rivalry of kin	city	Audio	task-narratives/Narrative8Situation6.mp3
368.428	3.839	rating_feeling	1096	494	Rivalry of kin	city	Audio	n/a
369.361	2.906	feeling_mouse_trajectory	1096	494	Rivalry of kin	city	Audio	n/a
372.469	3.971	rating_expectation	1154	527	Rivalry of kin	city	Audio	n/a
373.386	3.054	expectation_mouse_trajectory	1154	527	Rivalry of kin	city	Audio	n/a
379.554	10.728	narrative_presentation	n/a	n/a	Recovery of a lost one	beach	Audio	task-narratives/Narrative8Situation7.mp3
390.282	3.75	rating_feeling	679	562	Recovery of a lost one	beach	Audio	n/a
390.632	3.4	feeling_mouse_trajectory	679	562	Recovery of a lost one	beach	Audio	n/a
394.307	3.985	rating_expectation	642	497	Recovery of a lost one	beach	Audio	n/a
395.24	3.052	expectation_mouse_trajectory	642	497	Recovery of a lost one	beach	Audio	n/a
401.361	11.235	narrative_presentation	n/a	n/a	Rivalry of superior versus inferior	beach	Audio	task-narratives/Narrative8Situation8.mp3
412.596	2.85	rating_feeling	773	563	Rivalry of superior versus inferior	beach	Audio	n/a
413.396	2.05	feeling_mouse_trajectory	773	563	Rivalry of superior versus inferior	beach	Audio	n/a
416.62	2.371	rating_expectation	662	527	Rivalry of superior versus inferior	beach	Audio	n/a
417.503	1.488	expectation_mouse_trajectory	662	527	Rivalry of superior versus inferior	beach	Audio	n/a
423.689	10.066	narrative_presentation	n/a	n/a	Slaying of kin unrecognized	beach	Audio	task-narratives/Narrative8Situation9.mp3
433.755	3.667	rating_feeling	895	322	Slaying of kin unrecognized	beach	Audio	n/a
434.338	3.083	feeling_mouse_trajectory	895	322	Slaying of kin unrecognized	beach	Audio	n/a
437.791	3.985	rating_expectation	1007	320	Slaying of kin unrecognized	beach	Audio	n/a
438.641	3.135	expectation_mouse_trajectory	1007	320	Slaying of kin unrecognized	beach	Audio	n/a
