onset	duration	trial_type	response_x	response_y	situation	context	modality	stim_file
8.839	32.183	narrative_presentation	n/a	n/a	Slaying of kin unrecognized	town	Text	task-narratives/Narrative3Situation1.txt
41.022	2.668	rating_feeling	757	502	Slaying of kin unrecognized	town	Text	task-narratives/Narrative3Situation1.txt
42.155	1.534	feeling_mouse_trajectory	757	502	Slaying of kin unrecognized	town	Text	task-narratives/Narrative3Situation1.txt
45.092	1.584	rating_expectation	814	463	Slaying of kin unrecognized	town	Text	task-narratives/Narrative3Situation1.txt
45.375	1.301	expectation_mouse_trajectory	814	463	Slaying of kin unrecognized	town	Text	task-narratives/Narrative3Situation1.txt
53.172	17.111	narrative_presentation	n/a	n/a	Adultery	swamp	Text	task-narratives/Narrative3Situation2.txt
70.283	2.505	rating_feeling	757	502	Adultery	swamp	Text	task-narratives/Narrative3Situation2.txt
71.35	1.439	feeling_mouse_trajectory	757	502	Adultery	swamp	Text	task-narratives/Narrative3Situation2.txt
74.303	1.82	rating_expectation	814	463	Adultery	swamp	Text	task-narratives/Narrative3Situation2.txt
74.737	1.387	expectation_mouse_trajectory	814	463	Adultery	swamp	Text	task-narratives/Narrative3Situation2.txt
80.382	10.392	narrative_presentation	n/a	n/a	Revolt	town	Text	task-narratives/Narrative3Situation3.txt
90.774	2.635	rating_feeling	757	502	Revolt	town	Text	task-narratives/Narrative3Situation3.txt
91.307	2.101	feeling_mouse_trajectory	757	502	Revolt	town	Text	task-narratives/Narrative3Situation3.txt
94.79	1.751	rating_expectation	814	463	Revolt	town	Text	task-narratives/Narrative3Situation3.txt
95.274	1.267	expectation_mouse_trajectory	814	463	Revolt	town	Text	task-narratives/Narrative3Situation3.txt
99.856	28.149	narrative_presentation	n/a	n/a	Fatal imprudence	hospital	Text	task-narratives/Narrative3Situation4.txt
128.005	2.368	rating_feeling	757	502	Fatal imprudence	hospital	Text	task-narratives/Narrative3Situation4.txt
128.655	1.718	feeling_mouse_trajectory	757	502	Fatal imprudence	hospital	Text	task-narratives/Narrative3Situation4.txt
132.02	1.801	rating_expectation	814	463	Fatal imprudence	hospital	Text	task-narratives/Narrative3Situation4.txt
132.637	1.184	expectation_mouse_trajectory	814	463	Fatal imprudence	hospital	Text	task-narratives/Narrative3Situation4.txt
139.088	15.096	narrative_presentation	n/a	n/a	Deliverance	city	Text	task-narratives/Narrative3Situation5.txt
154.184	1.641	rating_feeling	757	502	Deliverance	city	Text	task-narratives/Narrative3Situation5.txt
155.117	0.707	feeling_mouse_trajectory	757	502	Deliverance	city	Text	task-narratives/Narrative3Situation5.txt
158.197	1.722	rating_expectation	814	463	Deliverance	city	Text	task-narratives/Narrative3Situation5.txt
158.847	1.072	expectation_mouse_trajectory	814	463	Deliverance	city	Text	task-narratives/Narrative3Situation5.txt
165.264	15.076	narrative_presentation	n/a	n/a	Necessity of sacrificing loved ones	hospital	Text	task-narratives/Narrative3Situation6.txt
180.34	1.884	rating_feeling	757	502	Necessity of sacrificing loved ones	hospital	Text	task-narratives/Narrative3Situation6.txt
180.957	1.268	feeling_mouse_trajectory	757	502	Necessity of sacrificing loved ones	hospital	Text	task-narratives/Narrative3Situation6.txt
184.357	2.951	rating_expectation	814	463	Necessity of sacrificing loved ones	hospital	Text	task-narratives/Narrative3Situation6.txt
184.84	2.468	expectation_mouse_trajectory	814	463	Necessity of sacrificing loved ones	hospital	Text	task-narratives/Narrative3Situation6.txt
192.424	36.85	narrative_presentation	n/a	n/a	Loss of loved one	forest	Text	task-narratives/Narrative3Situation7.txt
229.274	2.368	rating_feeling	757	502	Loss of loved one	forest	Text	task-narratives/Narrative3Situation7.txt
230.307	1.334	feeling_mouse_trajectory	757	502	Loss of loved one	forest	Text	task-narratives/Narrative3Situation7.txt
233.291	1.668	rating_expectation	814	463	Loss of loved one	forest	Text	task-narratives/Narrative3Situation7.txt
233.875	1.084	expectation_mouse_trajectory	814	463	Loss of loved one	forest	Text	task-narratives/Narrative3Situation7.txt
239.358	9.712	narrative_presentation	n/a	n/a	Crimes of love	prison	Text	task-narratives/Narrative3Situation8.txt
249.071	2.322	rating_feeling	757	502	Crimes of love	prison	Text	task-narratives/Narrative3Situation8.txt
249.871	1.522	feeling_mouse_trajectory	757	502	Crimes of love	prison	Text	task-narratives/Narrative3Situation8.txt
253.102	2.054	rating_expectation	814	463	Crimes of love	prison	Text	task-narratives/Narrative3Situation8.txt
253.535	1.62	expectation_mouse_trajectory	814	463	Crimes of love	prison	Text	task-narratives/Narrative3Situation8.txt
258.165	27.481	narrative_presentation	n/a	n/a	Discovery of dishonour of loved one	forest	Text	task-narratives/Narrative3Situation9.txt
285.646	1.558	rating_feeling	757	502	Discovery of dishonour of loved one	forest	Text	task-narratives/Narrative3Situation9.txt
286.129	1.075	feeling_mouse_trajectory	757	502	Discovery of dishonour of loved one	forest	Text	task-narratives/Narrative3Situation9.txt
289.662	1.44	rating_expectation	814	463	Discovery of dishonour of loved one	forest	Text	task-narratives/Narrative3Situation9.txt
290.129	0.973	expectation_mouse_trajectory	814	463	Discovery of dishonour of loved one	forest	Text	task-narratives/Narrative3Situation9.txt
295.746	22.445	narrative_presentation	n/a	n/a	Slaying of kin unrecognized	town	Text	task-narratives/Narrative4Situation1.txt
318.191	3.601	rating_feeling	757	502	Slaying of kin unrecognized	town	Text	task-narratives/Narrative4Situation1.txt
319.674	2.118	feeling_mouse_trajectory	757	502	Slaying of kin unrecognized	town	Text	task-narratives/Narrative4Situation1.txt
322.208	2.028	rating_expectation	814	463	Slaying of kin unrecognized	town	Text	task-narratives/Narrative4Situation1.txt
323.225	1.011	expectation_mouse_trajectory	814	463	Slaying of kin unrecognized	town	Text	task-narratives/Narrative4Situation1.txt
331.276	24.796	narrative_presentation	n/a	n/a	Adultery	swamp	Text	task-narratives/Narrative4Situation2.txt
356.072	2.601	rating_feeling	757	502	Adultery	swamp	Text	task-narratives/Narrative4Situation2.txt
357.005	1.668	feeling_mouse_trajectory	757	502	Adultery	swamp	Text	task-narratives/Narrative4Situation2.txt
360.088	3.735	rating_expectation	814	463	Adultery	swamp	Text	task-narratives/Narrative4Situation2.txt
360.922	2.902	expectation_mouse_trajectory	814	463	Adultery	swamp	Text	task-narratives/Narrative4Situation2.txt
366.156	21.115	narrative_presentation	n/a	n/a	Revolt	town	Text	task-narratives/Narrative4Situation3.txt
387.271	3.97	rating_feeling	757	502	Revolt	town	Text	task-narratives/Narrative4Situation3.txt
387.821	3.42	feeling_mouse_trajectory	757	502	Revolt	town	Text	task-narratives/Narrative4Situation3.txt
391.302	3.985	rating_expectation	814	463	Revolt	town	Text	task-narratives/Narrative4Situation3.txt
391.969	3.319	expectation_mouse_trajectory	814	463	Revolt	town	Text	task-narratives/Narrative4Situation3.txt
396.367	21.111	narrative_presentation	n/a	n/a	Fatal imprudence	hospital	Text	task-narratives/Narrative4Situation4.txt
417.478	3.276	rating_feeling	757	502	Fatal imprudence	hospital	Text	task-narratives/Narrative4Situation4.txt
417.962	2.792	feeling_mouse_trajectory	757	502	Fatal imprudence	hospital	Text	task-narratives/Narrative4Situation4.txt
421.495	1.624	rating_expectation	814	463	Fatal imprudence	hospital	Text	task-narratives/Narrative4Situation4.txt
421.895	1.224	expectation_mouse_trajectory	814	463	Fatal imprudence	hospital	Text	task-narratives/Narrative4Situation4.txt
426.561	25.796	narrative_presentation	n/a	n/a	Deliverance	city	Text	task-narratives/Narrative4Situation5.txt
452.357	2.168	rating_feeling	757	502	Deliverance	city	Text	task-narratives/Narrative4Situation5.txt
453.274	1.251	feeling_mouse_trajectory	757	502	Deliverance	city	Text	task-narratives/Narrative4Situation5.txt
456.375	2.245	rating_expectation	814	463	Deliverance	city	Text	task-narratives/Narrative4Situation5.txt
456.791	1.828	expectation_mouse_trajectory	814	463	Deliverance	city	Text	task-narratives/Narrative4Situation5.txt
461.441	23.446	narrative_presentation	n/a	n/a	Necessity of sacrificing loved ones	hospital	Text	task-narratives/Narrative4Situation6.txt
484.888	2.201	rating_feeling	757	502	Necessity of sacrificing loved ones	hospital	Text	task-narratives/Narrative4Situation6.txt
485.588	1.501	feeling_mouse_trajectory	757	502	Necessity of sacrificing loved ones	hospital	Text	task-narratives/Narrative4Situation6.txt
488.903	2.768	rating_expectation	814	463	Necessity of sacrificing loved ones	hospital	Text	task-narratives/Narrative4Situation6.txt
489.487	2.185	expectation_mouse_trajectory	814	463	Necessity of sacrificing loved ones	hospital	Text	task-narratives/Narrative4Situation6.txt
493.97	19.093	narrative_presentation	n/a	n/a	Loss of loved one	forest	Text	task-narratives/Narrative4Situation7.txt
513.063	2.107	rating_feeling	757	502	Loss of loved one	forest	Text	task-narratives/Narrative4Situation7.txt
513.78	1.39	feeling_mouse_trajectory	757	502	Loss of loved one	forest	Text	task-narratives/Narrative4Situation7.txt
517.086	1.605	rating_expectation	814	463	Loss of loved one	forest	Text	task-narratives/Narrative4Situation7.txt
517.436	1.255	expectation_mouse_trajectory	814	463	Loss of loved one	forest	Text	task-narratives/Narrative4Situation7.txt
522.18	38.534	narrative_presentation	n/a	n/a	Crimes of love	prison	Text	task-narratives/Narrative4Situation8.txt
560.714	2.439	rating_feeling	757	502	Crimes of love	prison	Text	task-narratives/Narrative4Situation8.txt
561.498	1.656	feeling_mouse_trajectory	757	502	Crimes of love	prison	Text	task-narratives/Narrative4Situation8.txt
564.736	2.588	rating_expectation	814	463	Crimes of love	prison	Text	task-narratives/Narrative4Situation8.txt
565.452	1.871	expectation_mouse_trajectory	814	463	Crimes of love	prison	Text	task-narratives/Narrative4Situation8.txt
573.8	12.391	narrative_presentation	n/a	n/a	Discovery of dishonour of loved one	forest	Text	task-narratives/Narrative4Situation9.txt
586.191	3.268	rating_feeling	757	502	Discovery of dishonour of loved one	forest	Text	task-narratives/Narrative4Situation9.txt
586.624	2.835	feeling_mouse_trajectory	757	502	Discovery of dishonour of loved one	forest	Text	task-narratives/Narrative4Situation9.txt
590.208	2.301	rating_expectation	814	463	Discovery of dishonour of loved one	forest	Text	task-narratives/Narrative4Situation9.txt
590.708	1.801	expectation_mouse_trajectory	814	463	Discovery of dishonour of loved one	forest	Text	task-narratives/Narrative4Situation9.txt
