onset	duration	trial_type	response_x	response_y	situation	context	modality	stim_file
8.839	32.183	narrative_presentation	n/a	n/a	Slaying-of-kin-unrecognized	town	Text	task-narratives/Narrative3Situation1.txt
41.022	2.668	rating_feeling	757	502	Slaying-of-kin-unrecognized	town	Text	n/a
42.155	1.534	feeling_mouse_trajectory	757	502	Slaying-of-kin-unrecognized	town	Text	n/a
45.092	1.584	rating_expectation	814	463	Slaying-of-kin-unrecognized	town	Text	n/a
45.375	1.301	expectation_mouse_trajectory	814	463	Slaying-of-kin-unrecognized	town	Text	n/a
53.172	17.111	narrative_presentation	n/a	n/a	Erroneous-judgement	town	Text	task-narratives/Narrative3Situation2.txt
70.283	2.505	rating_feeling	845	515	Erroneous-judgement	town	Text	n/a
71.35	1.439	feeling_mouse_trajectory	845	515	Erroneous-judgement	town	Text	n/a
74.303	1.82	rating_expectation	693	532	Erroneous-judgement	town	Text	n/a
74.737	1.387	expectation_mouse_trajectory	693	532	Erroneous-judgement	town	Text	n/a
80.382	10.392	narrative_presentation	n/a	n/a	Revolt	town	Text	task-narratives/Narrative3Situation3.txt
90.774	2.635	rating_feeling	1155	511	Revolt	town	Text	n/a
91.307	2.101	feeling_mouse_trajectory	1155	511	Revolt	town	Text	n/a
94.79	1.751	rating_expectation	1105	524	Revolt	town	Text	n/a
95.274	1.267	expectation_mouse_trajectory	1105	524	Revolt	town	Text	n/a
99.856	28.149	narrative_presentation	n/a	n/a	The-enigma	city	Text	task-narratives/Narrative3Situation4.txt
128.005	2.368	rating_feeling	1014	523	The-enigma	city	Text	n/a
128.655	1.718	feeling_mouse_trajectory	1014	523	The-enigma	city	Text	n/a
132.02	1.801	rating_expectation	1023	500	The-enigma	city	Text	n/a
132.637	1.184	expectation_mouse_trajectory	1023	500	The-enigma	city	Text	n/a
139.088	15.096	narrative_presentation	n/a	n/a	Deliverance	city	Text	task-narratives/Narrative3Situation5.txt
154.184	1.641	rating_feeling	796	512	Deliverance	city	Text	n/a
155.117	0.707	feeling_mouse_trajectory	796	512	Deliverance	city	Text	n/a
158.197	1.722	rating_expectation	747	447	Deliverance	city	Text	n/a
158.847	1.072	expectation_mouse_trajectory	747	447	Deliverance	city	Text	n/a
165.264	15.076	narrative_presentation	n/a	n/a	Remorse	city	Text	task-narratives/Narrative3Situation6.txt
180.34	1.884	rating_feeling	638	554	Remorse	city	Text	n/a
180.957	1.268	feeling_mouse_trajectory	638	554	Remorse	city	Text	n/a
184.357	2.951	rating_expectation	779	396	Remorse	city	Text	n/a
184.84	2.468	expectation_mouse_trajectory	779	396	Remorse	city	Text	n/a
192.424	36.85	narrative_presentation	n/a	n/a	Loss-of-loved-one	forest	Text	task-narratives/Narrative3Situation7.txt
229.274	2.368	rating_feeling	724	421	Loss-of-loved-one	forest	Text	n/a
230.307	1.334	feeling_mouse_trajectory	724	421	Loss-of-loved-one	forest	Text	n/a
233.291	1.668	rating_expectation	739	487	Loss-of-loved-one	forest	Text	n/a
233.875	1.084	expectation_mouse_trajectory	739	487	Loss-of-loved-one	forest	Text	n/a
239.358	9.712	narrative_presentation	n/a	n/a	All-sacrificed-for-passion	forest	Text	task-narratives/Narrative3Situation8.txt
249.071	2.322	rating_feeling	751	498	All-sacrificed-for-passion	forest	Text	n/a
249.871	1.522	feeling_mouse_trajectory	751	498	All-sacrificed-for-passion	forest	Text	n/a
253.102	2.054	rating_expectation	821	598	All-sacrificed-for-passion	forest	Text	n/a
253.535	1.62	expectation_mouse_trajectory	821	598	All-sacrificed-for-passion	forest	Text	n/a
258.165	27.481	narrative_presentation	n/a	n/a	Discovery-of-dishonour-of-loved-one	forest	Text	task-narratives/Narrative3Situation9.txt
285.646	1.558	rating_feeling	697	500	Discovery-of-dishonour-of-loved-one	forest	Text	n/a
286.129	1.075	feeling_mouse_trajectory	697	500	Discovery-of-dishonour-of-loved-one	forest	Text	n/a
289.662	1.44	rating_expectation	739	384	Discovery-of-dishonour-of-loved-one	forest	Text	n/a
290.129	0.973	expectation_mouse_trajectory	739	384	Discovery-of-dishonour-of-loved-one	forest	Text	n/a
295.746	22.445	narrative_presentation	n/a	n/a	Conflict-with-a-god	swamp	Text	task-narratives/Narrative4Situation1.txt
318.191	3.601	rating_feeling	1066	443	Conflict-with-a-god	swamp	Text	n/a
319.674	2.118	feeling_mouse_trajectory	1066	443	Conflict-with-a-god	swamp	Text	n/a
322.208	2.028	rating_expectation	1095	494	Conflict-with-a-god	swamp	Text	n/a
323.225	1.011	expectation_mouse_trajectory	1095	494	Conflict-with-a-god	swamp	Text	n/a
331.276	24.796	narrative_presentation	n/a	n/a	Adultery	swamp	Text	task-narratives/Narrative4Situation2.txt
356.072	2.601	rating_feeling	591	372	Adultery	swamp	Text	n/a
357.005	1.668	feeling_mouse_trajectory	591	372	Adultery	swamp	Text	n/a
360.088	3.735	rating_expectation	599	363	Adultery	swamp	Text	n/a
360.922	2.902	expectation_mouse_trajectory	599	363	Adultery	swamp	Text	n/a
366.156	21.115	narrative_presentation	n/a	n/a	Slaying-of-kin-unrecognized	swamp	Text	task-narratives/Narrative4Situation3.txt
387.271	3.97	rating_feeling	602	360	Slaying-of-kin-unrecognized	swamp	Text	n/a
387.821	3.42	feeling_mouse_trajectory	602	360	Slaying-of-kin-unrecognized	swamp	Text	n/a
391.302	3.985	rating_expectation	622	339	Slaying-of-kin-unrecognized	swamp	Text	n/a
391.969	3.319	expectation_mouse_trajectory	622	339	Slaying-of-kin-unrecognized	swamp	Text	n/a
396.367	21.111	narrative_presentation	n/a	n/a	Fatal-imprudence	hospital	Text	task-narratives/Narrative4Situation4.txt
417.478	3.276	rating_feeling	660	309	Fatal-imprudence	hospital	Text	n/a
417.962	2.792	feeling_mouse_trajectory	660	309	Fatal-imprudence	hospital	Text	n/a
421.495	1.624	rating_expectation	614	360	Fatal-imprudence	hospital	Text	n/a
421.895	1.224	expectation_mouse_trajectory	614	360	Fatal-imprudence	hospital	Text	n/a
426.561	25.796	narrative_presentation	n/a	n/a	Erroneous-judgement	hospital	Text	task-narratives/Narrative4Situation5.txt
452.357	2.168	rating_feeling	635	329	Erroneous-judgement	hospital	Text	n/a
453.274	1.251	feeling_mouse_trajectory	635	329	Erroneous-judgement	hospital	Text	n/a
456.375	2.245	rating_expectation	601	359	Erroneous-judgement	hospital	Text	n/a
456.791	1.828	expectation_mouse_trajectory	601	359	Erroneous-judgement	hospital	Text	n/a
461.441	23.446	narrative_presentation	n/a	n/a	Necessity-of-sacrificing-loved-ones	hospital	Text	task-narratives/Narrative4Situation6.txt
484.888	2.201	rating_feeling	643	328	Necessity-of-sacrificing-loved-ones	hospital	Text	n/a
485.588	1.501	feeling_mouse_trajectory	643	328	Necessity-of-sacrificing-loved-ones	hospital	Text	n/a
488.903	2.768	rating_expectation	622	339	Necessity-of-sacrificing-loved-ones	hospital	Text	n/a
489.487	2.185	expectation_mouse_trajectory	622	339	Necessity-of-sacrificing-loved-ones	hospital	Text	n/a
493.97	19.093	narrative_presentation	n/a	n/a	Recovery-of-a-lost-one	prison	Text	task-narratives/Narrative4Situation7.txt
513.063	2.107	rating_feeling	619	417	Recovery-of-a-lost-one	prison	Text	n/a
513.78	1.39	feeling_mouse_trajectory	619	417	Recovery-of-a-lost-one	prison	Text	n/a
517.086	1.605	rating_expectation	678	423	Recovery-of-a-lost-one	prison	Text	n/a
517.436	1.255	expectation_mouse_trajectory	678	423	Recovery-of-a-lost-one	prison	Text	n/a
522.18	38.534	narrative_presentation	n/a	n/a	Crimes-of-love	prison	Text	task-narratives/Narrative4Situation8.txt
560.714	2.439	rating_feeling	617	344	Crimes-of-love	prison	Text	n/a
561.498	1.656	feeling_mouse_trajectory	617	344	Crimes-of-love	prison	Text	n/a
564.736	2.588	rating_expectation	593	368	Crimes-of-love	prison	Text	n/a
565.452	1.871	expectation_mouse_trajectory	593	368	Crimes-of-love	prison	Text	n/a
573.8	12.391	narrative_presentation	n/a	n/a	Abduction	prison	Text	task-narratives/Narrative4Situation9.txt
586.191	3.268	rating_feeling	593	368	Abduction	prison	Text	n/a
586.624	2.835	feeling_mouse_trajectory	593	368	Abduction	prison	Text	n/a
590.208	2.301	rating_expectation	625	338	Abduction	prison	Text	n/a
590.708	1.801	expectation_mouse_trajectory	625	338	Abduction	prison	Text	n/a
