onset	duration	trial_type	response_value	stim_file
2.765	47.358	video	n/a	task-alignvideo/ses-02_run-04_order-01_content-forestfire.mp4
54.707	n/a	rating_relevance	n/a	task-alignvideo/ses-02_run-04_order-01_content-forestfire.mp4
59.376	4.15	rating_happy	0.62	task-alignvideo/ses-02_run-04_order-01_content-forestfire.mp4
62.177	1.933	rating_sad	58.96	task-alignvideo/ses-02_run-04_order-01_content-forestfire.mp4
68.096	2.834	rating_afraid	100.0	task-alignvideo/ses-02_run-04_order-01_content-forestfire.mp4
72.764	2.483	rating_disgusted	100.0	task-alignvideo/ses-02_run-04_order-01_content-forestfire.mp4
78.583	3.285	rating_warm	0.73	task-alignvideo/ses-02_run-04_order-01_content-forestfire.mp4
82.951	2.612	rating_engaged	100.0	task-alignvideo/ses-02_run-04_order-01_content-forestfire.mp4
85.37	47.802	video	n/a	task-alignvideo/ses-02_run-04_order-02_content-iceblock.mp4
137.738	n/a	rating_relevance	n/a	task-alignvideo/ses-02_run-04_order-02_content-iceblock.mp4
142.773	n/a	rating_happy	n/a	task-alignvideo/ses-02_run-04_order-02_content-iceblock.mp4
147.809	n/a	rating_sad	n/a	task-alignvideo/ses-02_run-04_order-02_content-iceblock.mp4
152.827	n/a	rating_afraid	n/a	task-alignvideo/ses-02_run-04_order-02_content-iceblock.mp4
157.846	n/a	rating_disgusted	n/a	task-alignvideo/ses-02_run-04_order-02_content-iceblock.mp4
162.864	n/a	rating_warm	n/a	task-alignvideo/ses-02_run-04_order-02_content-iceblock.mp4
167.883	n/a	rating_engaged	n/a	task-alignvideo/ses-02_run-04_order-02_content-iceblock.mp4
168.414	146.125	video	n/a	task-alignvideo/ses-02_run-04_order-03_content-alwaysafamily.mp4
319.106	n/a	rating_relevance	n/a	task-alignvideo/ses-02_run-04_order-03_content-alwaysafamily.mp4
324.141	n/a	rating_happy	n/a	task-alignvideo/ses-02_run-04_order-03_content-alwaysafamily.mp4
329.176	n/a	rating_sad	n/a	task-alignvideo/ses-02_run-04_order-03_content-alwaysafamily.mp4
334.212	n/a	rating_afraid	n/a	task-alignvideo/ses-02_run-04_order-03_content-alwaysafamily.mp4
339.247	n/a	rating_disgusted	n/a	task-alignvideo/ses-02_run-04_order-03_content-alwaysafamily.mp4
344.265	n/a	rating_warm	n/a	task-alignvideo/ses-02_run-04_order-03_content-alwaysafamily.mp4
349.284	n/a	rating_engaged	n/a	task-alignvideo/ses-02_run-04_order-03_content-alwaysafamily.mp4
349.815	33.042	video	n/a	task-alignvideo/ses-02_run-04_order-04_content-visswar.mp4
387.431	n/a	rating_relevance	n/a	task-alignvideo/ses-02_run-04_order-04_content-visswar.mp4
392.467	n/a	rating_happy	n/a	task-alignvideo/ses-02_run-04_order-04_content-visswar.mp4
397.502	n/a	rating_sad	n/a	task-alignvideo/ses-02_run-04_order-04_content-visswar.mp4
402.537	n/a	rating_afraid	n/a	task-alignvideo/ses-02_run-04_order-04_content-visswar.mp4
407.572	n/a	rating_disgusted	n/a	task-alignvideo/ses-02_run-04_order-04_content-visswar.mp4
412.607	n/a	rating_warm	n/a	task-alignvideo/ses-02_run-04_order-04_content-visswar.mp4
417.643	n/a	rating_engaged	n/a	task-alignvideo/ses-02_run-04_order-04_content-visswar.mp4
