onset	duration	trial_type	response_x	response_y	situation	context	modality	stim_file
7.819	12.648	narrative_presentation	n/a	n/a	Enmity of kin	prison	Audio	task-narratives/Narrative5Situation1.mp3
20.467	3.67	rating_feeling	1062	539	Enmity of kin	prison	Audio	n/a
21.917	2.22	feeling_mouse_trajectory	1062	539	Enmity of kin	prison	Audio	n/a
24.492	1.885	rating_expectation	1035	560	Enmity of kin	prison	Audio	n/a
25.475	0.901	expectation_mouse_trajectory	1035	560	Enmity of kin	prison	Audio	n/a
31.544	28.105	narrative_presentation	n/a	n/a	All sacrificed for passion	prison	Audio	task-narratives/Narrative5Situation2.mp3
59.648	2.322	rating_feeling	1062	539	All sacrificed for passion	prison	Audio	n/a
60.232	1.738	feeling_mouse_trajectory	1062	539	All sacrificed for passion	prison	Audio	n/a
63.673	2.437	rating_expectation	1035	560	All sacrificed for passion	prison	Audio	n/a
64.256	1.853	expectation_mouse_trajectory	1035	560	All sacrificed for passion	prison	Audio	n/a
70.726	13.308	narrative_presentation	n/a	n/a	Discovery of dishonour of loved one	prison	Audio	task-narratives/Narrative5Situation3.mp3
84.034	1.101	rating_feeling	1062	539	Discovery of dishonour of loved one	prison	Audio	n/a
84.368	0.767	feeling_mouse_trajectory	1062	539	Discovery of dishonour of loved one	prison	Audio	n/a
88.063	2.251	rating_expectation	1035	560	Discovery of dishonour of loved one	prison	Audio	n/a
88.563	1.751	expectation_mouse_trajectory	1035	560	Discovery of dishonour of loved one	prison	Audio	n/a
93.117	20.149	narrative_presentation	n/a	n/a	Crimes of love	park	Audio	task-narratives/Narrative5Situation4.mp3
113.266	2.518	rating_feeling	1062	539	Crimes of love	park	Audio	n/a
114.399	1.385	feeling_mouse_trajectory	1062	539	Crimes of love	park	Audio	n/a
117.29	2.001	rating_expectation	1035	560	Crimes of love	park	Audio	n/a
118.174	1.118	expectation_mouse_trajectory	1035	560	Crimes of love	park	Audio	n/a
126.346	14.112	narrative_presentation	n/a	n/a	Necessity of sacrificing loved ones	park	Audio	task-narratives/Narrative5Situation5.mp3
140.458	2.042	rating_feeling	1062	539	Necessity of sacrificing loved ones	park	Audio	n/a
140.975	1.525	feeling_mouse_trajectory	1062	539	Necessity of sacrificing loved ones	park	Audio	n/a
144.483	2.807	rating_expectation	1035	560	Necessity of sacrificing loved ones	park	Audio	n/a
145.4	1.89	expectation_mouse_trajectory	1035	560	Necessity of sacrificing loved ones	park	Audio	n/a
151.555	5.477	narrative_presentation	n/a	n/a	Adultery	park	Audio	task-narratives/Narrative5Situation6.mp3
157.033	2.135	rating_feeling	1062	539	Adultery	park	Audio	n/a
158.016	1.152	feeling_mouse_trajectory	1062	539	Adultery	park	Audio	n/a
161.057	1.868	rating_expectation	1035	560	Adultery	park	Audio	n/a
161.457	1.468	expectation_mouse_trajectory	1035	560	Adultery	park	Audio	n/a
169.112	20.821	narrative_presentation	n/a	n/a	Revolt	beach	Audio	task-narratives/Narrative5Situation7.mp3
189.933	2.606	rating_feeling	1062	539	Revolt	beach	Audio	n/a
190.349	2.19	feeling_mouse_trajectory	1062	539	Revolt	beach	Audio	n/a
193.957	2.105	rating_expectation	1035	560	Revolt	beach	Audio	n/a
194.973	1.088	expectation_mouse_trajectory	1035	560	Revolt	beach	Audio	n/a
201.027	7.289	narrative_presentation	n/a	n/a	An enemy loved	beach	Audio	task-narratives/Narrative5Situation8.mp3
208.316	1.801	rating_feeling	1062	539	An enemy loved	beach	Audio	n/a
208.916	1.201	feeling_mouse_trajectory	1062	539	An enemy loved	beach	Audio	n/a
212.342	2.068	rating_expectation	1035	560	An enemy loved	beach	Audio	n/a
213.142	1.268	expectation_mouse_trajectory	1035	560	An enemy loved	beach	Audio	n/a
219.397	37.953	narrative_presentation	n/a	n/a	Mistaken jealousy	beach	Audio	task-narratives/Narrative5Situation9.mp3
257.35	2.468	rating_feeling	1062	539	Mistaken jealousy	beach	Audio	n/a
258.233	1.584	feeling_mouse_trajectory	1062	539	Mistaken jealousy	beach	Audio	n/a
261.377	2.301	rating_expectation	1035	560	Mistaken jealousy	beach	Audio	n/a
262.21	1.468	expectation_mouse_trajectory	1035	560	Mistaken jealousy	beach	Audio	n/a
267.449	25.964	narrative_presentation	n/a	n/a	Recovery of a lost one	town	Audio	task-narratives/Narrative6Situation1.mp3
293.412	3.968	rating_feeling	1062	539	Recovery of a lost one	town	Audio	n/a
294.879	2.502	feeling_mouse_trajectory	1062	539	Recovery of a lost one	town	Audio	n/a
297.44	0.017	rating_expectation	1035	560	Recovery of a lost one	town	Audio	n/a
297.49	-0.033	expectation_mouse_trajectory	1035	560	Recovery of a lost one	town	Audio	n/a
304.495	27.986	narrative_presentation	n/a	n/a	The enigma	town	Audio	task-narratives/Narrative6Situation2.mp3
332.482	1.487	rating_feeling	1062	539	The enigma	town	Audio	n/a
332.999	0.97	feeling_mouse_trajectory	1062	539	The enigma	town	Audio	n/a
336.507	2.635	rating_expectation	1035	560	The enigma	town	Audio	n/a
337.507	1.635	expectation_mouse_trajectory	1035	560	The enigma	town	Audio	n/a
345.561	11.977	narrative_presentation	n/a	n/a	Revolt	town	Audio	task-narratives/Narrative6Situation3.mp3
357.538	1.934	rating_feeling	1062	539	Revolt	town	Audio	n/a
358.255	1.218	feeling_mouse_trajectory	1062	539	Revolt	town	Audio	n/a
361.568	1.301	rating_expectation	1035	560	Revolt	town	Audio	n/a
362.235	0.634	expectation_mouse_trajectory	1035	560	Revolt	town	Audio	n/a
367.635	11.981	narrative_presentation	n/a	n/a	Loss of loved one	swamp	Audio	task-narratives/Narrative6Situation4.mp3
379.617	1.886	rating_feeling	1062	539	Loss of loved one	swamp	Audio	n/a
379.967	1.536	feeling_mouse_trajectory	1062	539	Loss of loved one	swamp	Audio	n/a
383.64	2.034	rating_expectation	1035	560	Loss of loved one	swamp	Audio	n/a
384.724	0.951	expectation_mouse_trajectory	1035	560	Loss of loved one	swamp	Audio	n/a
389.694	7.317	narrative_presentation	n/a	n/a	An enemy loved	swamp	Audio	task-narratives/Narrative6Situation5.mp3
397.011	2.484	rating_feeling	1062	539	An enemy loved	swamp	Audio	n/a
397.711	1.784	feeling_mouse_trajectory	1062	539	An enemy loved	swamp	Audio	n/a
401.029	1.584	rating_expectation	1035	560	An enemy loved	swamp	Audio	n/a
401.562	1.051	expectation_mouse_trajectory	1035	560	An enemy loved	swamp	Audio	n/a
407.084	10.821	narrative_presentation	n/a	n/a	Daring Enterprise	swamp	Audio	task-narratives/Narrative6Situation6.mp3
417.905	3.738	rating_feeling	1062	539	Daring Enterprise	swamp	Audio	n/a
418.671	2.971	feeling_mouse_trajectory	1062	539	Daring Enterprise	swamp	Audio	n/a
421.94	2.087	rating_expectation	1035	560	Daring Enterprise	swamp	Audio	n/a
422.657	1.37	expectation_mouse_trajectory	1035	560	Daring Enterprise	swamp	Audio	n/a
430.993	23.284	narrative_presentation	n/a	n/a	Self-sacrifice for kin	city	Audio	task-narratives/Narrative6Situation7.mp3
454.276	2.558	rating_feeling	1062	539	Self-sacrifice for kin	city	Audio	n/a
455.06	1.775	feeling_mouse_trajectory	1062	539	Self-sacrifice for kin	city	Audio	n/a
458.301	1.973	rating_expectation	1035	560	Self-sacrifice for kin	city	Audio	n/a
459.051	1.223	expectation_mouse_trajectory	1035	560	Self-sacrifice for kin	city	Audio	n/a
467.357	5.28	narrative_presentation	n/a	n/a	Falling prey to misfortune	city	Audio	task-narratives/Narrative6Situation8.mp3
472.638	3.8	rating_feeling	1062	539	Falling prey to misfortune	city	Audio	n/a
473.821	2.617	feeling_mouse_trajectory	1062	539	Falling prey to misfortune	city	Audio	n/a
476.657	1.45	rating_expectation	1035	560	Falling prey to misfortune	city	Audio	n/a
476.891	1.217	expectation_mouse_trajectory	1035	560	Falling prey to misfortune	city	Audio	n/a
484.713	9.314	narrative_presentation	n/a	n/a	Madness	city	Audio	task-narratives/Narrative6Situation9.mp3
494.027	1.61	rating_feeling	1062	539	Madness	city	Audio	n/a
494.594	1.043	feeling_mouse_trajectory	1062	539	Madness	city	Audio	n/a
498.049	1.592	rating_expectation	1035	560	Madness	city	Audio	n/a
498.515	1.125	expectation_mouse_trajectory	1035	560	Madness	city	Audio	n/a
