onset	duration	trial_type	response_x	response_y	situation	context	modality	stim_file
7.831	15.329	narrative_presentation	n/a	n/a	Necessity of sacrificing loved ones	town	Audio	task-narratives/Narrative8Situation1.mp3
23.16	3.333	rating_feeling	789	554	Necessity of sacrificing loved ones	town	Audio	n/a
24.126	2.367	feeling_mouse_trajectory	789	554	Necessity of sacrificing loved ones	town	Audio	n/a
27.219	0.067	rating_expectation	960	707	Necessity of sacrificing loved ones	town	Audio	n/a
27.319	-0.033	expectation_mouse_trajectory	960	707	Necessity of sacrificing loved ones	town	Audio	n/a
34.408	8.777	narrative_presentation	n/a	n/a	Abduction	town	Audio	task-narratives/Narrative8Situation2.mp3
43.184	3.969	rating_feeling	743	511	Abduction	town	Audio	n/a
44.051	3.102	feeling_mouse_trajectory	743	511	Abduction	town	Audio	n/a
47.227	3.635	rating_expectation	611	458	Abduction	town	Audio	n/a
48.277	2.585	expectation_mouse_trajectory	611	458	Abduction	town	Audio	n/a
55.299	22.15	narrative_presentation	n/a	n/a	Adultery	town	Audio	task-narratives/Narrative8Situation3.mp3
77.449	3.633	rating_feeling	948	582	Adultery	town	Audio	n/a
77.999	3.083	feeling_mouse_trajectory	948	582	Adultery	town	Audio	n/a
81.492	0.067	rating_expectation	960	707	Adultery	town	Audio	n/a
81.575	-0.016	expectation_mouse_trajectory	960	707	Adultery	town	Audio	n/a
88.563	12.617	narrative_presentation	n/a	n/a	Obtaining	city	Audio	task-narratives/Narrative8Situation4.mp3
101.179	3.705	rating_feeling	776	476	Obtaining	city	Audio	n/a
102.179	2.705	feeling_mouse_trajectory	776	476	Obtaining	city	Audio	n/a
105.202	3.6	rating_expectation	972	336	Obtaining	city	Audio	n/a
106.086	2.717	expectation_mouse_trajectory	972	336	Obtaining	city	Audio	n/a
111.293	6.627	narrative_presentation	n/a	n/a	Supplication	city	Audio	task-narratives/Narrative8Situation5.mp3
117.92	3.785	rating_feeling	867	510	Supplication	city	Audio	n/a
118.737	2.968	feeling_mouse_trajectory	867	510	Supplication	city	Audio	n/a
121.959	2.818	rating_expectation	850	454	Supplication	city	Audio	n/a
122.676	2.101	expectation_mouse_trajectory	850	454	Supplication	city	Audio	n/a
128.061	5.983	narrative_presentation	n/a	n/a	Rivalry of kin	city	Audio	task-narratives/Narrative8Situation6.mp3
134.044	3.192	rating_feeling	1035	546	Rivalry of kin	city	Audio	n/a
134.894	2.342	feeling_mouse_trajectory	1035	546	Rivalry of kin	city	Audio	n/a
138.08	2.424	rating_expectation	834	557	Rivalry of kin	city	Audio	n/a
138.663	1.841	expectation_mouse_trajectory	834	557	Rivalry of kin	city	Audio	n/a
145.151	10.775	narrative_presentation	n/a	n/a	Recovery of a lost one	beach	Audio	task-narratives/Narrative8Situation7.mp3
155.926	3.318	rating_feeling	618	409	Recovery of a lost one	beach	Audio	n/a
156.793	2.452	feeling_mouse_trajectory	618	409	Recovery of a lost one	beach	Audio	n/a
159.955	2.701	rating_expectation	693	522	Recovery of a lost one	beach	Audio	n/a
161.105	1.551	expectation_mouse_trajectory	693	522	Recovery of a lost one	beach	Audio	n/a
167.01	11.276	narrative_presentation	n/a	n/a	Rivalry of superior versus inferior	beach	Audio	task-narratives/Narrative8Situation8.mp3
178.286	2.943	rating_feeling	712	521	Rivalry of superior versus inferior	beach	Audio	n/a
179.186	2.043	feeling_mouse_trajectory	712	521	Rivalry of superior versus inferior	beach	Audio	n/a
182.314	2.874	rating_expectation	597	415	Rivalry of superior versus inferior	beach	Audio	n/a
182.797	2.391	expectation_mouse_trajectory	597	415	Rivalry of superior versus inferior	beach	Audio	n/a
189.386	10.111	narrative_presentation	n/a	n/a	Slaying of kin unrecognized	beach	Audio	task-narratives/Narrative8Situation9.mp3
199.497	3.867	rating_feeling	1013	432	Slaying of kin unrecognized	beach	Audio	n/a
199.88	3.483	feeling_mouse_trajectory	1013	432	Slaying of kin unrecognized	beach	Audio	n/a
203.522	2.767	rating_expectation	876	520	Slaying of kin unrecognized	beach	Audio	n/a
203.555	2.733	expectation_mouse_trajectory	876	520	Slaying of kin unrecognized	beach	Audio	n/a
209.594	54.28	narrative_presentation	n/a	n/a	Deliverance	prison	Audio	task-narratives/Narrative7Situation1.mp3
263.874	2.701	rating_feeling	697	497	Deliverance	prison	Audio	n/a
264.191	2.385	feeling_mouse_trajectory	697	497	Deliverance	prison	Audio	n/a
267.907	2.985	rating_expectation	704	517	Deliverance	prison	Audio	n/a
269.257	1.635	expectation_mouse_trajectory	704	517	Deliverance	prison	Audio	n/a
274.971	5.941	narrative_presentation	n/a	n/a	Adultery	prison	Audio	task-narratives/Narrative7Situation2.mp3
280.912	2.004	rating_feeling	804	595	Adultery	prison	Audio	n/a
281.829	1.088	feeling_mouse_trajectory	804	595	Adultery	prison	Audio	n/a
284.941	2.919	rating_expectation	882	612	Adultery	prison	Audio	n/a
285.291	2.569	expectation_mouse_trajectory	882	612	Adultery	prison	Audio	n/a
296.997	7.441	narrative_presentation	n/a	n/a	Pursuit	prison	Audio	task-narratives/Narrative7Situation3.mp3
304.438	3.035	rating_feeling	780	594	Pursuit	prison	Audio	n/a
305.771	1.701	feeling_mouse_trajectory	780	594	Pursuit	prison	Audio	n/a
308.465	3.433	rating_expectation	1026	620	Pursuit	prison	Audio	n/a
309.298	2.6	expectation_mouse_trajectory	1026	620	Pursuit	prison	Audio	n/a
315.536	11.482	narrative_presentation	n/a	n/a	Conflict with a god	park	Audio	task-narratives/Narrative7Situation4.mp3
327.018	3.92	rating_feeling	1030	531	Conflict with a god	park	Audio	n/a
327.585	3.354	feeling_mouse_trajectory	1030	531	Conflict with a god	park	Audio	n/a
331.042	2.169	rating_expectation	1077	648	Conflict with a god	park	Audio	n/a
331.859	1.352	expectation_mouse_trajectory	1077	648	Conflict with a god	park	Audio	n/a
340.096	7.978	narrative_presentation	n/a	n/a	Recovery of a lost one	park	Audio	task-narratives/Narrative7Situation5.mp3
348.074	3.968	rating_feeling	1264	533	Recovery of a lost one	park	Audio	n/a
348.507	3.535	feeling_mouse_trajectory	1264	533	Recovery of a lost one	park	Audio	n/a
352.098	0.027	rating_expectation	960	707	Recovery of a lost one	park	Audio	n/a
352.148	-0.023	expectation_mouse_trajectory	960	707	Recovery of a lost one	park	Audio	n/a
359.154	8.786	narrative_presentation	n/a	n/a	Supplication	park	Audio	task-narratives/Narrative7Situation6.mp3
367.94	3.038	rating_feeling	1160	606	Supplication	park	Audio	n/a
369.19	1.788	feeling_mouse_trajectory	1160	606	Supplication	park	Audio	n/a
371.977	2.237	rating_expectation	1103	560	Supplication	park	Audio	n/a
372.577	1.637	expectation_mouse_trajectory	1103	560	Supplication	park	Audio	n/a
381.046	16.649	narrative_presentation	n/a	n/a	Involuntary crimes of love	hospital	Audio	task-narratives/Narrative7Situation7.mp3
397.695	2.968	rating_feeling	973	562	Involuntary crimes of love	hospital	Audio	n/a
398.345	2.318	feeling_mouse_trajectory	973	562	Involuntary crimes of love	hospital	Audio	n/a
401.718	1.609	rating_expectation	742	510	Involuntary crimes of love	hospital	Audio	n/a
402.018	1.309	expectation_mouse_trajectory	742	510	Involuntary crimes of love	hospital	Audio	n/a
407.79	8.789	narrative_presentation	n/a	n/a	An enemy loved	hospital	Audio	task-narratives/Narrative7Situation8.mp3
416.579	2.104	rating_feeling	824	554	An enemy loved	hospital	Audio	n/a
417.513	1.17	feeling_mouse_trajectory	824	554	An enemy loved	hospital	Audio	n/a
420.612	1.985	rating_expectation	813	568	An enemy loved	hospital	Audio	n/a
421.095	1.502	expectation_mouse_trajectory	813	568	An enemy loved	hospital	Audio	n/a
426.665	7.979	narrative_presentation	n/a	n/a	Ambition	hospital	Audio	task-narratives/Narrative7Situation9.mp3
434.644	3.883	rating_feeling	1059	588	Ambition	hospital	Audio	n/a
435.677	2.85	feeling_mouse_trajectory	1059	588	Ambition	hospital	Audio	n/a
438.667	2.8	rating_expectation	1114	646	Ambition	hospital	Audio	n/a
439.567	1.9	expectation_mouse_trajectory	1114	646	Ambition	hospital	Audio	n/a
