onset	duration	run_type	trial_type	trial_index	cue	stimulusintensity	rating_value	rating_glmslabel	rating_value_fillna	rating_glmslabel_fillna	rating_mouseonset	rating_mousedur	stim_file	pain_onset_ttl1	pain_onset_ttl2	pain_onset_ttl3	pain_onset_ttl4	pain_stimulus_delivery_success	cognitive_correct_response	cognitive_participant_response	cognitive_response_accuracy
10.99	0.99	cognitive	cue	1	low_cue	n/a	n/a	n/a	n/a	n/a	n/a	n/a	task-social/cue/runtype-cognitive/scl/l053.png	n/a	n/a	n/a	n/a	n/a	n/a	n/a	n/a
14.34	3.94	cognitive	expectrating	1	low_cue	n/a	15.4	Moderate	15.4	Moderate	0.57	3.37	task-social/cue/runtype-cognitive/scl/l053.png	n/a	n/a	n/a	n/a	n/a	n/a	n/a	n/a
32.5	5.0	cognitive	stimulus	1	low_cue	med_stim	n/a	n/a	n/a	n/a	n/a	n/a	task-social/stim/runtype-cognitive/43_100.jpg	n/a	n/a	n/a	n/a	n/a	same	n/a	False
45.3	2.07	cognitive	outcomerating	1	low_cue	med_stim	27.08	Moderate	27.08	Moderate	0.57	3.37	task-social/outcomerating/task-cognitive_scale.png	n/a	n/a	n/a	n/a	n/a	n/a	n/a	n/a
51.51	0.98	cognitive	cue	2	low_cue	n/a	n/a	n/a	n/a	n/a	n/a	n/a	task-social/cue/runtype-cognitive/scl/l037.png	n/a	n/a	n/a	n/a	n/a	n/a	n/a	n/a
53.71	1.58	cognitive	expectrating	2	low_cue	n/a	14.87	Moderate	14.87	Moderate	0.37	1.22	task-social/cue/runtype-cognitive/scl/l037.png	n/a	n/a	n/a	n/a	n/a	n/a	n/a	n/a
62.39	5.0	cognitive	stimulus	2	low_cue	high_stim	n/a	n/a	n/a	n/a	n/a	n/a	task-social/stim/runtype-cognitive/18_150.jpg	n/a	n/a	n/a	n/a	n/a	same	same	True
75.2	1.67	cognitive	outcomerating	2	low_cue	high_stim	46.96	Strong	46.96	Strong	0.37	1.22	task-social/outcomerating/task-cognitive_scale.png	n/a	n/a	n/a	n/a	n/a	n/a	n/a	n/a
83.0	0.99	cognitive	cue	3	high_cue	n/a	n/a	n/a	n/a	n/a	n/a	n/a	task-social/cue/runtype-cognitive/sch/h015.png	n/a	n/a	n/a	n/a	n/a	n/a	n/a	n/a
85.82	2.67	cognitive	expectrating	3	high_cue	n/a	48.08	Strong	48.08	Strong	0.57	2.1	task-social/cue/runtype-cognitive/sch/h015.png	n/a	n/a	n/a	n/a	n/a	n/a	n/a	n/a
92.5	5.0	cognitive	stimulus	3	high_cue	low_stim	n/a	n/a	n/a	n/a	n/a	n/a	task-social/stim/runtype-cognitive/35_50.jpg	n/a	n/a	n/a	n/a	n/a	same	diff	False
100.4	3.94	cognitive	outcomerating	3	high_cue	low_stim	26.14	Moderate	26.14	Moderate	0.57	2.1	task-social/outcomerating/task-cognitive_scale.png	n/a	n/a	n/a	n/a	n/a	n/a	n/a	n/a
117.19	0.99	cognitive	cue	4	high_cue	n/a	n/a	n/a	n/a	n/a	n/a	n/a	task-social/cue/runtype-cognitive/sch/h050.png	n/a	n/a	n/a	n/a	n/a	n/a	n/a	n/a
119.29	1.7	cognitive	expectrating	4	high_cue	n/a	17.61	Moderate	17.61	Moderate	0.77	0.94	task-social/cue/runtype-cognitive/sch/h050.png	n/a	n/a	n/a	n/a	n/a	n/a	n/a	n/a
132.8	5.0	cognitive	stimulus	4	high_cue	med_stim	n/a	n/a	n/a	n/a	n/a	n/a	task-social/stim/runtype-cognitive/5_100.jpg	n/a	n/a	n/a	n/a	n/a	same	diff	False
145.6	n/a	cognitive	outcomerating	4	high_cue	med_stim	n/a	n/a	n/a	n/a	0.77	0.94	task-social/outcomerating/task-cognitive_scale.png	n/a	n/a	n/a	n/a	n/a	n/a	n/a	n/a
150.51	0.98	cognitive	cue	5	high_cue	n/a	n/a	n/a	n/a	n/a	n/a	n/a	task-social/cue/runtype-cognitive/sch/h009.png	n/a	n/a	n/a	n/a	n/a	n/a	n/a	n/a
152.71	1.19	cognitive	expectrating	5	high_cue	n/a	16.36	Moderate	16.36	Moderate	0.42	0.77	task-social/cue/runtype-cognitive/sch/h009.png	n/a	n/a	n/a	n/a	n/a	n/a	n/a	n/a
170.91	5.0	cognitive	stimulus	5	high_cue	high_stim	n/a	n/a	n/a	n/a	n/a	n/a	task-social/stim/runtype-cognitive/11_150_R.jpg	n/a	n/a	n/a	n/a	n/a	diff	diff	True
179.6	1.9	cognitive	outcomerating	5	high_cue	high_stim	12.73	Moderate	12.73	Moderate	0.42	0.77	task-social/outcomerating/task-cognitive_scale.png	n/a	n/a	n/a	n/a	n/a	n/a	n/a	n/a
185.1	0.98	cognitive	cue	6	low_cue	n/a	n/a	n/a	n/a	n/a	n/a	n/a	task-social/cue/runtype-cognitive/scl/l012.png	n/a	n/a	n/a	n/a	n/a	n/a	n/a	n/a
187.1	2.3	cognitive	expectrating	6	low_cue	n/a	0.0	n/a	0.0	n/a	0.9	1.4	task-social/cue/runtype-cognitive/scl/l012.png	n/a	n/a	n/a	n/a	n/a	n/a	n/a	n/a
195.6	5.0	cognitive	stimulus	6	low_cue	high_stim	n/a	n/a	n/a	n/a	n/a	n/a	task-social/stim/runtype-cognitive/29_150_R.jpg	n/a	n/a	n/a	n/a	n/a	diff	same	False
204.31	n/a	cognitive	outcomerating	6	low_cue	high_stim	n/a	n/a	n/a	n/a	0.9	1.4	task-social/outcomerating/task-cognitive_scale.png	n/a	n/a	n/a	n/a	n/a	n/a	n/a	n/a
213.19	0.99	cognitive	cue	7	low_cue	n/a	n/a	n/a	n/a	n/a	n/a	n/a	task-social/cue/runtype-cognitive/scl/l046.png	n/a	n/a	n/a	n/a	n/a	n/a	n/a	n/a
216.49	2.47	cognitive	expectrating	7	low_cue	n/a	12.53	Moderate	12.53	Moderate	1.92	0.55	task-social/cue/runtype-cognitive/scl/l046.png	n/a	n/a	n/a	n/a	n/a	n/a	n/a	n/a
225.0	5.0	cognitive	stimulus	7	low_cue	low_stim	n/a	n/a	n/a	n/a	n/a	n/a	task-social/stim/runtype-cognitive/44_50_R.jpg	n/a	n/a	n/a	n/a	n/a	diff	diff	True
238.1	2.26	cognitive	outcomerating	7	low_cue	low_stim	7.18	Weak	7.18	Weak	1.92	0.55	task-social/outcomerating/task-cognitive_scale.png	n/a	n/a	n/a	n/a	n/a	n/a	n/a	n/a
244.3	0.98	cognitive	cue	8	high_cue	n/a	n/a	n/a	n/a	n/a	n/a	n/a	task-social/cue/runtype-cognitive/sch/h032.png	n/a	n/a	n/a	n/a	n/a	n/a	n/a	n/a
247.3	3.4	cognitive	expectrating	8	high_cue	n/a	8.73	Weak	8.73	Weak	1.43	1.97	task-social/cue/runtype-cognitive/sch/h032.png	n/a	n/a	n/a	n/a	n/a	n/a	n/a	n/a
254.01	5.0	cognitive	stimulus	8	high_cue	high_stim	n/a	n/a	n/a	n/a	n/a	n/a	task-social/stim/runtype-cognitive/47_150_R.jpg	n/a	n/a	n/a	n/a	n/a	diff	n/a	False
262.99	1.92	cognitive	outcomerating	8	high_cue	high_stim	19.39	Moderate	19.39	Moderate	1.43	1.97	task-social/outcomerating/task-cognitive_scale.png	n/a	n/a	n/a	n/a	n/a	n/a	n/a	n/a
270.4	0.99	cognitive	cue	9	high_cue	n/a	n/a	n/a	n/a	n/a	n/a	n/a	task-social/cue/runtype-cognitive/sch/h011.png	n/a	n/a	n/a	n/a	n/a	n/a	n/a	n/a
272.4	2.52	cognitive	expectrating	9	high_cue	n/a	15.95	Moderate	15.95	Moderate	1.23	1.28	task-social/cue/runtype-cognitive/sch/h011.png	n/a	n/a	n/a	n/a	n/a	n/a	n/a	n/a
281.7	5.0	cognitive	stimulus	9	high_cue	low_stim	n/a	n/a	n/a	n/a	n/a	n/a	task-social/stim/runtype-cognitive/44_50.jpg	n/a	n/a	n/a	n/a	n/a	same	same	True
298.6	n/a	cognitive	outcomerating	9	high_cue	low_stim	n/a	n/a	17.27	Moderate	1.23	1.28	task-social/outcomerating/task-cognitive_scale.png	n/a	n/a	n/a	n/a	n/a	n/a	n/a	n/a
304.09	0.99	cognitive	cue	10	low_cue	n/a	n/a	n/a	n/a	n/a	n/a	n/a	task-social/cue/runtype-cognitive/scl/l050.png	n/a	n/a	n/a	n/a	n/a	n/a	n/a	n/a
306.31	2.88	cognitive	expectrating	10	low_cue	n/a	0.7	No-sensation	0.7	No-sensation	1.38	1.5	task-social/cue/runtype-cognitive/scl/l050.png	n/a	n/a	n/a	n/a	n/a	n/a	n/a	n/a
313.59	5.0	cognitive	stimulus	10	low_cue	med_stim	n/a	n/a	n/a	n/a	n/a	n/a	task-social/stim/runtype-cognitive/44_100_R.jpg	n/a	n/a	n/a	n/a	n/a	diff	diff	True
329.8	2.49	cognitive	outcomerating	10	low_cue	med_stim	0.0	n/a	0.0	n/a	1.38	1.5	task-social/outcomerating/task-cognitive_scale.png	n/a	n/a	n/a	n/a	n/a	n/a	n/a	n/a
338.1	0.98	cognitive	cue	11	low_cue	n/a	n/a	n/a	n/a	n/a	n/a	n/a	task-social/cue/runtype-cognitive/scl/l021.png	n/a	n/a	n/a	n/a	n/a	n/a	n/a	n/a
340.3	1.2	cognitive	expectrating	11	low_cue	n/a	7.9	Weak	7.9	Weak	0.58	0.62	task-social/cue/runtype-cognitive/scl/l021.png	n/a	n/a	n/a	n/a	n/a	n/a	n/a	n/a
352.21	5.0	cognitive	stimulus	11	low_cue	low_stim	n/a	n/a	n/a	n/a	n/a	n/a	task-social/stim/runtype-cognitive/29_50_R.jpg	n/a	n/a	n/a	n/a	n/a	diff	diff	True
363.89	3.1	cognitive	outcomerating	11	low_cue	low_stim	11.4	Moderate	11.4	Moderate	0.58	0.62	task-social/outcomerating/task-cognitive_scale.png	n/a	n/a	n/a	n/a	n/a	n/a	n/a	n/a
376.1	0.99	cognitive	cue	12	high_cue	n/a	n/a	n/a	n/a	n/a	n/a	n/a	task-social/cue/runtype-cognitive/sch/h017.png	n/a	n/a	n/a	n/a	n/a	n/a	n/a	n/a
378.9	1.51	cognitive	expectrating	12	high_cue	n/a	12.58	Moderate	12.58	Moderate	0.05	1.46	task-social/cue/runtype-cognitive/sch/h017.png	n/a	n/a	n/a	n/a	n/a	n/a	n/a	n/a
387.4	5.0	cognitive	stimulus	12	high_cue	med_stim	n/a	n/a	n/a	n/a	n/a	n/a	task-social/stim/runtype-cognitive/42_100.jpg	n/a	n/a	n/a	n/a	n/a	same	same	True
395.0	3.27	cognitive	outcomerating	12	high_cue	med_stim	3.01	Weak	3.01	Weak	0.05	1.46	task-social/outcomerating/task-cognitive_scale.png	n/a	n/a	n/a	n/a	n/a	n/a	n/a	n/a
