onset	duration	trial_type	response_x	response_y	situation	context	modality	stim_file
4.844	22.446	narrative_presentation	n/a	n/a	Slaying of kin unrecognized	town	Text	task-narratives/Narrative4Situation1.txt
27.291	1.567	rating_feeling	851	519	Slaying of kin unrecognized	town	Text	task-narratives/Narrative4Situation1.txt
28.207	0.651	feeling_mouse_trajectory	851	519	Slaying of kin unrecognized	town	Text	task-narratives/Narrative4Situation1.txt
31.357	1.467	rating_expectation	774	404	Slaying of kin unrecognized	town	Text	task-narratives/Narrative4Situation1.txt
31.874	0.951	expectation_mouse_trajectory	774	404	Slaying of kin unrecognized	town	Text	task-narratives/Narrative4Situation1.txt
40.424	24.815	narrative_presentation	n/a	n/a	Adultery	swamp	Text	task-narratives/Narrative4Situation2.txt
65.24	2.235	rating_feeling	851	519	Adultery	swamp	Text	task-narratives/Narrative4Situation2.txt
65.84	1.635	feeling_mouse_trajectory	851	519	Adultery	swamp	Text	task-narratives/Narrative4Situation2.txt
69.255	1.151	rating_expectation	774	404	Adultery	swamp	Text	task-narratives/Narrative4Situation2.txt
69.688	0.717	expectation_mouse_trajectory	774	404	Adultery	swamp	Text	task-narratives/Narrative4Situation2.txt
75.321	21.112	narrative_presentation	n/a	n/a	Revolt	town	Text	task-narratives/Narrative4Situation3.txt
96.432	1.734	rating_feeling	851	519	Revolt	town	Text	task-narratives/Narrative4Situation3.txt
97.016	1.151	feeling_mouse_trajectory	851	519	Revolt	town	Text	task-narratives/Narrative4Situation3.txt
100.449	1.622	rating_expectation	774	404	Revolt	town	Text	task-narratives/Narrative4Situation3.txt
100.866	1.206	expectation_mouse_trajectory	774	404	Revolt	town	Text	task-narratives/Narrative4Situation3.txt
105.515	21.112	narrative_presentation	n/a	n/a	Fatal imprudence	hospital	Text	task-narratives/Narrative4Situation4.txt
126.627	1.668	rating_feeling	851	519	Fatal imprudence	hospital	Text	task-narratives/Narrative4Situation4.txt
127.344	0.951	feeling_mouse_trajectory	851	519	Fatal imprudence	hospital	Text	task-narratives/Narrative4Situation4.txt
130.644	1.668	rating_expectation	774	404	Fatal imprudence	hospital	Text	task-narratives/Narrative4Situation4.txt
131.127	1.184	expectation_mouse_trajectory	774	404	Fatal imprudence	hospital	Text	task-narratives/Narrative4Situation4.txt
135.727	25.8	narrative_presentation	n/a	n/a	Deliverance	city	Text	task-narratives/Narrative4Situation5.txt
161.527	2.301	rating_feeling	851	519	Deliverance	city	Text	task-narratives/Narrative4Situation5.txt
162.693	1.134	feeling_mouse_trajectory	851	519	Deliverance	city	Text	task-narratives/Narrative4Situation5.txt
165.541	1.484	rating_expectation	774	404	Deliverance	city	Text	task-narratives/Narrative4Situation5.txt
166.074	0.951	expectation_mouse_trajectory	774	404	Deliverance	city	Text	task-narratives/Narrative4Situation5.txt
170.623	23.444	narrative_presentation	n/a	n/a	Necessity of sacrificing loved ones	hospital	Text	task-narratives/Narrative4Situation6.txt
194.067	1.171	rating_feeling	851	519	Necessity of sacrificing loved ones	hospital	Text	task-narratives/Narrative4Situation6.txt
194.534	0.704	feeling_mouse_trajectory	851	519	Necessity of sacrificing loved ones	hospital	Text	task-narratives/Narrative4Situation6.txt
198.087	1.102	rating_expectation	774	404	Necessity of sacrificing loved ones	hospital	Text	task-narratives/Narrative4Situation6.txt
198.537	0.652	expectation_mouse_trajectory	774	404	Necessity of sacrificing loved ones	hospital	Text	task-narratives/Narrative4Situation6.txt
203.152	19.093	narrative_presentation	n/a	n/a	Loss of loved one	forest	Text	task-narratives/Narrative4Situation7.txt
222.245	2.334	rating_feeling	851	519	Loss of loved one	forest	Text	task-narratives/Narrative4Situation7.txt
222.678	1.901	feeling_mouse_trajectory	851	519	Loss of loved one	forest	Text	task-narratives/Narrative4Situation7.txt
226.262	1.542	rating_expectation	774	404	Loss of loved one	forest	Text	task-narratives/Narrative4Situation7.txt
226.479	1.325	expectation_mouse_trajectory	774	404	Loss of loved one	forest	Text	task-narratives/Narrative4Situation7.txt
231.346	38.534	narrative_presentation	n/a	n/a	Crimes of love	prison	Text	task-narratives/Narrative4Situation8.txt
269.879	2.059	rating_feeling	851	519	Crimes of love	prison	Text	task-narratives/Narrative4Situation8.txt
270.429	1.509	feeling_mouse_trajectory	851	519	Crimes of love	prison	Text	task-narratives/Narrative4Situation8.txt
273.897	1.791	rating_expectation	774	404	Crimes of love	prison	Text	task-narratives/Narrative4Situation8.txt
274.547	1.141	expectation_mouse_trajectory	774	404	Crimes of love	prison	Text	task-narratives/Narrative4Situation8.txt
282.982	12.391	narrative_presentation	n/a	n/a	Discovery of dishonour of loved one	forest	Text	task-narratives/Narrative4Situation9.txt
295.373	1.651	rating_feeling	851	519	Discovery of dishonour of loved one	forest	Text	task-narratives/Narrative4Situation9.txt
295.856	1.167	feeling_mouse_trajectory	851	519	Discovery of dishonour of loved one	forest	Text	task-narratives/Narrative4Situation9.txt
299.39	2.134	rating_expectation	774	404	Discovery of dishonour of loved one	forest	Text	task-narratives/Narrative4Situation9.txt
300.54	0.984	expectation_mouse_trajectory	774	404	Discovery of dishonour of loved one	forest	Text	task-narratives/Narrative4Situation9.txt
309.458	32.165	narrative_presentation	n/a	n/a	Slaying of kin unrecognized	town	Text	task-narratives/Narrative3Situation1.txt
341.623	1.551	rating_feeling	851	519	Slaying of kin unrecognized	town	Text	task-narratives/Narrative3Situation1.txt
342.223	0.951	feeling_mouse_trajectory	851	519	Slaying of kin unrecognized	town	Text	task-narratives/Narrative3Situation1.txt
345.64	1.534	rating_expectation	774	404	Slaying of kin unrecognized	town	Text	task-narratives/Narrative3Situation1.txt
346.474	0.701	expectation_mouse_trajectory	774	404	Slaying of kin unrecognized	town	Text	task-narratives/Narrative3Situation1.txt
353.708	17.094	narrative_presentation	n/a	n/a	Adultery	swamp	Text	task-narratives/Narrative3Situation2.txt
370.802	2.241	rating_feeling	851	519	Adultery	swamp	Text	task-narratives/Narrative3Situation2.txt
371.752	1.291	feeling_mouse_trajectory	851	519	Adultery	swamp	Text	task-narratives/Narrative3Situation2.txt
374.821	2.037	rating_expectation	774	404	Adultery	swamp	Text	task-narratives/Narrative3Situation2.txt
375.888	0.97	expectation_mouse_trajectory	774	404	Adultery	swamp	Text	task-narratives/Narrative3Situation2.txt
380.885	10.391	narrative_presentation	n/a	n/a	Revolt	town	Text	task-narratives/Narrative3Situation3.txt
391.276	2.401	rating_feeling	851	519	Revolt	town	Text	task-narratives/Narrative3Situation3.txt
392.009	1.668	feeling_mouse_trajectory	851	519	Revolt	town	Text	task-narratives/Narrative3Situation3.txt
395.292	1.084	rating_expectation	774	404	Revolt	town	Text	task-narratives/Narrative3Situation3.txt
395.609	0.767	expectation_mouse_trajectory	774	404	Revolt	town	Text	task-narratives/Narrative3Situation3.txt
400.359	28.147	narrative_presentation	n/a	n/a	Fatal imprudence	hospital	Text	task-narratives/Narrative3Situation4.txt
428.506	1.434	rating_feeling	851	519	Fatal imprudence	hospital	Text	task-narratives/Narrative3Situation4.txt
429.406	0.534	feeling_mouse_trajectory	851	519	Fatal imprudence	hospital	Text	task-narratives/Narrative3Situation4.txt
432.523	1.101	rating_expectation	774	404	Fatal imprudence	hospital	Text	task-narratives/Narrative3Situation4.txt
432.889	0.734	expectation_mouse_trajectory	774	404	Fatal imprudence	hospital	Text	task-narratives/Narrative3Situation4.txt
439.59	15.076	narrative_presentation	n/a	n/a	Deliverance	city	Text	task-narratives/Narrative3Situation5.txt
454.666	1.54	rating_feeling	851	519	Deliverance	city	Text	task-narratives/Narrative3Situation5.txt
455.632	0.574	feeling_mouse_trajectory	851	519	Deliverance	city	Text	task-narratives/Narrative3Situation5.txt
458.682	0.955	rating_expectation	774	404	Deliverance	city	Text	task-narratives/Narrative3Situation5.txt
458.966	0.672	expectation_mouse_trajectory	774	404	Deliverance	city	Text	task-narratives/Narrative3Situation5.txt
465.766	15.075	narrative_presentation	n/a	n/a	Necessity of sacrificing loved ones	hospital	Text	task-narratives/Narrative3Situation6.txt
480.842	2.468	rating_feeling	851	519	Necessity of sacrificing loved ones	hospital	Text	task-narratives/Narrative3Situation6.txt
482.075	1.234	feeling_mouse_trajectory	851	519	Necessity of sacrificing loved ones	hospital	Text	task-narratives/Narrative3Situation6.txt
484.859	1.301	rating_expectation	774	404	Necessity of sacrificing loved ones	hospital	Text	task-narratives/Narrative3Situation6.txt
485.526	0.634	expectation_mouse_trajectory	774	404	Necessity of sacrificing loved ones	hospital	Text	task-narratives/Narrative3Situation6.txt
492.927	36.849	narrative_presentation	n/a	n/a	Loss of loved one	forest	Text	task-narratives/Narrative3Situation7.txt
529.775	0.967	rating_feeling	851	519	Loss of loved one	forest	Text	task-narratives/Narrative3Situation7.txt
529.809	0.934	feeling_mouse_trajectory	851	519	Loss of loved one	forest	Text	task-narratives/Narrative3Situation7.txt
533.794	0.917	rating_expectation	774	404	Loss of loved one	forest	Text	task-narratives/Narrative3Situation7.txt
534.144	0.567	expectation_mouse_trajectory	774	404	Loss of loved one	forest	Text	task-narratives/Narrative3Situation7.txt
539.861	9.706	narrative_presentation	n/a	n/a	Crimes of love	prison	Text	task-narratives/Narrative3Situation8.txt
549.567	2.105	rating_feeling	851	519	Crimes of love	prison	Text	task-narratives/Narrative3Situation8.txt
550.667	1.005	feeling_mouse_trajectory	851	519	Crimes of love	prison	Text	task-narratives/Narrative3Situation8.txt
553.588	1.155	rating_expectation	774	404	Crimes of love	prison	Text	task-narratives/Narrative3Situation8.txt
554.221	0.521	expectation_mouse_trajectory	774	404	Crimes of love	prison	Text	task-narratives/Narrative3Situation8.txt
558.651	27.482	narrative_presentation	n/a	n/a	Discovery of dishonour of loved one	forest	Text	task-narratives/Narrative3Situation9.txt
586.133	1.441	rating_feeling	851	519	Discovery of dishonour of loved one	forest	Text	task-narratives/Narrative3Situation9.txt
586.683	0.891	feeling_mouse_trajectory	851	519	Discovery of dishonour of loved one	forest	Text	task-narratives/Narrative3Situation9.txt
590.148	1.273	rating_expectation	774	404	Discovery of dishonour of loved one	forest	Text	task-narratives/Narrative3Situation9.txt
590.748	0.673	expectation_mouse_trajectory	774	404	Discovery of dishonour of loved one	forest	Text	task-narratives/Narrative3Situation9.txt
