onset	duration	trial_type	response_x	response_y	situation	context	modality	stim_file
7.827	15.285	narrative_presentation	n/a	n/a	Necessity-of-sacrificing-loved-ones	town	Audio	task-narratives/Narrative8Situation1.mp3
23.113	3.602	rating_feeling	854	505	Necessity-of-sacrificing-loved-ones	town	Audio	n/a
24.013	2.702	feeling_mouse_trajectory	854	505	Necessity-of-sacrificing-loved-ones	town	Audio	n/a
27.165	2.635	rating_expectation	846	438	Necessity-of-sacrificing-loved-ones	town	Audio	n/a
28.315	1.485	expectation_mouse_trajectory	846	438	Necessity-of-sacrificing-loved-ones	town	Audio	n/a
34.387	8.723	narrative_presentation	n/a	n/a	Abduction	town	Audio	task-narratives/Narrative8Situation2.mp3
43.11	2.011	rating_feeling	767	423	Abduction	town	Audio	n/a
43.577	1.544	feeling_mouse_trajectory	767	423	Abduction	town	Audio	n/a
47.139	1.559	rating_expectation	687	411	Abduction	town	Audio	n/a
47.639	1.059	expectation_mouse_trajectory	687	411	Abduction	town	Audio	n/a
55.228	22.099	narrative_presentation	n/a	n/a	Adultery	town	Audio	task-narratives/Narrative8Situation3.mp3
77.327	2.601	rating_feeling	962	385	Adultery	town	Audio	n/a
77.877	2.051	feeling_mouse_trajectory	962	385	Adultery	town	Audio	n/a
81.369	1.984	rating_expectation	1098	451	Adultery	town	Audio	n/a
81.836	1.518	expectation_mouse_trajectory	1098	451	Adultery	town	Audio	n/a
88.44	12.561	narrative_presentation	n/a	n/a	Obtaining	city	Audio	task-narratives/Narrative8Situation4.mp3
101.0	3.006	rating_feeling	907	415	Obtaining	city	Audio	n/a
101.784	2.223	feeling_mouse_trajectory	907	415	Obtaining	city	Audio	n/a
105.031	1.888	rating_expectation	1129	453	Obtaining	city	Audio	n/a
105.598	1.321	expectation_mouse_trajectory	1129	453	Obtaining	city	Audio	n/a
111.12	6.566	narrative_presentation	n/a	n/a	Supplication	city	Audio	task-narratives/Narrative8Situation5.mp3
117.686	1.651	rating_feeling	1132	467	Supplication	city	Audio	n/a
118.37	0.967	feeling_mouse_trajectory	1132	467	Supplication	city	Audio	n/a
121.719	1.918	rating_expectation	1186	426	Supplication	city	Audio	n/a
122.169	1.468	expectation_mouse_trajectory	1186	426	Supplication	city	Audio	n/a
127.804	5.926	narrative_presentation	n/a	n/a	Rivalry-of-kin	city	Audio	task-narratives/Narrative8Situation6.mp3
133.731	1.627	rating_feeling	1142	435	Rivalry-of-kin	city	Audio	n/a
134.147	1.21	feeling_mouse_trajectory	1142	435	Rivalry-of-kin	city	Audio	n/a
137.756	1.534	rating_expectation	1176	438	Rivalry-of-kin	city	Audio	n/a
138.023	1.267	expectation_mouse_trajectory	1176	438	Rivalry-of-kin	city	Audio	n/a
144.827	10.731	narrative_presentation	n/a	n/a	Recovery-of-a-lost-one	beach	Audio	task-narratives/Narrative8Situation7.mp3
155.559	1.802	rating_feeling	826	462	Recovery-of-a-lost-one	beach	Audio	n/a
156.075	1.286	feeling_mouse_trajectory	826	462	Recovery-of-a-lost-one	beach	Audio	n/a
159.597	1.951	rating_expectation	713	397	Recovery-of-a-lost-one	beach	Audio	n/a
160.314	1.234	expectation_mouse_trajectory	713	397	Recovery-of-a-lost-one	beach	Audio	n/a
166.652	11.228	narrative_presentation	n/a	n/a	Rivalry-of-superior-versus-inferior	beach	Audio	task-narratives/Narrative8Situation8.mp3
177.879	1.484	rating_feeling	756	443	Rivalry-of-superior-versus-inferior	beach	Audio	n/a
178.213	1.151	feeling_mouse_trajectory	756	443	Rivalry-of-superior-versus-inferior	beach	Audio	n/a
181.905	1.859	rating_expectation	730	453	Rivalry-of-superior-versus-inferior	beach	Audio	n/a
182.372	1.392	expectation_mouse_trajectory	730	453	Rivalry-of-superior-versus-inferior	beach	Audio	n/a
188.961	10.062	narrative_presentation	n/a	n/a	Slaying-of-kin-unrecognized	beach	Audio	task-narratives/Narrative8Situation9.mp3
199.023	1.536	rating_feeling	985	439	Slaying-of-kin-unrecognized	beach	Audio	n/a
199.456	1.103	feeling_mouse_trajectory	985	439	Slaying-of-kin-unrecognized	beach	Audio	n/a
203.047	1.818	rating_expectation	1147	401	Slaying-of-kin-unrecognized	beach	Audio	n/a
203.447	1.418	expectation_mouse_trajectory	1147	401	Slaying-of-kin-unrecognized	beach	Audio	n/a
209.118	54.227	narrative_presentation	n/a	n/a	Deliverance	prison	Audio	task-narratives/Narrative7Situation1.mp3
263.345	3.601	rating_feeling	919	359	Deliverance	prison	Audio	n/a
264.178	2.768	feeling_mouse_trajectory	919	359	Deliverance	prison	Audio	n/a
267.37	2.434	rating_expectation	711	429	Deliverance	prison	Audio	n/a
268.704	1.101	expectation_mouse_trajectory	711	429	Deliverance	prison	Audio	n/a
274.425	5.892	narrative_presentation	n/a	n/a	Adultery	prison	Audio	task-narratives/Narrative7Situation2.mp3
280.318	2.139	rating_feeling	1036	481	Adultery	prison	Audio	n/a
281.401	1.056	feeling_mouse_trajectory	1036	481	Adultery	prison	Audio	n/a
284.348	1.871	rating_expectation	928	383	Adultery	prison	Audio	n/a
284.381	1.838	expectation_mouse_trajectory	928	383	Adultery	prison	Audio	n/a
296.402	7.39	narrative_presentation	n/a	n/a	Pursuit	prison	Audio	task-narratives/Narrative7Situation3.mp3
303.792	2.484	rating_feeling	967	426	Pursuit	prison	Audio	n/a
304.742	1.534	feeling_mouse_trajectory	967	426	Pursuit	prison	Audio	n/a
307.819	1.751	rating_expectation	1125	516	Pursuit	prison	Audio	n/a
308.502	1.068	expectation_mouse_trajectory	1125	516	Pursuit	prison	Audio	n/a
314.891	11.432	narrative_presentation	n/a	n/a	Conflict-with-a-god	park	Audio	task-narratives/Narrative7Situation4.mp3
326.323	1.722	rating_feeling	1030	416	Conflict-with-a-god	park	Audio	n/a
326.589	1.455	feeling_mouse_trajectory	1030	416	Conflict-with-a-god	park	Audio	n/a
330.347	1.82	rating_expectation	1188	478	Conflict-with-a-god	park	Audio	n/a
330.381	1.787	expectation_mouse_trajectory	1188	478	Conflict-with-a-god	park	Audio	n/a
339.4	7.927	narrative_presentation	n/a	n/a	Recovery-of-a-lost-one	park	Audio	task-narratives/Narrative7Situation5.mp3
347.327	1.851	rating_feeling	979	467	Recovery-of-a-lost-one	park	Audio	n/a
348.094	1.084	feeling_mouse_trajectory	979	467	Recovery-of-a-lost-one	park	Audio	n/a
351.352	1.417	rating_expectation	874	438	Recovery-of-a-lost-one	park	Audio	n/a
351.752	1.017	expectation_mouse_trajectory	874	438	Recovery-of-a-lost-one	park	Audio	n/a
358.407	8.738	narrative_presentation	n/a	n/a	Supplication	park	Audio	task-narratives/Narrative7Situation6.mp3
367.145	1.64	rating_feeling	1081	457	Supplication	park	Audio	n/a
367.728	1.057	feeling_mouse_trajectory	1081	457	Supplication	park	Audio	n/a
371.18	1.555	rating_expectation	971	430	Supplication	park	Audio	n/a
371.547	1.189	expectation_mouse_trajectory	971	430	Supplication	park	Audio	n/a
380.25	16.596	narrative_presentation	n/a	n/a	Involuntary-crimes-of-love	hospital	Audio	task-narratives/Narrative7Situation7.mp3
396.846	2.651	rating_feeling	978	383	Involuntary-crimes-of-love	hospital	Audio	n/a
397.296	2.201	feeling_mouse_trajectory	978	383	Involuntary-crimes-of-love	hospital	Audio	n/a
400.87	1.251	rating_expectation	870	445	Involuntary-crimes-of-love	hospital	Audio	n/a
401.32	0.801	expectation_mouse_trajectory	870	445	Involuntary-crimes-of-love	hospital	Audio	n/a
406.925	8.729	narrative_presentation	n/a	n/a	An-enemy-loved	hospital	Audio	task-narratives/Narrative7Situation8.mp3
415.654	1.872	rating_feeling	872	445	An-enemy-loved	hospital	Audio	n/a
416.321	1.205	feeling_mouse_trajectory	872	445	An-enemy-loved	hospital	Audio	n/a
419.681	1.637	rating_expectation	751	381	An-enemy-loved	hospital	Audio	n/a
420.031	1.287	expectation_mouse_trajectory	751	381	An-enemy-loved	hospital	Audio	n/a
425.734	7.928	narrative_presentation	n/a	n/a	Ambition	hospital	Audio	task-narratives/Narrative7Situation9.mp3
433.661	1.801	rating_feeling	1076	476	Ambition	hospital	Audio	n/a
433.961	1.501	feeling_mouse_trajectory	1076	476	Ambition	hospital	Audio	n/a
437.684	1.634	rating_expectation	1167	331	Ambition	hospital	Audio	n/a
438.101	1.217	expectation_mouse_trajectory	1167	331	Ambition	hospital	Audio	n/a
