onset	duration	run_type	trial_type	trial_index	cue	stimulusintensity	rating_value	rating_glmslabel	rating_value_fillna	rating_glmslabel_fillna	rating_mouseonset	rating_mousedur	stim_file_TODO	pain_onset_ttl1	pain_onset_ttl2	pain_onset_ttl3	pain_onset_ttl4	pain_stimulus_delivery_success	cognitive_correct_response	cognitive_participant_response	cognitive_response_accuracy
11.29	0.99	cognitive	cue	1	high_cue	n/a	n/a	n/a	n/a	n/a	n/a	n/a	task-social/cue/runtype-cognitive/sch/h035.png	n/a	n/a	n/a	n/a	n/a	n/a	n/a	n/a
14.24	1.77	cognitive	expectrating	1	high_cue	n/a	19.54	Moderate	19.54	Moderate	0.1	1.67	task-social/cue/runtype-cognitive/sch/h035.png	n/a	n/a	n/a	n/a	n/a	n/a	n/a	n/a
21.31	5.0	cognitive	stimulus	1	high_cue	high_stim	n/a	n/a	n/a	n/a	n/a	n/a	task-social/stim/runtype-cognitive/14_150.jpg	n/a	n/a	n/a	n/a	n/a	same	same	True
32.7	3.14	cognitive	outcomerating	1	high_cue	high_stim	22.36	Moderate	22.36	Moderate	0.1	1.67	task-social/outcomerating/task-cognitive_scale.png	n/a	n/a	n/a	n/a	n/a	n/a	n/a	n/a
44.3	0.98	cognitive	cue	2	low_cue	n/a	n/a	n/a	n/a	n/a	n/a	n/a	task-social/cue/runtype-cognitive/scl/l047.png	n/a	n/a	n/a	n/a	n/a	n/a	n/a	n/a
47.2	1.82	cognitive	expectrating	2	low_cue	n/a	17.48	Moderate	17.48	Moderate	0.28	1.53	task-social/cue/runtype-cognitive/scl/l047.png	n/a	n/a	n/a	n/a	n/a	n/a	n/a	n/a
61.41	5.0	cognitive	stimulus	2	low_cue	high_stim	n/a	n/a	n/a	n/a	n/a	n/a	task-social/stim/runtype-cognitive/14_150_R.jpg	n/a	n/a	n/a	n/a	n/a	diff	diff	True
70.7	2.57	cognitive	outcomerating	2	low_cue	high_stim	22.66	Moderate	22.66	Moderate	0.28	1.53	task-social/outcomerating/task-cognitive_scale.png	n/a	n/a	n/a	n/a	n/a	n/a	n/a	n/a
80.7	0.98	cognitive	cue	3	high_cue	n/a	n/a	n/a	n/a	n/a	n/a	n/a	task-social/cue/runtype-cognitive/sch/h010.png	n/a	n/a	n/a	n/a	n/a	n/a	n/a	n/a
83.72	2.54	cognitive	expectrating	3	high_cue	n/a	21.63	Moderate	21.63	Moderate	0.32	2.22	task-social/cue/runtype-cognitive/sch/h010.png	n/a	n/a	n/a	n/a	n/a	n/a	n/a	n/a
92.0	5.0	cognitive	stimulus	3	high_cue	high_stim	n/a	n/a	n/a	n/a	n/a	n/a	task-social/stim/runtype-cognitive/35_150_R.jpg	n/a	n/a	n/a	n/a	n/a	diff	n/a	False
100.61	2.02	cognitive	outcomerating	3	high_cue	high_stim	42.89	Strong	42.89	Strong	0.32	2.22	task-social/outcomerating/task-cognitive_scale.png	n/a	n/a	n/a	n/a	n/a	n/a	n/a	n/a
105.59	0.99	cognitive	cue	4	low_cue	n/a	n/a	n/a	n/a	n/a	n/a	n/a	task-social/cue/runtype-cognitive/scl/l022.png	n/a	n/a	n/a	n/a	n/a	n/a	n/a	n/a
107.39	2.22	cognitive	expectrating	4	low_cue	n/a	10.72	Moderate	10.72	Moderate	0.85	1.37	task-social/cue/runtype-cognitive/scl/l022.png	n/a	n/a	n/a	n/a	n/a	n/a	n/a	n/a
114.5	5.0	cognitive	stimulus	4	low_cue	med_stim	n/a	n/a	n/a	n/a	n/a	n/a	task-social/stim/runtype-cognitive/26_100_R.jpg	n/a	n/a	n/a	n/a	n/a	diff	diff	True
126.1	1.8	cognitive	outcomerating	4	low_cue	med_stim	23.68	Moderate	23.68	Moderate	0.85	1.37	task-social/outcomerating/task-cognitive_scale.png	n/a	n/a	n/a	n/a	n/a	n/a	n/a	n/a
133.8	0.98	cognitive	cue	5	high_cue	n/a	n/a	n/a	n/a	n/a	n/a	n/a	task-social/cue/runtype-cognitive/sch/h049.png	n/a	n/a	n/a	n/a	n/a	n/a	n/a	n/a
135.6	1.68	cognitive	expectrating	5	high_cue	n/a	35.54	Strong	35.54	Strong	0.05	1.63	task-social/cue/runtype-cognitive/sch/h049.png	n/a	n/a	n/a	n/a	n/a	n/a	n/a	n/a
147.91	5.0	cognitive	stimulus	5	high_cue	low_stim	n/a	n/a	n/a	n/a	n/a	n/a	task-social/stim/runtype-cognitive/28_50.jpg	n/a	n/a	n/a	n/a	n/a	same	same	True
159.5	2.96	cognitive	outcomerating	5	high_cue	low_stim	26.05	Moderate	26.05	Moderate	0.05	1.63	task-social/outcomerating/task-cognitive_scale.png	n/a	n/a	n/a	n/a	n/a	n/a	n/a	n/a
169.5	0.98	cognitive	cue	6	high_cue	n/a	n/a	n/a	n/a	n/a	n/a	n/a	task-social/cue/runtype-cognitive/sch/h034.png	n/a	n/a	n/a	n/a	n/a	n/a	n/a	n/a
172.4	2.39	cognitive	expectrating	6	high_cue	n/a	10.14	Moderate	10.14	Moderate	0.05	2.34	task-social/cue/runtype-cognitive/sch/h034.png	n/a	n/a	n/a	n/a	n/a	n/a	n/a	n/a
186.91	5.0	cognitive	stimulus	6	high_cue	med_stim	n/a	n/a	n/a	n/a	n/a	n/a	task-social/stim/runtype-cognitive/22_100.jpg	n/a	n/a	n/a	n/a	n/a	same	same	True
196.69	2.32	cognitive	outcomerating	6	high_cue	med_stim	32.79	Strong	32.79	Strong	0.05	2.34	task-social/outcomerating/task-cognitive_scale.png	n/a	n/a	n/a	n/a	n/a	n/a	n/a	n/a
204.4	0.99	cognitive	cue	7	low_cue	n/a	n/a	n/a	n/a	n/a	n/a	n/a	task-social/cue/runtype-cognitive/scl/l030.png	n/a	n/a	n/a	n/a	n/a	n/a	n/a	n/a
207.3	2.04	cognitive	expectrating	7	low_cue	n/a	6.29	Weak	6.29	Weak	0.37	1.67	task-social/cue/runtype-cognitive/scl/l030.png	n/a	n/a	n/a	n/a	n/a	n/a	n/a	n/a
218.4	5.0	cognitive	stimulus	7	low_cue	high_stim	n/a	n/a	n/a	n/a	n/a	n/a	task-social/stim/runtype-cognitive/7_150.jpg	n/a	n/a	n/a	n/a	n/a	same	diff	False
228.4	2.52	cognitive	outcomerating	7	low_cue	high_stim	6.83	Weak	6.83	Weak	0.37	1.67	task-social/outcomerating/task-cognitive_scale.png	n/a	n/a	n/a	n/a	n/a	n/a	n/a	n/a
234.29	0.99	cognitive	cue	8	high_cue	n/a	n/a	n/a	n/a	n/a	n/a	n/a	task-social/cue/runtype-cognitive/sch/h045.png	n/a	n/a	n/a	n/a	n/a	n/a	n/a	n/a
236.21	2.0	cognitive	expectrating	8	high_cue	n/a	19.96	Moderate	19.96	Moderate	0.45	1.55	task-social/cue/runtype-cognitive/sch/h045.png	n/a	n/a	n/a	n/a	n/a	n/a	n/a	n/a
244.89	5.0	cognitive	stimulus	8	high_cue	low_stim	n/a	n/a	n/a	n/a	n/a	n/a	task-social/stim/runtype-cognitive/22_50.jpg	n/a	n/a	n/a	n/a	n/a	same	same	True
255.7	2.32	cognitive	outcomerating	8	high_cue	low_stim	7.13	Weak	7.13	Weak	0.45	1.55	task-social/outcomerating/task-cognitive_scale.png	n/a	n/a	n/a	n/a	n/a	n/a	n/a	n/a
266.7	0.98	cognitive	cue	9	low_cue	n/a	n/a	n/a	n/a	n/a	n/a	n/a	task-social/cue/runtype-cognitive/scl/l002.png	n/a	n/a	n/a	n/a	n/a	n/a	n/a	n/a
268.5	2.07	cognitive	expectrating	9	low_cue	n/a	16.61	Moderate	16.61	Moderate	0.75	1.32	task-social/cue/runtype-cognitive/scl/l002.png	n/a	n/a	n/a	n/a	n/a	n/a	n/a	n/a
280.79	5.0	cognitive	stimulus	9	low_cue	low_stim	n/a	n/a	n/a	n/a	n/a	n/a	task-social/stim/runtype-cognitive/44_50.jpg	n/a	n/a	n/a	n/a	n/a	same	same	True
288.99	1.61	cognitive	outcomerating	9	low_cue	low_stim	25.15	Moderate	25.15	Moderate	0.75	1.32	task-social/outcomerating/task-cognitive_scale.png	n/a	n/a	n/a	n/a	n/a	n/a	n/a	n/a
294.8	0.99	cognitive	cue	10	high_cue	n/a	n/a	n/a	n/a	n/a	n/a	n/a	task-social/cue/runtype-cognitive/sch/h008.png	n/a	n/a	n/a	n/a	n/a	n/a	n/a	n/a
297.3	2.04	cognitive	expectrating	10	high_cue	n/a	28.72	Moderate	28.72	Moderate	0.43	1.61	task-social/cue/runtype-cognitive/sch/h008.png	n/a	n/a	n/a	n/a	n/a	n/a	n/a	n/a
307.9	5.0	cognitive	stimulus	10	high_cue	med_stim	n/a	n/a	n/a	n/a	n/a	n/a	task-social/stim/runtype-cognitive/7_100_R.jpg	n/a	n/a	n/a	n/a	n/a	diff	diff	True
317.2	2.35	cognitive	outcomerating	10	high_cue	med_stim	13.41	Moderate	13.41	Moderate	0.43	1.61	task-social/outcomerating/task-cognitive_scale.png	n/a	n/a	n/a	n/a	n/a	n/a	n/a	n/a
327.09	0.99	cognitive	cue	11	low_cue	n/a	n/a	n/a	n/a	n/a	n/a	n/a	task-social/cue/runtype-cognitive/scl/l027.png	n/a	n/a	n/a	n/a	n/a	n/a	n/a	n/a
329.99	1.85	cognitive	expectrating	11	low_cue	n/a	12.8	Moderate	12.8	Moderate	0.07	1.78	task-social/cue/runtype-cognitive/scl/l027.png	n/a	n/a	n/a	n/a	n/a	n/a	n/a	n/a
342.9	5.0	cognitive	stimulus	11	low_cue	med_stim	n/a	n/a	n/a	n/a	n/a	n/a	task-social/stim/runtype-cognitive/19_100.jpg	n/a	n/a	n/a	n/a	n/a	same	same	True
361.5	2.65	cognitive	outcomerating	11	low_cue	med_stim	13.42	Moderate	13.42	Moderate	0.07	1.78	task-social/outcomerating/task-cognitive_scale.png	n/a	n/a	n/a	n/a	n/a	n/a	n/a	n/a
366.49	0.99	cognitive	cue	12	low_cue	n/a	n/a	n/a	n/a	n/a	n/a	n/a	task-social/cue/runtype-cognitive/scl/l014.png	n/a	n/a	n/a	n/a	n/a	n/a	n/a	n/a
369.41	2.43	cognitive	expectrating	12	low_cue	n/a	11.13	Moderate	11.13	Moderate	0.93	1.5	task-social/cue/runtype-cognitive/scl/l014.png	n/a	n/a	n/a	n/a	n/a	n/a	n/a	n/a
376.19	5.0	cognitive	stimulus	12	low_cue	low_stim	n/a	n/a	n/a	n/a	n/a	n/a	task-social/stim/runtype-cognitive/28_50_R.jpg	n/a	n/a	n/a	n/a	n/a	diff	diff	True
394.8	2.2	cognitive	outcomerating	12	low_cue	low_stim	10.14	Moderate	10.14	Moderate	0.93	1.5	task-social/outcomerating/task-cognitive_scale.png	n/a	n/a	n/a	n/a	n/a	n/a	n/a	n/a
