onset	duration	run_type	trial_type	trial_index	cue	stimulusintensity	rating_value	rating_glmslabel	rating_value_fillna	rating_glmslabel_fillna	rating_mouseonset	rating_mousedur	stim_file	pain_onset_ttl1	pain_onset_ttl2	pain_onset_ttl3	pain_onset_ttl4	pain_stimulus_delivery_success	cognitive_correct_response	cognitive_participant_response	cognitive_response_accuracy
5.0	0.99	vicarious	cue	1	high_cue	n/a	n/a	n/a	n/a	n/a	n/a	n/a	task-social/cue/runtype-vicarious/sch/h048.png	n/a	n/a	n/a	n/a	n/a	n/a	n/a	n/a
7.25	2.85	vicarious	expectrating	1	high_cue	n/a	33.37	Strong	33.37	Strong	0.47	2.38	task-social/cue/runtype-vicarious/sch/h048.png	n/a	n/a	n/a	n/a	n/a	n/a	n/a	n/a
19.19	5.0	vicarious	stimulus	1	high_cue	low_stim	n/a	n/a	n/a	n/a	n/a	n/a	task-social/stim/runtype-vicarious/ak064t1afunaff_L.mp4	n/a	n/a	n/a	n/a	n/a	n/a	n/a	n/a
27.41	2.35	vicarious	outcomerating	1	high_cue	low_stim	3.22	Weak	3.22	Weak	0.47	2.38	task-social/outcomerating/task-vicarious_scale.png	n/a	n/a	n/a	n/a	n/a	n/a	n/a	n/a
39.59	0.99	vicarious	cue	2	high_cue	n/a	n/a	n/a	n/a	n/a	n/a	n/a	task-social/cue/runtype-vicarious/sch/h028.png	n/a	n/a	n/a	n/a	n/a	n/a	n/a	n/a
42.81	2.4	vicarious	expectrating	2	high_cue	n/a	38.16	Strong	38.16	Strong	0.93	1.47	task-social/cue/runtype-vicarious/sch/h028.png	n/a	n/a	n/a	n/a	n/a	n/a	n/a	n/a
50.49	5.0	vicarious	stimulus	2	high_cue	low_stim	n/a	n/a	n/a	n/a	n/a	n/a	task-social/stim/runtype-vicarious/vw121t1aeaff_L.mp4	n/a	n/a	n/a	n/a	n/a	n/a	n/a	n/a
61.8	2.94	vicarious	outcomerating	2	high_cue	low_stim	6.93	Weak	6.93	Weak	0.93	1.47	task-social/outcomerating/task-vicarious_scale.png	n/a	n/a	n/a	n/a	n/a	n/a	n/a	n/a
72.51	0.98	vicarious	cue	3	high_cue	n/a	n/a	n/a	n/a	n/a	n/a	n/a	task-social/cue/runtype-vicarious/sch/h016.png	n/a	n/a	n/a	n/a	n/a	n/a	n/a	n/a
74.52	1.6	vicarious	expectrating	3	high_cue	n/a	50.73	Strong	50.73	Strong	0.43	1.17	task-social/cue/runtype-vicarious/sch/h016.png	n/a	n/a	n/a	n/a	n/a	n/a	n/a	n/a
82.19	5.0	vicarious	stimulus	3	high_cue	med_stim	n/a	n/a	n/a	n/a	n/a	n/a	task-social/stim/runtype-vicarious/jh123t2aaaff_M.mp4	n/a	n/a	n/a	n/a	n/a	n/a	n/a	n/a
93.11	2.05	vicarious	outcomerating	3	high_cue	med_stim	3.91	Weak	3.91	Weak	0.43	1.17	task-social/outcomerating/task-vicarious_scale.png	n/a	n/a	n/a	n/a	n/a	n/a	n/a	n/a
105.3	0.99	vicarious	cue	4	low_cue	n/a	n/a	n/a	n/a	n/a	n/a	n/a	task-social/cue/runtype-vicarious/scl/l031.png	n/a	n/a	n/a	n/a	n/a	n/a	n/a	n/a
107.3	2.82	vicarious	expectrating	4	low_cue	n/a	5.76	Weak	5.76	Weak	0.53	2.29	task-social/cue/runtype-vicarious/scl/l031.png	n/a	n/a	n/a	n/a	n/a	n/a	n/a	n/a
114.99	5.0	vicarious	stimulus	4	low_cue	med_stim	n/a	n/a	n/a	n/a	n/a	n/a	task-social/stim/runtype-vicarious/dn124t1aeunaff_M.mp4	n/a	n/a	n/a	n/a	n/a	n/a	n/a	n/a
123.21	1.92	vicarious	outcomerating	4	low_cue	med_stim	5.76	Weak	5.76	Weak	0.53	2.29	task-social/outcomerating/task-vicarious_scale.png	n/a	n/a	n/a	n/a	n/a	n/a	n/a	n/a
129.41	0.98	vicarious	cue	5	high_cue	n/a	n/a	n/a	n/a	n/a	n/a	n/a	task-social/cue/runtype-vicarious/sch/h035.png	n/a	n/a	n/a	n/a	n/a	n/a	n/a	n/a
133.31	1.97	vicarious	expectrating	5	high_cue	n/a	26.67	Moderate	26.67	Moderate	1.0	0.97	task-social/cue/runtype-vicarious/sch/h035.png	n/a	n/a	n/a	n/a	n/a	n/a	n/a	n/a
150.89	5.0	vicarious	stimulus	5	high_cue	high_stim	n/a	n/a	n/a	n/a	n/a	n/a	task-social/stim/runtype-vicarious/ch092t2aiaff_H.mp4	n/a	n/a	n/a	n/a	n/a	n/a	n/a	n/a
163.11	2.77	vicarious	outcomerating	5	high_cue	high_stim	24.41	Moderate	24.41	Moderate	1.0	0.97	task-social/outcomerating/task-vicarious_scale.png	n/a	n/a	n/a	n/a	n/a	n/a	n/a	n/a
167.89	1.0	vicarious	cue	6	low_cue	n/a	n/a	n/a	n/a	n/a	n/a	n/a	task-social/cue/runtype-vicarious/scl/l001.png	n/a	n/a	n/a	n/a	n/a	n/a	n/a	n/a
171.11	2.22	vicarious	expectrating	6	low_cue	n/a	2.99	Barely-detectable	2.99	Barely-detectable	0.45	1.77	task-social/cue/runtype-vicarious/scl/l001.png	n/a	n/a	n/a	n/a	n/a	n/a	n/a	n/a
182.29	5.0	vicarious	stimulus	6	low_cue	high_stim	n/a	n/a	n/a	n/a	n/a	n/a	task-social/stim/runtype-vicarious/dn124t1aiaff_H.mp4	n/a	n/a	n/a	n/a	n/a	n/a	n/a	n/a
191.1	2.32	vicarious	outcomerating	6	low_cue	high_stim	46.46	Strong	46.46	Strong	0.45	1.77	task-social/outcomerating/task-vicarious_scale.png	n/a	n/a	n/a	n/a	n/a	n/a	n/a	n/a
200.5	0.98	vicarious	cue	7	high_cue	n/a	n/a	n/a	n/a	n/a	n/a	n/a	task-social/cue/runtype-vicarious/sch/h023.png	n/a	n/a	n/a	n/a	n/a	n/a	n/a	n/a
202.5	2.02	vicarious	expectrating	7	high_cue	n/a	43.2	Strong	43.2	Strong	0.57	1.45	task-social/cue/runtype-vicarious/sch/h023.png	n/a	n/a	n/a	n/a	n/a	n/a	n/a	n/a
214.89	5.0	vicarious	stimulus	7	high_cue	high_stim	n/a	n/a	n/a	n/a	n/a	n/a	task-social/stim/runtype-vicarious/kz120t2aaaff_H.mp4	n/a	n/a	n/a	n/a	n/a	n/a	n/a	n/a
226.71	2.28	vicarious	outcomerating	7	high_cue	high_stim	26.98	Moderate	26.98	Moderate	0.57	1.45	task-social/outcomerating/task-vicarious_scale.png	n/a	n/a	n/a	n/a	n/a	n/a	n/a	n/a
237.0	0.99	vicarious	cue	8	high_cue	n/a	n/a	n/a	n/a	n/a	n/a	n/a	task-social/cue/runtype-vicarious/sch/h019.png	n/a	n/a	n/a	n/a	n/a	n/a	n/a	n/a
240.2	1.79	vicarious	expectrating	8	high_cue	n/a	41.92	Strong	41.92	Strong	0.38	1.4	task-social/cue/runtype-vicarious/sch/h019.png	n/a	n/a	n/a	n/a	n/a	n/a	n/a	n/a
251.39	5.0	vicarious	stimulus	8	high_cue	med_stim	n/a	n/a	n/a	n/a	n/a	n/a	task-social/stim/runtype-vicarious/ch092t2aaaff_M.mp4	n/a	n/a	n/a	n/a	n/a	n/a	n/a	n/a
262.71	1.82	vicarious	outcomerating	8	high_cue	med_stim	5.05	Weak	5.05	Weak	0.38	1.4	task-social/outcomerating/task-vicarious_scale.png	n/a	n/a	n/a	n/a	n/a	n/a	n/a	n/a
268.5	0.99	vicarious	cue	9	low_cue	n/a	n/a	n/a	n/a	n/a	n/a	n/a	task-social/cue/runtype-vicarious/scl/l050.png	n/a	n/a	n/a	n/a	n/a	n/a	n/a	n/a
271.7	1.84	vicarious	expectrating	9	low_cue	n/a	8.75	Weak	8.75	Weak	0.43	1.41	task-social/cue/runtype-vicarious/scl/l050.png	n/a	n/a	n/a	n/a	n/a	n/a	n/a	n/a
280.69	5.0	vicarious	stimulus	9	low_cue	low_stim	n/a	n/a	n/a	n/a	n/a	n/a	task-social/stim/runtype-vicarious/ch092t2aeaff_L.mp4	n/a	n/a	n/a	n/a	n/a	n/a	n/a	n/a
288.9	3.12	vicarious	outcomerating	9	low_cue	low_stim	1.85	Barely-detectable	1.85	Barely-detectable	0.43	1.41	task-social/outcomerating/task-vicarious_scale.png	n/a	n/a	n/a	n/a	n/a	n/a	n/a	n/a
296.41	0.98	vicarious	cue	10	low_cue	n/a	n/a	n/a	n/a	n/a	n/a	n/a	task-social/cue/runtype-vicarious/scl/l033.png	n/a	n/a	n/a	n/a	n/a	n/a	n/a	n/a
298.31	2.67	vicarious	expectrating	10	low_cue	n/a	4.9	Weak	4.9	Weak	0.45	2.22	task-social/cue/runtype-vicarious/scl/l033.png	n/a	n/a	n/a	n/a	n/a	n/a	n/a	n/a
308.69	5.0	vicarious	stimulus	10	low_cue	high_stim	n/a	n/a	n/a	n/a	n/a	n/a	task-social/stim/runtype-vicarious/ak064t1aaaff_H.mp4	n/a	n/a	n/a	n/a	n/a	n/a	n/a	n/a
320.01	2.79	vicarious	outcomerating	10	low_cue	high_stim	18.43	Moderate	18.43	Moderate	0.45	2.22	task-social/outcomerating/task-vicarious_scale.png	n/a	n/a	n/a	n/a	n/a	n/a	n/a	n/a
330.7	0.98	vicarious	cue	11	low_cue	n/a	n/a	n/a	n/a	n/a	n/a	n/a	task-social/cue/runtype-vicarious/scl/l021.png	n/a	n/a	n/a	n/a	n/a	n/a	n/a	n/a
332.4	1.54	vicarious	expectrating	11	low_cue	n/a	1.86	Barely-detectable	1.86	Barely-detectable	0.57	0.97	task-social/cue/runtype-vicarious/scl/l021.png	n/a	n/a	n/a	n/a	n/a	n/a	n/a	n/a
341.99	5.0	vicarious	stimulus	11	low_cue	low_stim	n/a	n/a	n/a	n/a	n/a	n/a	task-social/stim/runtype-vicarious/jh123t1aaunaff_L.mp4	n/a	n/a	n/a	n/a	n/a	n/a	n/a	n/a
365.82	3.07	vicarious	outcomerating	11	low_cue	low_stim	1.38	Barely-detectable	1.38	Barely-detectable	0.57	0.97	task-social/outcomerating/task-vicarious_scale.png	n/a	n/a	n/a	n/a	n/a	n/a	n/a	n/a
372.0	0.99	vicarious	cue	12	low_cue	n/a	n/a	n/a	n/a	n/a	n/a	n/a	task-social/cue/runtype-vicarious/scl/l018.png	n/a	n/a	n/a	n/a	n/a	n/a	n/a	n/a
373.6	1.8	vicarious	expectrating	12	low_cue	n/a	3.46	Weak	3.46	Weak	0.48	1.32	task-social/cue/runtype-vicarious/scl/l018.png	n/a	n/a	n/a	n/a	n/a	n/a	n/a	n/a
383.19	5.0	vicarious	stimulus	12	low_cue	med_stim	n/a	n/a	n/a	n/a	n/a	n/a	task-social/stim/runtype-vicarious/kz120t2aeaff_M.mp4	n/a	n/a	n/a	n/a	n/a	n/a	n/a	n/a
395.21	3.32	vicarious	outcomerating	12	low_cue	med_stim	0.46	No-sensation	0.46	No-sensation	0.48	1.32	task-social/outcomerating/task-vicarious_scale.png	n/a	n/a	n/a	n/a	n/a	n/a	n/a	n/a
