onset	duration	trial_type	response_x	response_y	situation	context	modality	stim_file
7.833	15.364	narrative_presentation	n/a	n/a	Necessity of sacrificing loved ones	town	Audio	task-narratives/Narrative8Situation1.mp3
23.197	3.533	rating_feeling	645	535	Necessity of sacrificing loved ones	town	Audio	n/a
24.48	2.25	feeling_mouse_trajectory	645	535	Necessity of sacrificing loved ones	town	Audio	n/a
27.25	0.05	rating_expectation	960	707	Necessity of sacrificing loved ones	town	Audio	n/a
27.317	-0.016	expectation_mouse_trajectory	960	707	Necessity of sacrificing loved ones	town	Audio	n/a
34.455	8.777	narrative_presentation	n/a	n/a	Abduction	town	Audio	task-narratives/Narrative8Situation2.mp3
43.232	2.373	rating_feeling	688	486	Abduction	town	Audio	n/a
43.948	1.657	feeling_mouse_trajectory	688	486	Abduction	town	Audio	n/a
47.279	1.338	rating_expectation	797	581	Abduction	town	Audio	n/a
47.679	0.938	expectation_mouse_trajectory	797	581	Abduction	town	Audio	n/a
55.364	22.146	narrative_presentation	n/a	n/a	Adultery	town	Audio	task-narratives/Narrative8Situation3.mp3
77.51	2.468	rating_feeling	892	462	Adultery	town	Audio	n/a
78.077	1.901	feeling_mouse_trajectory	892	462	Adultery	town	Audio	n/a
81.554	3.633	rating_expectation	989	417	Adultery	town	Audio	n/a
83.721	1.467	expectation_mouse_trajectory	989	417	Adultery	town	Audio	n/a
88.625	12.611	narrative_presentation	n/a	n/a	Obtaining	city	Audio	task-narratives/Narrative8Situation4.mp3
101.236	2.218	rating_feeling	1004	418	Obtaining	city	Audio	n/a
101.719	1.735	feeling_mouse_trajectory	1004	418	Obtaining	city	Audio	n/a
105.262	1.785	rating_expectation	896	388	Obtaining	city	Audio	n/a
105.528	1.518	expectation_mouse_trajectory	896	388	Obtaining	city	Audio	n/a
111.353	6.612	narrative_presentation	n/a	n/a	Supplication	city	Audio	task-narratives/Narrative8Situation5.mp3
117.965	3.735	rating_feeling	955	468	Supplication	city	Audio	n/a
118.649	3.052	feeling_mouse_trajectory	955	468	Supplication	city	Audio	n/a
121.987	2.751	rating_expectation	900	491	Supplication	city	Audio	n/a
122.687	2.051	expectation_mouse_trajectory	900	491	Supplication	city	Audio	n/a
128.072	5.981	narrative_presentation	n/a	n/a	Rivalry of kin	city	Audio	task-narratives/Narrative8Situation6.mp3
134.053	2.656	rating_feeling	1095	441	Rivalry of kin	city	Audio	n/a
135.136	1.573	feeling_mouse_trajectory	1095	441	Rivalry of kin	city	Audio	n/a
138.094	1.404	rating_expectation	847	542	Rivalry of kin	city	Audio	n/a
138.127	1.371	expectation_mouse_trajectory	847	542	Rivalry of kin	city	Audio	n/a
145.163	10.777	narrative_presentation	n/a	n/a	Recovery of a lost one	beach	Audio	task-narratives/Narrative8Situation7.mp3
155.939	1.201	rating_feeling	609	354	Recovery of a lost one	beach	Audio	n/a
156.223	0.917	feeling_mouse_trajectory	609	354	Recovery of a lost one	beach	Audio	n/a
159.965	1.901	rating_expectation	758	425	Recovery of a lost one	beach	Audio	n/a
160.815	1.051	expectation_mouse_trajectory	758	425	Recovery of a lost one	beach	Audio	n/a
167.019	11.283	narrative_presentation	n/a	n/a	Rivalry of superior versus inferior	beach	Audio	task-narratives/Narrative8Situation8.mp3
178.302	1.306	rating_feeling	607	407	Rivalry of superior versus inferior	beach	Audio	n/a
178.535	1.073	feeling_mouse_trajectory	607	407	Rivalry of superior versus inferior	beach	Audio	n/a
182.327	1.188	rating_expectation	607	410	Rivalry of superior versus inferior	beach	Audio	n/a
182.427	1.088	expectation_mouse_trajectory	607	410	Rivalry of superior versus inferior	beach	Audio	n/a
189.379	10.108	narrative_presentation	n/a	n/a	Slaying of kin unrecognized	beach	Audio	task-narratives/Narrative8Situation9.mp3
199.488	3.168	rating_feeling	981	360	Slaying of kin unrecognized	beach	Audio	n/a
199.888	2.768	feeling_mouse_trajectory	981	360	Slaying of kin unrecognized	beach	Audio	n/a
203.514	2.818	rating_expectation	983	367	Slaying of kin unrecognized	beach	Audio	n/a
204.797	1.535	expectation_mouse_trajectory	983	367	Slaying of kin unrecognized	beach	Audio	n/a
209.569	54.284	narrative_presentation	n/a	n/a	Deliverance	prison	Audio	task-narratives/Narrative7Situation1.mp3
263.853	2.791	rating_feeling	747	372	Deliverance	prison	Audio	n/a
264.153	2.491	feeling_mouse_trajectory	747	372	Deliverance	prison	Audio	n/a
267.893	1.872	rating_expectation	702	418	Deliverance	prison	Audio	n/a
268.493	1.272	expectation_mouse_trajectory	702	418	Deliverance	prison	Audio	n/a
274.963	5.94	narrative_presentation	n/a	n/a	Adultery	prison	Audio	task-narratives/Narrative7Situation2.mp3
280.902	2.768	rating_feeling	901	375	Adultery	prison	Audio	n/a
282.136	1.535	feeling_mouse_trajectory	901	375	Adultery	prison	Audio	n/a
284.927	2.151	rating_expectation	891	410	Adultery	prison	Audio	n/a
285.211	1.868	expectation_mouse_trajectory	891	410	Adultery	prison	Audio	n/a
296.985	7.441	narrative_presentation	n/a	n/a	Pursuit	prison	Audio	task-narratives/Narrative7Situation3.mp3
304.426	3.568	rating_feeling	983	392	Pursuit	prison	Audio	n/a
305.759	2.235	feeling_mouse_trajectory	983	392	Pursuit	prison	Audio	n/a
308.453	1.757	rating_expectation	1006	401	Pursuit	prison	Audio	n/a
308.87	1.341	expectation_mouse_trajectory	1006	401	Pursuit	prison	Audio	n/a
315.541	11.478	narrative_presentation	n/a	n/a	Conflict with a god	park	Audio	task-narratives/Narrative7Situation4.mp3
327.018	2.935	rating_feeling	846	392	Conflict with a god	park	Audio	n/a
327.718	2.235	feeling_mouse_trajectory	846	392	Conflict with a god	park	Audio	n/a
331.044	2.618	rating_expectation	966	358	Conflict with a god	park	Audio	n/a
331.477	2.185	expectation_mouse_trajectory	966	358	Conflict with a god	park	Audio	n/a
340.101	7.984	narrative_presentation	n/a	n/a	Recovery of a lost one	park	Audio	task-narratives/Narrative7Situation5.mp3
348.085	1.434	rating_feeling	829	507	Recovery of a lost one	park	Audio	n/a
348.402	1.117	feeling_mouse_trajectory	829	507	Recovery of a lost one	park	Audio	n/a
352.118	1.091	rating_expectation	803	510	Recovery of a lost one	park	Audio	n/a
352.468	0.741	expectation_mouse_trajectory	803	510	Recovery of a lost one	park	Audio	n/a
359.173	8.784	narrative_presentation	n/a	n/a	Supplication	park	Audio	task-narratives/Narrative7Situation6.mp3
367.957	1.585	rating_feeling	770	419	Supplication	park	Audio	n/a
368.507	1.035	feeling_mouse_trajectory	770	419	Supplication	park	Audio	n/a
371.993	1.551	rating_expectation	831	569	Supplication	park	Audio	n/a
372.026	1.518	expectation_mouse_trajectory	831	569	Supplication	park	Audio	n/a
381.048	16.657	narrative_presentation	n/a	n/a	Involuntary crimes of love	hospital	Audio	task-narratives/Narrative7Situation7.mp3
397.705	2.358	rating_feeling	905	364	Involuntary crimes of love	hospital	Audio	n/a
397.955	2.108	feeling_mouse_trajectory	905	364	Involuntary crimes of love	hospital	Audio	n/a
401.742	2.006	rating_expectation	876	476	Involuntary crimes of love	hospital	Audio	n/a
402.126	1.623	expectation_mouse_trajectory	876	476	Involuntary crimes of love	hospital	Audio	n/a
407.794	8.776	narrative_presentation	n/a	n/a	An enemy loved	hospital	Audio	task-narratives/Narrative7Situation8.mp3
416.571	1.717	rating_feeling	772	437	An enemy loved	hospital	Audio	n/a
416.921	1.367	feeling_mouse_trajectory	772	437	An enemy loved	hospital	Audio	n/a
420.594	2.251	rating_expectation	747	469	An enemy loved	hospital	Audio	n/a
420.677	2.168	expectation_mouse_trajectory	747	469	An enemy loved	hospital	Audio	n/a
426.649	7.981	narrative_presentation	n/a	n/a	Ambition	hospital	Audio	task-narratives/Narrative7Situation9.mp3
434.629	2.127	rating_feeling	999	414	Ambition	hospital	Audio	n/a
435.613	1.144	feeling_mouse_trajectory	999	414	Ambition	hospital	Audio	n/a
438.65	1.426	rating_expectation	1010	419	Ambition	hospital	Audio	n/a
439.017	1.059	expectation_mouse_trajectory	1010	419	Ambition	hospital	Audio	n/a
