onset	duration	run_type	trial_type	trial_index	cue	stimulusintensity	rating_value	rating_glmslabel	rating_value_fillna	rating_glmslabel_fillna	rating_mouseonset	rating_mousedur	stim_file_TODO	pain_onset_ttl1	pain_onset_ttl2	pain_onset_ttl3	pain_onset_ttl4	pain_stimulus_delivery_success	cognitive_correct_response	cognitive_participant_response	cognitive_response_accuracy
3.39	0.98	vicarious	cue	1	low_cue	n/a	n/a	n/a	n/a	n/a	n/a	n/a	task-social/cue/runtype-vicarious/scl/l026.png	n/a	n/a	n/a	n/a	n/a	n/a	n/a	n/a
6.09	1.68	vicarious	expectrating	1	low_cue	n/a	5.76	Weak	5.76	Weak	0.1	1.58	task-social/cue/runtype-vicarious/scl/l026.png	n/a	n/a	n/a	n/a	n/a	n/a	n/a	n/a
18.48	5.0	vicarious	stimulus	1	low_cue	high_stim	n/a	n/a	n/a	n/a	n/a	n/a	task-social/stim/runtype-vicarious/kz120t2aaaff_H.mp4	n/a	n/a	n/a	n/a	n/a	n/a	n/a	n/a
32.6	1.62	vicarious	outcomerating	1	low_cue	high_stim	5.09	Weak	5.09	Weak	0.1	1.58	task-social/outcomerating/task-vicarious_scale.png	n/a	n/a	n/a	n/a	n/a	n/a	n/a	n/a
45.99	0.98	vicarious	cue	2	high_cue	n/a	n/a	n/a	n/a	n/a	n/a	n/a	task-social/cue/runtype-vicarious/sch/h018.png	n/a	n/a	n/a	n/a	n/a	n/a	n/a	n/a
49.09	1.27	vicarious	expectrating	2	high_cue	n/a	47.76	Strong	47.76	Strong	0.63	0.64	task-social/cue/runtype-vicarious/sch/h018.png	n/a	n/a	n/a	n/a	n/a	n/a	n/a	n/a
59.58	5.0	vicarious	stimulus	2	high_cue	med_stim	n/a	n/a	n/a	n/a	n/a	n/a	task-social/stim/runtype-vicarious/jh123t2aaaff_M.mp4	n/a	n/a	n/a	n/a	n/a	n/a	n/a	n/a
75.99	1.48	vicarious	outcomerating	2	high_cue	med_stim	41.42	Strong	41.42	Strong	0.63	0.64	task-social/outcomerating/task-vicarious_scale.png	n/a	n/a	n/a	n/a	n/a	n/a	n/a	n/a
80.69	0.98	vicarious	cue	3	low_cue	n/a	n/a	n/a	n/a	n/a	n/a	n/a	task-social/cue/runtype-vicarious/scl/l045.png	n/a	n/a	n/a	n/a	n/a	n/a	n/a	n/a
83.79	2.22	vicarious	expectrating	3	low_cue	n/a	4.18	Weak	4.18	Weak	0.38	1.84	task-social/cue/runtype-vicarious/scl/l045.png	n/a	n/a	n/a	n/a	n/a	n/a	n/a	n/a
90.28	5.0	vicarious	stimulus	3	low_cue	low_stim	n/a	n/a	n/a	n/a	n/a	n/a	task-social/stim/runtype-vicarious/aa048t2aaunaff_L.mp4	n/a	n/a	n/a	n/a	n/a	n/a	n/a	n/a
97.8	3.22	vicarious	outcomerating	3	low_cue	low_stim	16.36	Moderate	16.36	Moderate	0.38	1.84	task-social/outcomerating/task-vicarious_scale.png	n/a	n/a	n/a	n/a	n/a	n/a	n/a	n/a
110.28	0.99	vicarious	cue	4	low_cue	n/a	n/a	n/a	n/a	n/a	n/a	n/a	task-social/cue/runtype-vicarious/scl/l022.png	n/a	n/a	n/a	n/a	n/a	n/a	n/a	n/a
111.78	2.77	vicarious	expectrating	4	low_cue	n/a	26.24	Moderate	26.24	Moderate	0.63	2.13	task-social/cue/runtype-vicarious/scl/l022.png	n/a	n/a	n/a	n/a	n/a	n/a	n/a	n/a
118.58	5.0	vicarious	stimulus	4	low_cue	low_stim	n/a	n/a	n/a	n/a	n/a	n/a	task-social/stim/runtype-vicarious/kz120t2aaunaff_L.mp4	n/a	n/a	n/a	n/a	n/a	n/a	n/a	n/a
134.69	1.7	vicarious	outcomerating	4	low_cue	low_stim	22.87	Moderate	22.87	Moderate	0.63	2.13	task-social/outcomerating/task-vicarious_scale.png	n/a	n/a	n/a	n/a	n/a	n/a	n/a	n/a
143.78	0.99	vicarious	cue	5	high_cue	n/a	n/a	n/a	n/a	n/a	n/a	n/a	task-social/cue/runtype-vicarious/sch/h035.png	n/a	n/a	n/a	n/a	n/a	n/a	n/a	n/a
146.9	2.6	vicarious	expectrating	5	high_cue	n/a	57.46	Strong	57.46	Strong	0.48	2.12	task-social/cue/runtype-vicarious/sch/h035.png	n/a	n/a	n/a	n/a	n/a	n/a	n/a	n/a
156.58	5.0	vicarious	stimulus	5	high_cue	low_stim	n/a	n/a	n/a	n/a	n/a	n/a	task-social/stim/runtype-vicarious/jh123t1aaunaff_L.mp4	n/a	n/a	n/a	n/a	n/a	n/a	n/a	n/a
166.59	2.09	vicarious	outcomerating	5	high_cue	low_stim	16.59	Moderate	16.59	Moderate	0.48	2.12	task-social/outcomerating/task-vicarious_scale.png	n/a	n/a	n/a	n/a	n/a	n/a	n/a	n/a
171.29	0.98	vicarious	cue	6	high_cue	n/a	n/a	n/a	n/a	n/a	n/a	n/a	task-social/cue/runtype-vicarious/sch/h042.png	n/a	n/a	n/a	n/a	n/a	n/a	n/a	n/a
173.29	2.62	vicarious	expectrating	6	high_cue	n/a	73.39	Very Strong	73.39	Very Strong	0.57	2.06	task-social/cue/runtype-vicarious/sch/h042.png	n/a	n/a	n/a	n/a	n/a	n/a	n/a	n/a
179.78	5.0	vicarious	stimulus	6	high_cue	med_stim	n/a	n/a	n/a	n/a	n/a	n/a	task-social/stim/runtype-vicarious/kz120t2aeaff_M.mp4	n/a	n/a	n/a	n/a	n/a	n/a	n/a	n/a
189.6	2.35	vicarious	outcomerating	6	high_cue	med_stim	33.31	Strong	33.31	Strong	0.57	2.06	task-social/outcomerating/task-vicarious_scale.png	n/a	n/a	n/a	n/a	n/a	n/a	n/a	n/a
201.08	0.99	vicarious	cue	7	high_cue	n/a	n/a	n/a	n/a	n/a	n/a	n/a	task-social/cue/runtype-vicarious/sch/h004.png	n/a	n/a	n/a	n/a	n/a	n/a	n/a	n/a
203.08	1.35	vicarious	expectrating	7	high_cue	n/a	64.06	Very Strong	64.06	Very Strong	0.37	0.98	task-social/cue/runtype-vicarious/sch/h004.png	n/a	n/a	n/a	n/a	n/a	n/a	n/a	n/a
216.08	5.0	vicarious	stimulus	7	high_cue	low_stim	n/a	n/a	n/a	n/a	n/a	n/a	task-social/stim/runtype-vicarious/tv095t2aeunaff_L.mp4	n/a	n/a	n/a	n/a	n/a	n/a	n/a	n/a
226.69	1.92	vicarious	outcomerating	7	high_cue	low_stim	16.23	Moderate	16.23	Moderate	0.37	0.98	task-social/outcomerating/task-vicarious_scale.png	n/a	n/a	n/a	n/a	n/a	n/a	n/a	n/a
234.78	0.99	vicarious	cue	8	low_cue	n/a	n/a	n/a	n/a	n/a	n/a	n/a	task-social/cue/runtype-vicarious/scl/l051.png	n/a	n/a	n/a	n/a	n/a	n/a	n/a	n/a
237.3	1.42	vicarious	expectrating	8	low_cue	n/a	9.89	Weak	9.89	Weak	0.55	0.87	task-social/cue/runtype-vicarious/scl/l051.png	n/a	n/a	n/a	n/a	n/a	n/a	n/a	n/a
251.28	5.0	vicarious	stimulus	8	low_cue	high_stim	n/a	n/a	n/a	n/a	n/a	n/a	task-social/stim/runtype-vicarious/mg066t1aaaff_H.mp4	n/a	n/a	n/a	n/a	n/a	n/a	n/a	n/a
260.39	3.56	vicarious	outcomerating	8	low_cue	high_stim	15.85	Moderate	15.85	Moderate	0.55	0.87	task-social/outcomerating/task-vicarious_scale.png	n/a	n/a	n/a	n/a	n/a	n/a	n/a	n/a
265.09	0.98	vicarious	cue	9	low_cue	n/a	n/a	n/a	n/a	n/a	n/a	n/a	task-social/cue/runtype-vicarious/scl/l048.png	n/a	n/a	n/a	n/a	n/a	n/a	n/a	n/a
268.19	1.54	vicarious	expectrating	9	low_cue	n/a	11.17	Moderate	11.17	Moderate	0.42	1.12	task-social/cue/runtype-vicarious/scl/l048.png	n/a	n/a	n/a	n/a	n/a	n/a	n/a	n/a
279.88	5.0	vicarious	stimulus	9	low_cue	med_stim	n/a	n/a	n/a	n/a	n/a	n/a	task-social/stim/runtype-vicarious/dr052t2aaaff_M.mp4	n/a	n/a	n/a	n/a	n/a	n/a	n/a	n/a
290.0	1.33	vicarious	outcomerating	9	low_cue	med_stim	44.51	Strong	44.51	Strong	0.42	1.12	task-social/outcomerating/task-vicarious_scale.png	n/a	n/a	n/a	n/a	n/a	n/a	n/a	n/a
295.49	0.99	vicarious	cue	10	low_cue	n/a	n/a	n/a	n/a	n/a	n/a	n/a	task-social/cue/runtype-vicarious/scl/l050.png	n/a	n/a	n/a	n/a	n/a	n/a	n/a	n/a
297.39	1.79	vicarious	expectrating	10	low_cue	n/a	11.63	Moderate	11.63	Moderate	0.28	1.51	task-social/cue/runtype-vicarious/scl/l050.png	n/a	n/a	n/a	n/a	n/a	n/a	n/a	n/a
311.08	5.0	vicarious	stimulus	10	low_cue	med_stim	n/a	n/a	n/a	n/a	n/a	n/a	task-social/stim/runtype-vicarious/th108t2aaunaff_M.mp4	n/a	n/a	n/a	n/a	n/a	n/a	n/a	n/a
321.7	n/a	vicarious	outcomerating	10	low_cue	med_stim	n/a	n/a	12.53	Moderate	0.28	1.51	task-social/outcomerating/task-vicarious_scale.png	n/a	n/a	n/a	n/a	n/a	n/a	n/a	n/a
337.88	0.99	vicarious	cue	11	high_cue	n/a	n/a	n/a	n/a	n/a	n/a	n/a	task-social/cue/runtype-vicarious/sch/h016.png	n/a	n/a	n/a	n/a	n/a	n/a	n/a	n/a
340.59	2.03	vicarious	expectrating	11	high_cue	n/a	65.85	Very Strong	65.85	Very Strong	0.42	1.61	task-social/cue/runtype-vicarious/sch/h016.png	n/a	n/a	n/a	n/a	n/a	n/a	n/a	n/a
347.98	5.0	vicarious	stimulus	11	high_cue	high_stim	n/a	n/a	n/a	n/a	n/a	n/a	task-social/stim/runtype-vicarious/tv095t1afaff_H.mp4	n/a	n/a	n/a	n/a	n/a	n/a	n/a	n/a
355.49	2.65	vicarious	outcomerating	11	high_cue	high_stim	76.97	Very Strong	76.97	Very Strong	0.42	1.61	task-social/outcomerating/task-vicarious_scale.png	n/a	n/a	n/a	n/a	n/a	n/a	n/a	n/a
362.58	1.0	vicarious	cue	12	high_cue	n/a	n/a	n/a	n/a	n/a	n/a	n/a	task-social/cue/runtype-vicarious/sch/h039.png	n/a	n/a	n/a	n/a	n/a	n/a	n/a	n/a
364.79	1.78	vicarious	expectrating	12	high_cue	n/a	71.57	Very Strong	71.57	Very Strong	0.52	1.27	task-social/cue/runtype-vicarious/sch/h039.png	n/a	n/a	n/a	n/a	n/a	n/a	n/a	n/a
378.48	5.0	vicarious	stimulus	12	high_cue	high_stim	n/a	n/a	n/a	n/a	n/a	n/a	task-social/stim/runtype-vicarious/aa048t2aeaff_H.mp4	n/a	n/a	n/a	n/a	n/a	n/a	n/a	n/a
394.59	2.94	vicarious	outcomerating	12	high_cue	high_stim	6.51	Weak	6.51	Weak	0.52	1.27	task-social/outcomerating/task-vicarious_scale.png	n/a	n/a	n/a	n/a	n/a	n/a	n/a	n/a
