onset	duration	subtask_type	event_type	value	response_accuracy	stim_file	participant_response	reaction_time
7.943	1.017	memory	dummy	study_dummy	n/a	task-memory/obj037bridge.png	n/a	n/a
9.977	1.017	memory	dummy	study_dummy	n/a	task-memory/obj088drawer.png	n/a	n/a
12.011	1.017	memory	dummy	study_dummy	n/a	task-memory/obj209paperclip.png	n/a	n/a
14.045	1.017	memory	study	study	n/a	task-memory/obj045camel.png	n/a	n/a
16.079	1.034	memory	study	study	n/a	task-memory/obj109fly.png	n/a	n/a
18.13	1.034	memory	study	study	n/a	task-memory/obj294tank.png	n/a	n/a
20.181	1.017	memory	study	study	n/a	task-memory/obj101fence.png	n/a	n/a
22.215	1.017	memory	study	study	n/a	task-memory/obj005ant.png	n/a	n/a
24.249	1.017	memory	study	study	n/a	task-memory/obj152jumprope.png	n/a	n/a
26.283	1.034	memory	study	study	n/a	task-memory/obj264shark.png	n/a	n/a
28.334	1.017	memory	study	study	n/a	task-memory/obj335wheelbarrow.png	n/a	n/a
30.384	1.017	memory	study	study	n/a	task-memory/obj171lizard.png	n/a	n/a
32.419	1.017	memory	study	study	n/a	task-memory/obj262screw.png	n/a	n/a
34.469	1.017	memory	study	study	n/a	task-memory/obj346yoyo.png	n/a	n/a
36.503	1.017	memory	study	study	n/a	task-memory/obj129hammer.png	n/a	n/a
38.537	1.017	memory	study	study	n/a	task-memory/obj054chain.png	n/a	n/a
40.572	1.017	memory	study	study	n/a	task-memory/obj272skunk.png	n/a	n/a
42.606	1.017	memory	study	study	n/a	task-memory/obj203paintbrush.png	n/a	n/a
44.64	1.017	memory	study	study	n/a	task-memory/obj053cat.png	n/a	n/a
46.674	1.017	memory	study	study	n/a	task-memory/obj247rollerskate.png	n/a	n/a
48.708	1.017	memory	study	study	n/a	task-memory/obj258saxophone.png	n/a	n/a
50.742	1.017	memory	study	study	n/a	task-memory/obj068cork.png	n/a	n/a
52.776	1.017	memory	study	study	n/a	task-memory/obj100feather.png	n/a	n/a
54.81	1.017	memory	dummy	study_dummy	n/a	task-memory/obj280sofa.png	n/a	n/a
56.844	1.017	memory	dummy	study_dummy	n/a	task-memory/obj297telescope.png	n/a	n/a
58.878	1.017	memory	dummy	study_dummy	n/a	task-memory/obj342wing.png	n/a	n/a
71.066	25.0	memory	distraction_math	math	n/a	n/a	n/a	n/a
99.143	25.0	memory	distraction_math	math	n/a	n/a	n/a	n/a
127.204	25.0	memory	distraction_math	math	n/a	n/a	n/a	n/a
155.264	25.0	memory	distraction_math	math	n/a	n/a	n/a	n/a
188.894	0.911	memory	test	test_new	correct	task-memory/obj316turkey.png	new	n/a
191.695	0.771	memory	test	test_old	correct	task-memory/obj294tank.png	old	n/a
194.696	0.98	memory	test	test_new	correct	task-memory/obj082doctor.png	new	n/a
197.28	0.929	memory	test	test_new	correct	task-memory/obj163leaf.png	new	n/a
200.081	0.945	memory	test	test_new	correct	task-memory/obj043cage.png	new	n/a
202.715	0.664	memory	test	test_old	correct	task-memory/obj053cat.png	old	n/a
205.433	0.597	memory	test	test_old	correct	task-memory/obj203paintbrush.png	old	n/a
208.451	0.699	memory	test	test_old	correct	task-memory/obj100feather.png	old	n/a
211.235	0.781	memory	test	test_old	correct	task-memory/obj247rollerskate.png	old	n/a
213.786	0.892	memory	test	test_new	correct	task-memory/obj313trophy.png	new	n/a
216.571	0.723	memory	test	test_old	correct	task-memory/obj152jumprope.png	old	n/a
219.455	0.935	memory	test	test_new	incorrect	task-memory/obj201owl.png	old	n/a
222.156	0.879	memory	test	test_old	correct	task-memory/obj068cork.png	old	n/a
224.94	0.777	memory	test	test_new	correct	task-memory/obj154key.png	new	n/a
227.591	0.744	memory	test	test_old	correct	task-memory/obj272skunk.png	old	n/a
230.509	1.402	memory	test	test_new	correct	task-memory/obj002acorn.png	new	n/a
233.06	0.876	memory	test	test_new	correct	task-memory/obj330watch.png	new	n/a
235.728	0.732	memory	test	test_old	correct	task-memory/obj005ant.png	old	n/a
238.529	0.681	memory	test	test_old	correct	task-memory/obj054chain.png	old	n/a
241.13	0.822	memory	test	test_new	correct	task-memory/obj178mask.png	new	n/a
243.731	0.803	memory	test	test_new	incorrect	task-memory/obj222pipe.png	old	n/a
246.415	1.065	memory	test	test_old	correct	task-memory/obj346yoyo.png	old	n/a
249.033	0.825	memory	test	test_new	correct	task-memory/obj211peanut.png	new	n/a
251.984	0.845	memory	test	test_new	correct	task-memory/obj110football.png	new	n/a
254.902	0.724	memory	test	test_old	correct	task-memory/obj262screw.png	old	n/a
257.719	0.855	memory	test	test_old	correct	task-memory/obj129hammer.png	old	n/a
260.737	0.774	memory	test	test_new	correct	task-memory/obj120glasses.png	new	n/a
263.455	0.669	memory	test	test_old	correct	task-memory/obj109fly.png	old	n/a
266.406	0.832	memory	test	test_new	correct	task-memory/obj071cowboy.png	new	n/a
269.34	0.658	memory	test	test_old	correct	task-memory/obj101fence.png	old	n/a
271.958	0.943	memory	test	test_new	correct	task-memory/obj134hat.png	new	n/a
274.742	0.682	memory	test	test_old	correct	task-memory/obj258saxophone.png	old	n/a
277.51	0.751	memory	test	test_new	correct	task-memory/obj104fish.png	new	n/a
280.511	0.794	memory	test	test_new	correct	task-memory/obj041button.png	new	n/a
283.329	0.644	memory	test	test_old	correct	task-memory/obj045camel.png	old	n/a
286.33	0.666	memory	test	test_old	correct	task-memory/obj335wheelbarrow.png	old	n/a
288.914	1.045	memory	test	test_new	correct	task-memory/obj106flashlight.png	new	n/a
291.699	0.993	memory	test	test_old	correct	task-memory/obj264shark.png	old	n/a
294.35	0.83	memory	test	test_old	correct	task-memory/obj171lizard.png	old	n/a
296.967	0.788	memory	test	test_new	correct	task-memory/obj086door.png	new	n/a
308.205	1.017	memory	dummy	study_dummy	n/a	task-memory/obj022bell.png	n/a	n/a
310.239	1.017	memory	dummy	study_dummy	n/a	task-memory/obj218pig.png	n/a	n/a
312.273	1.017	memory	dummy	study_dummy	n/a	task-memory/obj239rake.png	n/a	n/a
314.307	1.017	memory	study	study	n/a	task-memory/obj168lion.png	n/a	n/a
316.341	1.017	memory	study	study	n/a	task-memory/obj076cup.png	n/a	n/a
318.375	1.017	memory	study	study	n/a	task-memory/obj018barrel.png	n/a	n/a
320.409	1.017	memory	study	study	n/a	task-memory/obj070cow.png	n/a	n/a
322.443	1.017	memory	study	study	n/a	task-memory/obj200orange.png	n/a	n/a
324.477	1.017	memory	study	study	n/a	task-memory/obj137helicopter.png	n/a	n/a
326.512	1.017	memory	study	study	n/a	task-memory/obj327volcano.png	n/a	n/a
328.546	1.017	memory	study	study	n/a	task-memory/obj098fan.png	n/a	n/a
330.58	1.017	memory	study	study	n/a	task-memory/obj172lobster.png	n/a	n/a
332.614	1.017	memory	study	study	n/a	task-memory/obj190mousetrap.png	n/a	n/a
334.648	1.017	memory	study	study	n/a	task-memory/obj081dinosaur.png	n/a	n/a
336.682	1.017	memory	study	study	n/a	task-memory/obj065clown.png	n/a	n/a
338.716	1.034	memory	study	study	n/a	task-memory/obj207pants.png	n/a	n/a
340.767	1.017	memory	study	study	n/a	task-memory/obj075crown.png	n/a	n/a
342.818	1.017	memory	study	study	n/a	task-memory/obj123goat.png	n/a	n/a
344.852	1.017	memory	study	study	n/a	task-memory/obj336wheelchair.png	n/a	n/a
346.902	1.017	memory	study	study	n/a	task-memory/obj077deer.png	n/a	n/a
348.937	1.017	memory	study	study	n/a	task-memory/obj315trumpet.png	n/a	n/a
350.971	1.017	memory	study	study	n/a	task-memory/obj341window.png	n/a	n/a
353.005	1.017	memory	study	study	n/a	task-memory/obj131handcuffs.png	n/a	n/a
355.039	1.017	memory	dummy	study_dummy	n/a	task-memory/obj241ring.png	n/a	n/a
357.073	1.017	memory	dummy	study_dummy	n/a	task-memory/obj242road.png	n/a	n/a
359.107	1.017	memory	dummy	study_dummy	n/a	task-memory/obj291swing.png	n/a	n/a
371.295	25.0	memory	distraction_math	math	n/a	n/a	n/a	n/a
399.372	25.0	memory	distraction_math	math	n/a	n/a	n/a	n/a
427.433	25.0	memory	distraction_math	math	n/a	n/a	n/a	n/a
455.493	25.0	memory	distraction_math	math	n/a	n/a	n/a	n/a
489.056	0.897	memory	test	test_old	correct	task-memory/obj081dinosaur.png	old	n/a
491.89	0.753	memory	test	test_old	correct	task-memory/obj341window.png	old	n/a
494.758	0.671	memory	test	test_old	correct	task-memory/obj190mousetrap.png	old	n/a
497.425	0.697	memory	test	test_old	correct	task-memory/obj098fan.png	old	n/a
500.076	0.674	memory	test	test_old	correct	task-memory/obj076cup.png	old	n/a
502.661	0.865	memory	test	test_new	correct	task-memory/obj087dragon.png	new	n/a
505.378	0.813	memory	test	test_new	correct	task-memory/obj042cactus.png	new	n/a
508.346	0.894	memory	test	test_new	correct	task-memory/obj256sandwich.png	new	n/a
510.964	1.053	memory	test	test_new	correct	task-memory/obj289submarine.png	new	n/a
513.665	1.159	memory	test	test_new	correct	task-memory/obj003alligator.png	new	n/a
516.382	0.919	memory	test	test_new	correct	task-memory/obj274slide.png	new	n/a
519.133	0.742	memory	test	test_new	correct	task-memory/obj051car.png	new	n/a
521.868	1.259	memory	test	test_new	correct	task-memory/obj224pitchfork.png	new	n/a
524.619	0.724	memory	test	test_old	correct	task-memory/obj123goat.png	old	n/a
527.22	1.069	memory	test	test_new	correct	task-memory/obj326violin.png	new	n/a
530.238	0.703	memory	test	test_old	correct	task-memory/obj336wheelchair.png	old	n/a
532.872	0.793	memory	test	test_new	correct	task-memory/obj284spoon.png	new	n/a
535.723	0.71	memory	test	test_old	correct	task-memory/obj077deer.png	old	n/a
538.291	0.682	memory	test	test_old	correct	task-memory/obj315trumpet.png	old	n/a
541.075	0.8	memory	test	test_new	correct	task-memory/obj286stethoscope.png	new	n/a
543.809	0.756	memory	test	test_old	correct	task-memory/obj207pants.png	old	n/a
546.694	0.894	memory	test	test_new	correct	task-memory/obj181microphone.png	new	n/a
549.545	0.986	memory	test	test_new	correct	task-memory/obj091duck.png	new	n/a
552.429	0.771	memory	test	test_old	correct	task-memory/obj172lobster.png	old	n/a
555.33	0.832	memory	test	test_old	correct	task-memory/obj200orange.png	old	n/a
558.098	0.849	memory	test	test_new	correct	task-memory/obj329walrus.png	new	n/a
560.766	0.75	memory	test	test_old	correct	task-memory/obj075crown.png	old	n/a
563.583	0.842	memory	test	test_old	correct	task-memory/obj131handcuffs.png	old	n/a
566.134	0.794	memory	test	test_old	correct	task-memory/obj070cow.png	old	n/a
568.902	0.814	memory	test	test_new	correct	task-memory/obj052carrot.png	new	n/a
571.636	0.859	memory	test	test_new	correct	task-memory/obj067comb.png	new	n/a
574.387	0.715	memory	test	test_old	correct	task-memory/obj137helicopter.png	old	n/a
577.188	0.795	memory	test	test_new	correct	task-memory/obj307tomato.png	new	n/a
579.773	0.805	memory	test	test_old	correct	task-memory/obj327volcano.png	old	n/a
582.757	0.845	memory	test	test_new	correct	task-memory/obj055chair.png	new	n/a
585.358	0.819	memory	test	test_old	correct	task-memory/obj065clown.png	old	n/a
588.192	0.789	memory	test	test_new	correct	task-memory/obj229potato.png	new	n/a
590.843	0.712	memory	test	test_old	correct	task-memory/obj168lion.png	old	n/a
593.711	0.66	memory	test	test_old	correct	task-memory/obj018barrel.png	old	n/a
596.329	0.932	memory	test	test_new	correct	task-memory/obj072crab.png	new	n/a
