onset	duration	trial_type	response_value	rating_type	expression	sex	race	age	stim_file_TODO
3.833	1.322	face	n/a	age	disgust	female	WC	old	task-faces/4Disgust_Model2_1Female_1WC_2Old.mp4
5.155	1.415	rating	0.5591	age	disgust	female	WC	old	n/a
5.571	0.998	rating_mouse_trajectory	0.5591	age	disgust	female	WC	old	n/a
7.214	2.043	face	n/a	age	pain	male	African	old	task-faces/7Pain_Model4_2Male_3African_2Old.mp4
9.256	0.185	rating	0.466	age	pain	male	African	old	n/a
n/a	n/a	rating_mouse_trajectory	0.466	age	pain	male	African	old	n/a
11.191	1.316	face	n/a	age	fear	male	EA	old	task-faces/3Fear_Model2_2Male_2EA_2Old.mp4
12.508	0.885	rating	0.5388	age	fear	male	EA	old	n/a
12.558	0.835	rating_mouse_trajectory	0.5388	age	fear	male	EA	old	n/a
15.442	1.301	face	n/a	age	happy	male	EA	old	task-faces/1Happy_Model1_2Male_2EA_2Old.mp4
16.742	0.594	rating	0.4316	age	happy	male	EA	old	n/a
16.859	0.478	rating_mouse_trajectory	0.4316	age	happy	male	EA	old	n/a
18.678	1.315	face	n/a	age	happy	female	EA	old	task-faces/1Happy_Model5_1Female_2EA_2Old.mp4
19.994	0.802	rating	0.5044	age	happy	female	EA	old	n/a
20.06	0.735	rating_mouse_trajectory	0.5044	age	happy	female	EA	old	n/a
25.941	1.305	face	n/a	age	anger	male	WC	young	task-faces/5Anger_Model4_2Male_1WC_1Young.mp4
27.246	0.723	rating	0.2253	age	anger	male	WC	young	n/a
27.346	0.623	rating_mouse_trajectory	0.2253	age	anger	male	WC	young	n/a
29.173	1.308	face	n/a	age	happy	male	WC	young	task-faces/1Happy_Model2_2Male_1WC_1Young.mp4
30.481	0.971	rating	0.1525	age	happy	male	WC	young	n/a
30.531	0.921	rating_mouse_trajectory	0.1525	age	happy	male	WC	young	n/a
32.404	1.311	face	n/a	age	disgust	male	WC	old	task-faces/4Disgust_Model3_2Male_1WC_2Old.mp4
33.715	0.654	rating	0.3022	age	disgust	male	WC	old	n/a
33.815	0.554	rating_mouse_trajectory	0.3022	age	disgust	male	WC	old	n/a
35.64	1.31	face	n/a	age	sad	male	WC	young	task-faces/6Sad_Model5_2Male_1WC_1Young.mp4
36.95	0.619	rating	0.2799	age	sad	male	WC	young	n/a
37.0	0.569	rating_mouse_trajectory	0.2799	age	sad	male	WC	young	n/a
38.873	2.045	face	n/a	age	pleasure	female	WC	young	task-faces/8Pleasure_Model1_1Female_1WC_1Young.mp4
40.918	0.835	rating	0.0129	age	pleasure	female	WC	young	n/a
41.085	0.668	rating_mouse_trajectory	0.0129	age	pleasure	female	WC	young	n/a
44.824	1.312	face	n/a	age	surprise	male	WC	old	task-faces/2Surprise_Model5_2Male_1WC_2Old.mp4
46.137	0.702	rating	0.5854	age	surprise	male	WC	old	n/a
46.47	0.368	rating_mouse_trajectory	0.5854	age	surprise	male	WC	old	n/a
49.057	1.314	face	n/a	age	happy	female	WC	young	task-faces/1Happy_Model2_1Female_1WC_1Young.mp4
50.372	1.118	rating	0.1667	age	happy	female	WC	young	n/a
50.538	0.952	rating_mouse_trajectory	0.1667	age	happy	female	WC	young	n/a
54.291	1.316	face	n/a	age	happy	male	African	young	task-faces/1Happy_Model5_2Male_3African_1Young.mp4
55.607	1.118	rating	0.1485	age	happy	male	African	young	n/a
55.757	0.968	rating_mouse_trajectory	0.1485	age	happy	male	African	young	n/a
58.514	1.328	face	n/a	age	sad	female	African	old	task-faces/6Sad_Model4_1Female_3African_2Old.mp4
59.842	1.068	rating	0.5894	age	sad	female	African	old	n/a
60.492	0.418	rating_mouse_trajectory	0.5894	age	sad	female	African	old	n/a
62.75	2.044	face	n/a	age	pain	female	WC	young	task-faces/7Pain_Model2_1Female_1WC_1Young.mp4
64.794	0.809	rating	0.0	age	pain	female	WC	young	n/a
65.077	0.525	rating_mouse_trajectory	0.0	age	pain	female	WC	young	n/a
67.719	1.309	face	n/a	age	happy	male	WC	old	task-faces/1Happy_Model1_2Male_1WC_2Old.mp4
69.029	0.857	rating	0.4296	age	happy	male	WC	old	n/a
69.529	0.357	rating_mouse_trajectory	0.4296	age	happy	male	WC	old	n/a
71.952	2.045	face	n/a	age	pain	male	EA	young	task-faces/7Pain_Model3_2Male_2EA_1Young.mp4
73.997	1.122	rating	0.1646	age	pain	male	EA	young	n/a
74.28	0.839	rating_mouse_trajectory	0.1646	age	pain	male	EA	young	n/a
76.925	2.041	face	n/a	age	pleasure	male	African	old	task-faces/8Pleasure_Model2_2Male_3African_2Old.mp4
78.966	0.92	rating	0.5611	age	pleasure	male	African	old	n/a
79.249	0.637	rating_mouse_trajectory	0.5611	age	pleasure	male	African	old	n/a
83.889	1.312	face	n/a	age	disgust	male	African	young	task-faces/4Disgust_Model2_2Male_3African_1Young.mp4
85.201	1.535	rating	0.3467	age	disgust	male	African	young	n/a
85.568	1.168	rating_mouse_trajectory	0.3467	age	disgust	male	African	young	n/a
87.123	1.313	face	n/a	age	fear	female	African	old	task-faces/3Fear_Model2_1Female_3African_2Old.mp4
88.436	0.652	rating	0.5146	age	fear	female	African	old	n/a
88.602	0.485	rating_mouse_trajectory	0.5146	age	fear	female	African	old	n/a
91.357	1.313	face	n/a	age	anger	male	EA	young	task-faces/5Anger_Model3_2Male_2EA_1Young.mp4
92.671	1.135	rating	0.1121	age	anger	male	EA	young	n/a
92.937	0.868	rating_mouse_trajectory	0.1121	age	anger	male	EA	young	n/a
94.589	1.316	face	n/a	age	fear	female	EA	young	task-faces/3Fear_Model2_1Female_2EA_1Young.mp4
95.905	1.435	rating	0.1323	age	fear	female	EA	young	n/a
96.105	1.235	rating_mouse_trajectory	0.1323	age	fear	female	EA	young	n/a
98.824	1.316	face	n/a	age	surprise	male	EA	young	task-faces/2Surprise_Model2_2Male_2EA_1Young.mp4
100.14	1.619	rating	0.2698	age	surprise	male	EA	young	n/a
100.74	1.019	rating_mouse_trajectory	0.2698	age	surprise	male	EA	young	n/a
103.058	2.05	face	n/a	age	pleasure	female	African	young	task-faces/8Pleasure_Model5_1Female_3African_1Young.mp4
105.109	1.051	rating	0.1404	age	pleasure	female	African	young	n/a
105.375	0.785	rating_mouse_trajectory	0.1404	age	pleasure	female	African	young	n/a
108.015	2.045	face	n/a	age	pain	male	WC	old	task-faces/7Pain_Model1_2Male_1WC_2Old.mp4
110.061	1.042	rating	0.6258	age	pain	male	WC	old	n/a
110.111	0.992	rating_mouse_trajectory	0.6258	age	pain	male	WC	old	n/a
111.983	1.312	face	n/a	age	sad	male	EA	old	task-faces/6Sad_Model2_2Male_2EA_2Old.mp4
113.295	1.107	rating	0.733	age	sad	male	EA	old	n/a
113.612	0.791	rating_mouse_trajectory	0.733	age	sad	male	EA	old	n/a
115.218	1.311	face	n/a	age	surprise	female	EA	old	task-faces/2Surprise_Model4_1Female_2EA_2Old.mp4
116.53	0.806	rating	0.5348	age	surprise	female	EA	old	n/a
116.946	0.389	rating_mouse_trajectory	0.5348	age	surprise	female	EA	old	n/a
118.453	1.311	face	n/a	age	happy	male	African	old	task-faces/1Happy_Model3_2Male_3African_2Old.mp4
119.764	0.555	rating	0.466	age	happy	male	African	old	n/a
n/a	n/a	rating_mouse_trajectory	0.466	age	happy	male	African	old	n/a
122.688	1.311	face	n/a	age	surprise	female	African	young	task-faces/2Surprise_Model4_1Female_3African_1Young.mp4
123.999	1.403	rating	0.1707	age	surprise	female	African	young	n/a
124.332	1.07	rating_mouse_trajectory	0.1707	age	surprise	female	African	young	n/a
126.906	2.044	face	n/a	age	pain	male	EA	old	task-faces/7Pain_Model1_2Male_2EA_2Old.mp4
128.951	0.668	rating	0.6339	age	pain	male	EA	old	n/a
129.184	0.435	rating_mouse_trajectory	0.6339	age	pain	male	EA	old	n/a
131.858	1.312	face	n/a	age	sad	female	African	young	task-faces/6Sad_Model5_1Female_3African_1Young.mp4
133.169	0.752	rating	0.2516	age	sad	female	African	young	n/a
133.486	0.435	rating_mouse_trajectory	0.2516	age	sad	female	African	young	n/a
135.09	1.314	face	n/a	age	sad	female	WC	young	task-faces/6Sad_Model5_1Female_1WC_1Young.mp4
136.404	0.985	rating	0.2011	age	sad	female	WC	young	n/a
136.57	0.818	rating_mouse_trajectory	0.2011	age	sad	female	WC	young	n/a
138.323	1.315	face	n/a	age	surprise	male	WC	young	task-faces/2Surprise_Model3_2Male_1WC_1Young.mp4
139.638	0.902	rating	0.0979	age	surprise	male	WC	young	n/a
139.705	0.835	rating_mouse_trajectory	0.0979	age	surprise	male	WC	young	n/a
142.557	1.316	face	n/a	age	fear	female	WC	old	task-faces/3Fear_Model3_1Female_1WC_2Old.mp4
143.873	0.351	rating	0.466	age	fear	female	WC	old	n/a
n/a	n/a	rating_mouse_trajectory	0.466	age	fear	female	WC	old	n/a
145.79	2.034	face	n/a	age	pleasure	female	WC	old	task-faces/8Pleasure_Model1_1Female_1WC_2Old.mp4
147.825	0.418	rating	0.466	age	pleasure	female	WC	old	n/a
n/a	n/a	rating_mouse_trajectory	0.466	age	pleasure	female	WC	old	n/a
149.73	1.313	face	n/a	age	happy	female	African	young	task-faces/1Happy_Model4_1Female_3African_1Young.mp4
151.042	1.027	rating	0.2577	age	happy	female	African	young	n/a
151.376	0.693	rating_mouse_trajectory	0.2577	age	happy	female	African	young	n/a
154.957	1.32	face	n/a	age	anger	female	African	old	task-faces/5Anger_Model3_1Female_3African_2Old.mp4
156.278	1.108	rating	0.3487	age	anger	female	African	old	n/a
156.844	0.541	rating_mouse_trajectory	0.3487	age	anger	female	African	old	n/a
160.201	2.046	face	n/a	age	pain	female	African	young	task-faces/7Pain_Model3_1Female_3African_1Young.mp4
162.247	1.039	rating	0.1808	age	pain	female	African	young	n/a
162.497	0.789	rating_mouse_trajectory	0.1808	age	pain	female	African	young	n/a
167.17	1.312	face	n/a	age	disgust	male	EA	old	task-faces/4Disgust_Model4_2Male_2EA_2Old.mp4
168.482	1.12	rating	0.3871	age	disgust	male	EA	old	n/a
169.082	0.52	rating_mouse_trajectory	0.3871	age	disgust	male	EA	old	n/a
171.389	1.311	face	n/a	age	fear	male	EA	young	task-faces/3Fear_Model1_2Male_2EA_1Young.mp4
172.701	0.885	rating	0.1768	age	fear	male	EA	young	n/a
172.984	0.602	rating_mouse_trajectory	0.1768	age	fear	male	EA	young	n/a
175.606	1.313	face	n/a	age	fear	female	WC	young	task-faces/3Fear_Model2_1Female_1WC_1Young.mp4
176.919	1.535	rating	0.199	age	fear	female	WC	young	n/a
177.185	1.269	rating_mouse_trajectory	0.199	age	fear	female	WC	young	n/a
178.823	1.314	face	n/a	age	happy	female	EA	young	task-faces/1Happy_Model4_1Female_2EA_1Young.mp4
180.137	1.535	rating	0.2577	age	happy	female	EA	young	n/a
180.47	1.202	rating_mouse_trajectory	0.2577	age	happy	female	EA	young	n/a
183.061	2.044	face	n/a	age	pleasure	male	WC	young	task-faces/8Pleasure_Model5_2Male_1WC_1Young.mp4
185.105	1.085	rating	0.1707	age	pleasure	male	WC	young	n/a
185.389	0.802	rating_mouse_trajectory	0.1707	age	pleasure	male	WC	young	n/a
187.024	2.05	face	n/a	age	pain	female	African	old	task-faces/7Pain_Model3_1Female_3African_2Old.mp4
189.073	0.501	rating	0.466	age	pain	female	African	old	n/a
n/a	n/a	rating_mouse_trajectory	0.466	age	pain	female	African	old	n/a
192.99	2.052	face	n/a	age	pain	male	African	young	task-faces/7Pain_Model4_2Male_3African_1Young.mp4
195.042	1.702	rating	0.1889	age	pain	male	African	young	n/a
195.459	1.285	rating_mouse_trajectory	0.1889	age	pain	male	African	young	n/a
198.958	1.303	face	n/a	age	disgust	female	EA	old	task-faces/4Disgust_Model3_1Female_2EA_2Old.mp4
200.261	1.051	rating	0.3912	age	disgust	female	EA	old	n/a
200.761	0.551	rating_mouse_trajectory	0.3912	age	disgust	female	EA	old	n/a
203.184	1.312	face	n/a	age	surprise	female	WC	young	task-faces/2Surprise_Model2_1Female_1WC_1Young.mp4
204.496	1.757	rating	0.1201	age	surprise	female	WC	young	n/a
204.729	1.524	rating_mouse_trajectory	0.1201	age	surprise	female	WC	young	n/a
207.419	1.311	face	n/a	age	anger	female	WC	young	task-faces/5Anger_Model5_1Female_1WC_1Young.mp4
208.731	1.472	rating	0.1161	age	anger	female	WC	young	n/a
209.114	1.089	rating_mouse_trajectory	0.1161	age	anger	female	WC	young	n/a
211.655	1.311	face	n/a	age	fear	male	WC	young	task-faces/3Fear_Model5_2Male_1WC_1Young.mp4
212.966	0.837	rating	0.2941	age	fear	male	WC	young	n/a
213.416	0.387	rating_mouse_trajectory	0.2941	age	fear	male	WC	young	n/a
215.873	2.044	face	n/a	age	pleasure	female	EA	old	task-faces/8Pleasure_Model3_1Female_2EA_2Old.mp4
217.917	0.868	rating	0.3952	age	pleasure	female	EA	old	n/a
218.317	0.468	rating_mouse_trajectory	0.3952	age	pleasure	female	EA	old	n/a
220.823	1.313	face	n/a	age	happy	female	WC	old	task-faces/1Happy_Model5_1Female_1WC_2Old.mp4
222.136	0.935	rating	0.4943	age	happy	female	WC	old	n/a
222.769	0.302	rating_mouse_trajectory	0.4943	age	happy	female	WC	old	n/a
225.059	1.312	face	n/a	age	disgust	female	African	old	task-faces/4Disgust_Model3_1Female_3African_2Old.mp4
226.371	0.785	rating	0.3912	age	disgust	female	African	old	n/a
226.887	0.268	rating_mouse_trajectory	0.3912	age	disgust	female	African	old	n/a
229.291	1.314	face	n/a	age	sad	male	EA	young	task-faces/6Sad_Model4_2Male_2EA_1Young.mp4
230.605	0.935	rating	0.3386	age	sad	male	EA	young	n/a
230.805	0.735	rating_mouse_trajectory	0.3386	age	sad	male	EA	young	n/a
232.523	1.317	face	n/a	age	surprise	male	EA	old	task-faces/2Surprise_Model1_2Male_2EA_2Old.mp4
233.84	1.413	rating	0.3184	age	surprise	male	EA	old	n/a
234.257	0.996	rating_mouse_trajectory	0.3184	age	surprise	male	EA	old	n/a
235.757	1.301	face	n/a	age	anger	female	WC	old	task-faces/5Anger_Model1_1Female_1WC_2Old.mp4
237.058	1.444	rating	0.3649	age	anger	female	WC	old	n/a
237.958	0.544	rating_mouse_trajectory	0.3649	age	anger	female	WC	old	n/a
240.974	2.036	face	n/a	age	pleasure	male	African	young	task-faces/8Pleasure_Model2_2Male_3African_1Young.mp4
243.01	0.826	rating	0.1121	age	pleasure	male	African	young	n/a
243.093	0.742	rating_mouse_trajectory	0.1121	age	pleasure	male	African	young	n/a
244.934	1.311	face	n/a	age	fear	female	African	young	task-faces/3Fear_Model5_1Female_3African_1Young.mp4
246.245	0.958	rating	0.0129	age	fear	female	African	young	n/a
246.561	0.641	rating_mouse_trajectory	0.0129	age	fear	female	African	young	n/a
252.169	1.312	face	n/a	age	sad	female	EA	young	task-faces/6Sad_Model3_1Female_2EA_1Young.mp4
253.481	0.938	rating	0.002	age	sad	female	EA	young	n/a
253.814	0.605	rating_mouse_trajectory	0.002	age	sad	female	EA	young	n/a
255.404	1.312	face	n/a	age	anger	female	African	young	task-faces/5Anger_Model2_1Female_3African_1Young.mp4
256.715	1.054	rating	0.1363	age	anger	female	African	young	n/a
257.132	0.637	rating_mouse_trajectory	0.1363	age	anger	female	African	young	n/a
259.624	1.31	face	n/a	age	disgust	female	African	young	task-faces/4Disgust_Model4_1Female_3African_1Young.mp4
260.933	1.669	rating	0.0979	age	disgust	female	African	young	n/a
261.133	1.469	rating_mouse_trajectory	0.0979	age	disgust	female	African	young	n/a
263.84	1.312	face	n/a	age	anger	male	African	old	task-faces/5Anger_Model5_2Male_3African_2Old.mp4
265.152	0.785	rating	0.3366	age	anger	male	African	old	n/a
265.518	0.418	rating_mouse_trajectory	0.3366	age	anger	male	African	old	n/a
268.058	1.312	face	n/a	age	happy	female	African	old	task-faces/1Happy_Model4_1Female_3African_2Old.mp4
269.37	1.118	rating	0.1606	age	happy	female	African	old	n/a
269.803	0.685	rating_mouse_trajectory	0.1606	age	happy	female	African	old	n/a
271.289	1.315	face	n/a	age	fear	male	African	young	task-faces/3Fear_Model1_2Male_3African_1Young.mp4
272.604	0.902	rating	0.0595	age	fear	male	African	young	n/a
273.004	0.502	rating_mouse_trajectory	0.0595	age	fear	male	African	young	n/a
275.524	2.049	face	n/a	age	pleasure	male	WC	old	task-faces/8Pleasure_Model2_2Male_1WC_2Old.mp4
277.573	0.929	rating	0.5105	age	pleasure	male	WC	old	n/a
277.89	0.613	rating_mouse_trajectory	0.5105	age	pleasure	male	WC	old	n/a
279.49	1.301	face	n/a	age	anger	male	WC	old	task-faces/5Anger_Model3_2Male_1WC_2Old.mp4
280.791	1.552	rating	0.5247	age	anger	male	WC	old	n/a
281.374	0.969	rating_mouse_trajectory	0.5247	age	anger	male	WC	old	n/a
283.707	2.036	face	n/a	age	pleasure	male	EA	young	task-faces/8Pleasure_Model4_2Male_2EA_1Young.mp4
285.743	1.068	rating	0.0837	age	pleasure	male	EA	young	n/a
286.209	0.602	rating_mouse_trajectory	0.0837	age	pleasure	male	EA	young	n/a
288.65	2.045	face	n/a	age	pleasure	female	African	old	task-faces/8Pleasure_Model4_1Female_3African_2Old.mp4
290.695	0.785	rating	0.2638	age	pleasure	female	African	old	n/a
290.895	0.585	rating_mouse_trajectory	0.2638	age	pleasure	female	African	old	n/a
292.617	1.312	face	n/a	age	sad	male	WC	old	task-faces/6Sad_Model1_2Male_1WC_2Old.mp4
293.929	0.723	rating	0.3831	age	sad	male	WC	old	n/a
294.412	0.24	rating_mouse_trajectory	0.3831	age	sad	male	WC	old	n/a
297.853	1.312	face	n/a	age	anger	male	EA	old	task-faces/5Anger_Model3_2Male_2EA_2Old.mp4
299.164	0.871	rating	0.3972	age	anger	male	EA	old	n/a
299.714	0.321	rating_mouse_trajectory	0.3972	age	anger	male	EA	old	n/a
302.088	1.311	face	n/a	age	disgust	male	WC	young	task-faces/4Disgust_Model2_2Male_1WC_1Young.mp4
303.399	0.936	rating	0.466	age	disgust	male	WC	young	n/a
n/a	n/a	rating_mouse_trajectory	0.466	age	disgust	male	WC	young	n/a
306.307	2.044	face	n/a	age	pleasure	female	EA	young	task-faces/8Pleasure_Model2_1Female_2EA_1Young.mp4
308.351	1.502	rating	0.1363	age	pleasure	female	EA	young	n/a
308.601	1.252	rating_mouse_trajectory	0.1363	age	pleasure	female	EA	young	n/a
310.273	1.312	face	n/a	age	surprise	female	WC	old	task-faces/2Surprise_Model3_1Female_1WC_2Old.mp4
311.586	0.568	rating	0.5267	age	surprise	female	WC	old	n/a
311.652	0.501	rating_mouse_trajectory	0.5267	age	surprise	female	WC	old	n/a
313.507	1.313	face	n/a	age	happy	male	EA	young	task-faces/1Happy_Model2_2Male_2EA_1Young.mp4
314.82	0.635	rating	0.3588	age	happy	male	EA	young	n/a
315.07	0.385	rating_mouse_trajectory	0.3588	age	happy	male	EA	young	n/a
317.742	1.313	face	n/a	age	fear	female	EA	old	task-faces/3Fear_Model2_1Female_2EA_2Old.mp4
319.055	0.668	rating	0.4782	age	fear	female	EA	old	n/a
319.422	0.302	rating_mouse_trajectory	0.4782	age	fear	female	EA	old	n/a
321.975	2.049	face	n/a	age	pain	female	EA	young	task-faces/7Pain_Model4_1Female_2EA_1Young.mp4
324.024	1.512	rating	0.2011	age	pain	female	EA	young	n/a
324.39	1.145	rating_mouse_trajectory	0.2011	age	pain	female	EA	young	n/a
326.941	1.318	face	n/a	age	sad	male	African	old	task-faces/6Sad_Model2_2Male_3African_2Old.mp4
328.259	1.052	rating	0.3932	age	sad	male	African	old	n/a
329.025	0.285	rating_mouse_trajectory	0.3932	age	sad	male	African	old	n/a
330.165	1.312	face	n/a	age	disgust	female	WC	young	task-faces/4Disgust_Model5_1Female_1WC_1Young.mp4
331.476	0.809	rating	0.193	age	disgust	female	WC	young	n/a
331.876	0.409	rating_mouse_trajectory	0.193	age	disgust	female	WC	young	n/a
335.4	2.045	face	n/a	age	pain	female	EA	old	task-faces/7Pain_Model3_1Female_2EA_2Old.mp4
337.445	0.574	rating	0.466	age	pain	female	EA	old	n/a
n/a	n/a	rating_mouse_trajectory	0.466	age	pain	female	EA	old	n/a
340.369	1.312	face	n/a	age	anger	male	African	young	task-faces/5Anger_Model1_2Male_3African_1Young.mp4
341.68	0.656	rating	0.466	age	anger	male	African	young	n/a
n/a	n/a	rating_mouse_trajectory	0.466	age	anger	male	African	young	n/a
345.605	1.311	face	n/a	age	surprise	male	African	young	task-faces/2Surprise_Model4_2Male_3African_1Young.mp4
346.916	1.037	rating	0.2314	age	surprise	male	African	young	n/a
347.349	0.604	rating_mouse_trajectory	0.2314	age	surprise	male	African	young	n/a
349.823	1.311	face	n/a	age	fear	male	WC	old	task-faces/3Fear_Model1_2Male_1WC_2Old.mp4
351.134	0.418	rating	0.466	age	fear	male	WC	old	n/a
n/a	n/a	rating_mouse_trajectory	0.466	age	fear	male	WC	old	n/a
354.041	1.311	face	n/a	age	anger	female	EA	young	task-faces/5Anger_Model1_1Female_2EA_1Young.mp4
355.352	1.135	rating	0.1687	age	anger	female	EA	young	n/a
355.519	0.968	rating_mouse_trajectory	0.1687	age	anger	female	EA	young	n/a
359.257	1.313	face	n/a	age	surprise	male	African	old	task-faces/2Surprise_Model3_2Male_3African_2Old.mp4
360.571	0.935	rating	0.379	age	surprise	male	African	old	n/a
360.921	0.585	rating_mouse_trajectory	0.379	age	surprise	male	African	old	n/a
362.491	2.031	face	n/a	age	pleasure	male	EA	old	task-faces/8Pleasure_Model4_2Male_2EA_2Old.mp4
364.522	1.102	rating	0.3669	age	pleasure	male	EA	old	n/a
364.872	0.752	rating_mouse_trajectory	0.3669	age	pleasure	male	EA	old	n/a
366.44	2.033	face	n/a	age	pain	female	WC	old	task-faces/7Pain_Model5_1Female_1WC_2Old.mp4
368.474	0.335	rating	0.466	age	pain	female	WC	old	n/a
n/a	n/a	rating_mouse_trajectory	0.466	age	pain	female	WC	old	n/a
372.38	1.312	face	n/a	age	anger	female	EA	old	task-faces/5Anger_Model3_1Female_2EA_2Old.mp4
373.692	0.81	rating	0.3487	age	anger	female	EA	old	n/a
374.009	0.494	rating_mouse_trajectory	0.3487	age	anger	female	EA	old	n/a
376.599	2.045	face	n/a	age	pain	male	WC	young	task-faces/7Pain_Model5_2Male_1WC_1Young.mp4
378.644	1.491	rating	0.0433	age	pain	male	WC	young	n/a
378.694	1.441	rating_mouse_trajectory	0.0433	age	pain	male	WC	young	n/a
381.568	1.311	face	n/a	age	disgust	female	EA	young	task-faces/4Disgust_Model5_1Female_2EA_1Young.mp4
382.879	1.14	rating	0.2011	age	disgust	female	EA	young	n/a
383.262	0.757	rating_mouse_trajectory	0.2011	age	disgust	female	EA	young	n/a
387.803	1.312	face	n/a	age	disgust	male	African	old	task-faces/4Disgust_Model1_2Male_3African_2Old.mp4
389.115	0.904	rating	0.375	age	disgust	male	African	old	n/a
389.665	0.354	rating_mouse_trajectory	0.375	age	disgust	male	African	old	n/a
391.038	1.312	face	n/a	age	fear	male	African	old	task-faces/3Fear_Model4_2Male_3African_2Old.mp4
392.349	1.587	rating	0.553	age	fear	male	African	old	n/a
392.932	1.003	rating_mouse_trajectory	0.553	age	fear	male	African	old	n/a
396.274	1.31	face	n/a	age	sad	male	African	young	task-faces/6Sad_Model2_2Male_3African_1Young.mp4
397.584	0.885	rating	0.3447	age	sad	male	African	young	n/a
397.968	0.502	rating_mouse_trajectory	0.3447	age	sad	male	African	young	n/a
400.492	1.311	face	n/a	age	sad	female	EA	old	task-faces/6Sad_Model1_1Female_2EA_2Old.mp4
401.803	1.152	rating	0.5712	age	sad	female	EA	old	n/a
402.536	0.418	rating_mouse_trajectory	0.5712	age	sad	female	EA	old	n/a
405.726	1.312	face	n/a	age	surprise	female	EA	young	task-faces/2Surprise_Model3_1Female_2EA_1Young.mp4
407.038	0.852	rating	0.1303	age	surprise	female	EA	young	n/a
407.405	0.485	rating_mouse_trajectory	0.1303	age	surprise	female	EA	young	n/a
409.958	1.315	face	n/a	age	sad	female	WC	old	task-faces/6Sad_Model1_1Female_1WC_2Old.mp4
411.273	0.635	rating	0.466	age	sad	female	WC	old	n/a
n/a	n/a	rating_mouse_trajectory	0.466	age	sad	female	WC	old	n/a
413.179	1.312	face	n/a	age	surprise	female	African	old	task-faces/2Surprise_Model1_1Female_3African_2Old.mp4
414.491	0.718	rating	0.3467	age	surprise	female	African	old	n/a
414.924	0.285	rating_mouse_trajectory	0.3467	age	surprise	female	African	old	n/a
416.395	1.313	face	n/a	age	disgust	male	EA	young	task-faces/4Disgust_Model2_2Male_2EA_1Young.mp4
417.709	0.551	rating	0.2597	age	disgust	male	EA	young	n/a
417.892	0.368	rating_mouse_trajectory	0.2597	age	disgust	male	EA	young	n/a
