onset	duration	run_type	trial_type	trial_index	cue	stimulusintensity	rating_value	rating_glmslabel	rating_value_fillna	rating_glmslabel_fillna	rating_mouseonset	rating_mousedur	stim_file	pain_onset_ttl1	pain_onset_ttl2	pain_onset_ttl3	pain_onset_ttl4	pain_stimulus_delivery_success	cognitive_correct_response	cognitive_participant_response	cognitive_response_accuracy
11.6	0.98	vicarious	cue	1	low_cue	n/a	n/a	n/a	n/a	n/a	n/a	n/a	task-social/cue/runtype-vicarious/scl/l019.png	n/a	n/a	n/a	n/a	n/a	n/a	n/a	n/a
14.8	1.65	vicarious	expectrating	1	low_cue	n/a	23.2	Moderate	23.2	Moderate	0.1	1.55	task-social/cue/runtype-vicarious/scl/l019.png	n/a	n/a	n/a	n/a	n/a	n/a	n/a	n/a
21.48	5.0	vicarious	stimulus	1	low_cue	low_stim	n/a	n/a	n/a	n/a	n/a	n/a	task-social/stim/runtype-vicarious/nm106t1aaunaff_L.mp4	n/a	n/a	n/a	n/a	n/a	n/a	n/a	n/a
36.91	1.73	vicarious	outcomerating	1	low_cue	low_stim	9.99	Weak	9.99	Weak	0.1	1.55	task-social/outcomerating/task-vicarious_scale.png	n/a	n/a	n/a	n/a	n/a	n/a	n/a	n/a
42.39	0.99	vicarious	cue	2	high_cue	n/a	n/a	n/a	n/a	n/a	n/a	n/a	task-social/cue/runtype-vicarious/sch/h053.png	n/a	n/a	n/a	n/a	n/a	n/a	n/a	n/a
44.19	1.42	vicarious	expectrating	2	high_cue	n/a	42.07	Strong	42.07	Strong	0.73	0.69	task-social/cue/runtype-vicarious/sch/h053.png	n/a	n/a	n/a	n/a	n/a	n/a	n/a	n/a
57.48	5.0	vicarious	stimulus	2	high_cue	med_stim	n/a	n/a	n/a	n/a	n/a	n/a	task-social/stim/runtype-vicarious/bn080t1aeaff_M.mp4	n/a	n/a	n/a	n/a	n/a	n/a	n/a	n/a
67.5	1.42	vicarious	outcomerating	2	high_cue	med_stim	0.7	No-sensation	0.7	No-sensation	0.73	0.69	task-social/outcomerating/task-vicarious_scale.png	n/a	n/a	n/a	n/a	n/a	n/a	n/a	n/a
74.19	0.99	vicarious	cue	3	high_cue	n/a	n/a	n/a	n/a	n/a	n/a	n/a	task-social/cue/runtype-vicarious/sch/h004.png	n/a	n/a	n/a	n/a	n/a	n/a	n/a	n/a
77.39	1.7	vicarious	expectrating	3	high_cue	n/a	41.56	Strong	41.56	Strong	0.52	1.18	task-social/cue/runtype-vicarious/sch/h004.png	n/a	n/a	n/a	n/a	n/a	n/a	n/a	n/a
85.08	5.0	vicarious	stimulus	3	high_cue	low_stim	n/a	n/a	n/a	n/a	n/a	n/a	task-social/stim/runtype-vicarious/mg101t2afunaff_L.mp4	n/a	n/a	n/a	n/a	n/a	n/a	n/a	n/a
96.6	3.54	vicarious	outcomerating	3	high_cue	low_stim	42.02	Strong	42.02	Strong	0.52	1.18	task-social/outcomerating/task-vicarious_scale.png	n/a	n/a	n/a	n/a	n/a	n/a	n/a	n/a
110.59	0.99	vicarious	cue	4	high_cue	n/a	n/a	n/a	n/a	n/a	n/a	n/a	task-social/cue/runtype-vicarious/sch/h001.png	n/a	n/a	n/a	n/a	n/a	n/a	n/a	n/a
113.3	2.35	vicarious	expectrating	4	high_cue	n/a	34.71	Strong	34.71	Strong	0.25	2.1	task-social/cue/runtype-vicarious/sch/h001.png	n/a	n/a	n/a	n/a	n/a	n/a	n/a	n/a
119.98	5.0	vicarious	stimulus	4	high_cue	high_stim	n/a	n/a	n/a	n/a	n/a	n/a	task-social/stim/runtype-vicarious/nm106t1afaff_H.mp4	n/a	n/a	n/a	n/a	n/a	n/a	n/a	n/a
133.21	2.2	vicarious	outcomerating	4	high_cue	high_stim	63.12	Strong	63.12	Strong	0.25	2.1	task-social/outcomerating/task-vicarious_scale.png	n/a	n/a	n/a	n/a	n/a	n/a	n/a	n/a
139.9	0.98	vicarious	cue	5	low_cue	n/a	n/a	n/a	n/a	n/a	n/a	n/a	task-social/cue/runtype-vicarious/scl/l036.png	n/a	n/a	n/a	n/a	n/a	n/a	n/a	n/a
143.1	1.34	vicarious	expectrating	5	low_cue	n/a	34.07	Strong	34.07	Strong	0.05	1.29	task-social/cue/runtype-vicarious/scl/l036.png	n/a	n/a	n/a	n/a	n/a	n/a	n/a	n/a
156.78	5.0	vicarious	stimulus	5	low_cue	med_stim	n/a	n/a	n/a	n/a	n/a	n/a	task-social/stim/runtype-vicarious/bg096t2aaaff_M.mp4	n/a	n/a	n/a	n/a	n/a	n/a	n/a	n/a
165.71	3.65	vicarious	outcomerating	5	low_cue	med_stim	79.86	Very-Strong	79.86	Very-Strong	0.05	1.29	task-social/outcomerating/task-vicarious_scale.png	n/a	n/a	n/a	n/a	n/a	n/a	n/a	n/a
181.3	0.98	vicarious	cue	6	low_cue	n/a	n/a	n/a	n/a	n/a	n/a	n/a	task-social/cue/runtype-vicarious/scl/l046.png	n/a	n/a	n/a	n/a	n/a	n/a	n/a	n/a
183.7	1.69	vicarious	expectrating	6	low_cue	n/a	36.87	Strong	36.87	Strong	0.48	1.21	task-social/cue/runtype-vicarious/scl/l046.png	n/a	n/a	n/a	n/a	n/a	n/a	n/a	n/a
196.78	5.0	vicarious	stimulus	6	low_cue	high_stim	n/a	n/a	n/a	n/a	n/a	n/a	task-social/stim/runtype-vicarious/bn080t1afaff_H.mp4	n/a	n/a	n/a	n/a	n/a	n/a	n/a	n/a
210.41	2.27	vicarious	outcomerating	6	low_cue	high_stim	36.87	Strong	36.87	Strong	0.48	1.21	task-social/outcomerating/task-vicarious_scale.png	n/a	n/a	n/a	n/a	n/a	n/a	n/a	n/a
216.09	0.99	vicarious	cue	7	low_cue	n/a	n/a	n/a	n/a	n/a	n/a	n/a	task-social/cue/runtype-vicarious/scl/l011.png	n/a	n/a	n/a	n/a	n/a	n/a	n/a	n/a
218.69	2.48	vicarious	expectrating	7	low_cue	n/a	26.87	Moderate	26.87	Moderate	0.4	2.08	task-social/cue/runtype-vicarious/scl/l011.png	n/a	n/a	n/a	n/a	n/a	n/a	n/a	n/a
235.78	5.0	vicarious	stimulus	7	low_cue	med_stim	n/a	n/a	n/a	n/a	n/a	n/a	task-social/stim/runtype-vicarious/bm049t2aeaff_M.mp4	n/a	n/a	n/a	n/a	n/a	n/a	n/a	n/a
244.5	3.37	vicarious	outcomerating	7	low_cue	med_stim	13.03	Moderate	13.03	Moderate	0.4	2.08	task-social/outcomerating/task-vicarious_scale.png	n/a	n/a	n/a	n/a	n/a	n/a	n/a	n/a
250.39	0.99	vicarious	cue	8	low_cue	n/a	n/a	n/a	n/a	n/a	n/a	n/a	task-social/cue/runtype-vicarious/scl/l016.png	n/a	n/a	n/a	n/a	n/a	n/a	n/a	n/a
253.09	3.87	vicarious	expectrating	8	low_cue	n/a	3.24	Weak	3.24	Weak	0.1	3.77	task-social/cue/runtype-vicarious/scl/l016.png	n/a	n/a	n/a	n/a	n/a	n/a	n/a	n/a
265.78	5.0	vicarious	stimulus	8	low_cue	high_stim	n/a	n/a	n/a	n/a	n/a	n/a	task-social/stim/runtype-vicarious/ib109t1aiaff_H.mp4	n/a	n/a	n/a	n/a	n/a	n/a	n/a	n/a
282.7	n/a	vicarious	outcomerating	8	low_cue	high_stim	n/a	n/a	15.59	Moderate	0.1	3.77	task-social/outcomerating/task-vicarious_scale.png	n/a	n/a	n/a	n/a	n/a	n/a	n/a	n/a
287.69	1.0	vicarious	cue	9	high_cue	n/a	n/a	n/a	n/a	n/a	n/a	n/a	task-social/cue/runtype-vicarious/sch/h041.png	n/a	n/a	n/a	n/a	n/a	n/a	n/a	n/a
289.5	1.9	vicarious	expectrating	9	high_cue	n/a	48.9	Strong	48.9	Strong	0.27	1.63	task-social/cue/runtype-vicarious/sch/h041.png	n/a	n/a	n/a	n/a	n/a	n/a	n/a	n/a
297.08	5.0	vicarious	stimulus	9	high_cue	low_stim	n/a	n/a	n/a	n/a	n/a	n/a	task-social/stim/runtype-vicarious/tv095t2aeunaff_L.mp4	n/a	n/a	n/a	n/a	n/a	n/a	n/a	n/a
308.21	3.63	vicarious	outcomerating	9	high_cue	low_stim	46.46	Strong	46.46	Strong	0.27	1.63	task-social/outcomerating/task-vicarious_scale.png	n/a	n/a	n/a	n/a	n/a	n/a	n/a	n/a
318.0	0.98	vicarious	cue	10	high_cue	n/a	n/a	n/a	n/a	n/a	n/a	n/a	task-social/cue/runtype-vicarious/sch/h014.png	n/a	n/a	n/a	n/a	n/a	n/a	n/a	n/a
320.6	1.77	vicarious	expectrating	10	high_cue	n/a	45.99	Strong	45.99	Strong	0.37	1.4	task-social/cue/runtype-vicarious/sch/h014.png	n/a	n/a	n/a	n/a	n/a	n/a	n/a	n/a
328.18	5.0	vicarious	stimulus	10	high_cue	high_stim	n/a	n/a	n/a	n/a	n/a	n/a	task-social/stim/runtype-vicarious/dr052t1aiaff_H.mp4	n/a	n/a	n/a	n/a	n/a	n/a	n/a	n/a
337.5	2.98	vicarious	outcomerating	10	high_cue	high_stim	72.09	Very-Strong	72.09	Very-Strong	0.37	1.4	task-social/outcomerating/task-vicarious_scale.png	n/a	n/a	n/a	n/a	n/a	n/a	n/a	n/a
343.89	0.99	vicarious	cue	11	high_cue	n/a	n/a	n/a	n/a	n/a	n/a	n/a	task-social/cue/runtype-vicarious/sch/h051.png	n/a	n/a	n/a	n/a	n/a	n/a	n/a	n/a
345.69	2.85	vicarious	expectrating	11	high_cue	n/a	47.73	Strong	47.73	Strong	0.7	2.15	task-social/cue/runtype-vicarious/sch/h051.png	n/a	n/a	n/a	n/a	n/a	n/a	n/a	n/a
357.78	5.0	vicarious	stimulus	11	high_cue	med_stim	n/a	n/a	n/a	n/a	n/a	n/a	task-social/stim/runtype-vicarious/nm106t2aaunaff_M.mp4	n/a	n/a	n/a	n/a	n/a	n/a	n/a	n/a
366.7	3.07	vicarious	outcomerating	11	high_cue	med_stim	21.12	Moderate	21.12	Moderate	0.7	2.15	task-social/outcomerating/task-vicarious_scale.png	n/a	n/a	n/a	n/a	n/a	n/a	n/a	n/a
374.8	0.98	vicarious	cue	12	low_cue	n/a	n/a	n/a	n/a	n/a	n/a	n/a	task-social/cue/runtype-vicarious/scl/l025.png	n/a	n/a	n/a	n/a	n/a	n/a	n/a	n/a
376.7	2.53	vicarious	expectrating	12	low_cue	n/a	36.04	Strong	36.04	Strong	0.35	2.18	task-social/cue/runtype-vicarious/scl/l025.png	n/a	n/a	n/a	n/a	n/a	n/a	n/a	n/a
384.28	5.0	vicarious	stimulus	12	low_cue	low_stim	n/a	n/a	n/a	n/a	n/a	n/a	task-social/stim/runtype-vicarious/dr052t1aeunaff_L.mp4	n/a	n/a	n/a	n/a	n/a	n/a	n/a	n/a
394.81	1.73	vicarious	outcomerating	12	low_cue	low_stim	4.61	Weak	4.61	Weak	0.35	2.18	task-social/outcomerating/task-vicarious_scale.png	n/a	n/a	n/a	n/a	n/a	n/a	n/a	n/a
