onset	duration	run_type	trial_type	trial_index	cue	stimulusintensity	rating_value	rating_glmslabel	rating_value_fillna	rating_glmslabel_fillna	rating_mouseonset	rating_mousedur	stim_file	pain_onset_ttl1	pain_onset_ttl2	pain_onset_ttl3	pain_onset_ttl4	pain_stimulus_delivery_success	cognitive_correct_response	cognitive_participant_response	cognitive_response_accuracy
5.02	0.98	pain	cue	1	high_cue	n/a	n/a	n/a	n/a	n/a	n/a	n/a	task-social/cue/runtype-pain/sch/h045.png	n/a	n/a	n/a	n/a	n/a	n/a	n/a	n/a
7.22	1.91	pain	expectrating	1	high_cue	n/a	86.45	Very-Strong	86.45	Very-Strong	0.05	1.86	task-social/cue/runtype-pain/sch/h045.png	n/a	n/a	n/a	n/a	n/a	n/a	n/a	n/a
17.24	11.91	pain	stimulus	1	high_cue	low_stim	n/a	n/a	n/a	n/a	n/a	n/a	n/a	17.24	20.74	25.74	29.14	success	n/a	n/a	n/a
27.41	3.0	pain	outcomerating	1	high_cue	low_stim	78.23	Very-Strong	78.23	Very-Strong	0.05	1.86	task-social/outcomerating/task-pain_scale.png	n/a	n/a	n/a	n/a	success	n/a	n/a	n/a
39.62	1.0	pain	cue	2	high_cue	n/a	n/a	n/a	n/a	n/a	n/a	n/a	task-social/cue/runtype-pain/sch/h035.png	n/a	n/a	n/a	n/a	n/a	n/a	n/a	n/a
42.82	2.05	pain	expectrating	2	high_cue	n/a	79.28	Very-Strong	79.28	Very-Strong	0.52	1.53	task-social/cue/runtype-pain/sch/h035.png	n/a	n/a	n/a	n/a	n/a	n/a	n/a	n/a
48.53	11.899999999999999	pain	stimulus	2	high_cue	low_stim	n/a	n/a	n/a	n/a	n/a	n/a	n/a	48.53	52.03	57.03	60.43	success	n/a	n/a	n/a
61.81	3.04	pain	outcomerating	2	high_cue	low_stim	53.5	Strong	53.5	Strong	0.52	1.53	task-social/outcomerating/task-pain_scale.png	n/a	n/a	n/a	n/a	success	n/a	n/a	n/a
72.51	1.0	pain	cue	3	high_cue	n/a	n/a	n/a	n/a	n/a	n/a	n/a	task-social/cue/runtype-pain/sch/h052.png	n/a	n/a	n/a	n/a	n/a	n/a	n/a	n/a
74.51	1.65	pain	expectrating	3	high_cue	n/a	95.45	Very-Strong	95.45	Very-Strong	0.4	1.25	task-social/cue/runtype-pain/sch/h052.png	n/a	n/a	n/a	n/a	n/a	n/a	n/a	n/a
80.27	12.36	pain	stimulus	3	high_cue	med_stim	n/a	n/a	n/a	n/a	n/a	n/a	n/a	80.27	84.03	89.03	92.64	success	n/a	n/a	n/a
93.12	2.43	pain	outcomerating	3	high_cue	med_stim	50.05	Strong	50.05	Strong	0.4	1.25	task-social/outcomerating/task-pain_scale.png	n/a	n/a	n/a	n/a	success	n/a	n/a	n/a
105.31	1.0	pain	cue	4	low_cue	n/a	n/a	n/a	n/a	n/a	n/a	n/a	task-social/cue/runtype-pain/scl/l046.png	n/a	n/a	n/a	n/a	n/a	n/a	n/a	n/a
107.31	n/a	pain	expectrating	4	low_cue	n/a	n/a	n/a	48.27	Strong	0.42	3.45	task-social/cue/runtype-pain/scl/l046.png	n/a	n/a	n/a	n/a	n/a	n/a	n/a	n/a
113.04	12.36	pain	stimulus	4	low_cue	med_stim	n/a	n/a	n/a	n/a	n/a	n/a	n/a	113.04	116.8	121.8	125.41	success	n/a	n/a	n/a
123.22	2.28	pain	outcomerating	4	low_cue	med_stim	57.14	Strong	57.14	Strong	0.42	3.45	task-social/outcomerating/task-pain_scale.png	n/a	n/a	n/a	n/a	success	n/a	n/a	n/a
129.42	0.98	pain	cue	5	high_cue	n/a	n/a	n/a	n/a	n/a	n/a	n/a	task-social/cue/runtype-pain/sch/h007.png	n/a	n/a	n/a	n/a	n/a	n/a	n/a	n/a
133.32	2.63	pain	expectrating	5	high_cue	n/a	87.69	Very-Strong	87.69	Very-Strong	0.15	2.48	task-social/cue/runtype-pain/sch/h007.png	n/a	n/a	n/a	n/a	n/a	n/a	n/a	n/a
148.96	12.819999999999993	pain	stimulus	5	high_cue	high_stim	n/a	n/a	n/a	n/a	n/a	n/a	n/a	148.96	152.97	157.97	161.78	success	n/a	n/a	n/a
163.11	1.9	pain	outcomerating	5	high_cue	high_stim	24.1	Moderate	24.1	Moderate	0.15	2.48	task-social/outcomerating/task-pain_scale.png	n/a	n/a	n/a	n/a	success	n/a	n/a	n/a
167.92	1.0	pain	cue	6	low_cue	n/a	n/a	n/a	n/a	n/a	n/a	n/a	task-social/cue/runtype-pain/scl/l016.png	n/a	n/a	n/a	n/a	n/a	n/a	n/a	n/a
171.12	2.03	pain	expectrating	6	low_cue	n/a	56.25	Strong	56.25	Strong	0.07	1.97	task-social/cue/runtype-pain/scl/l016.png	n/a	n/a	n/a	n/a	n/a	n/a	n/a	n/a
180.34	12.829999999999984	pain	stimulus	6	low_cue	high_stim	n/a	n/a	n/a	n/a	n/a	n/a	n/a	180.34	184.35	189.35	193.16	success	n/a	n/a	n/a
191.11	1.67	pain	outcomerating	6	low_cue	high_stim	60.2	Strong	60.2	Strong	0.07	1.97	task-social/outcomerating/task-pain_scale.png	n/a	n/a	n/a	n/a	success	n/a	n/a	n/a
200.51	1.0	pain	cue	7	high_cue	n/a	n/a	n/a	n/a	n/a	n/a	n/a	task-social/cue/runtype-pain/sch/h039.png	n/a	n/a	n/a	n/a	n/a	n/a	n/a	n/a
202.51	2.12	pain	expectrating	7	high_cue	n/a	80.76	Very-Strong	80.76	Very-Strong	1.08	1.03	task-social/cue/runtype-pain/sch/h039.png	n/a	n/a	n/a	n/a	n/a	n/a	n/a	n/a
212.94	12.819999999999993	pain	stimulus	7	high_cue	high_stim	n/a	n/a	n/a	n/a	n/a	n/a	n/a	212.94	216.95	221.95	225.76	success	n/a	n/a	n/a
226.72	2.65	pain	outcomerating	7	high_cue	high_stim	35.86	Strong	35.86	Strong	1.08	1.03	task-social/outcomerating/task-pain_scale.png	n/a	n/a	n/a	n/a	success	n/a	n/a	n/a
237.01	1.0	pain	cue	8	high_cue	n/a	n/a	n/a	n/a	n/a	n/a	n/a	task-social/cue/runtype-pain/sch/h046.png	n/a	n/a	n/a	n/a	n/a	n/a	n/a	n/a
240.21	2.32	pain	expectrating	8	high_cue	n/a	70.91	Very-Strong	70.91	Very-Strong	0.12	2.2	task-social/cue/runtype-pain/sch/h046.png	n/a	n/a	n/a	n/a	n/a	n/a	n/a	n/a
249.44	12.360000000000014	pain	stimulus	8	high_cue	med_stim	n/a	n/a	n/a	n/a	n/a	n/a	n/a	249.44	253.2	258.2	261.81	success	n/a	n/a	n/a
262.72	1.9	pain	outcomerating	8	high_cue	med_stim	58.3	Strong	58.3	Strong	0.12	2.2	task-social/outcomerating/task-pain_scale.png	n/a	n/a	n/a	n/a	success	n/a	n/a	n/a
268.5	1.0	pain	cue	9	low_cue	n/a	n/a	n/a	n/a	n/a	n/a	n/a	task-social/cue/runtype-pain/scl/l041.png	n/a	n/a	n/a	n/a	n/a	n/a	n/a	n/a
271.72	1.38	pain	expectrating	9	low_cue	n/a	33.56	Strong	33.56	Strong	0.37	1.02	task-social/cue/runtype-pain/scl/l041.png	n/a	n/a	n/a	n/a	n/a	n/a	n/a	n/a
278.74	11.909999999999968	pain	stimulus	9	low_cue	low_stim	n/a	n/a	n/a	n/a	n/a	n/a	n/a	278.74	282.24	287.24	290.64	success	n/a	n/a	n/a
288.91	2.57	pain	outcomerating	9	low_cue	low_stim	36.64	Strong	36.64	Strong	0.37	1.02	task-social/outcomerating/task-pain_scale.png	n/a	n/a	n/a	n/a	success	n/a	n/a	n/a
296.41	1.0	pain	cue	10	low_cue	n/a	n/a	n/a	n/a	n/a	n/a	n/a	task-social/cue/runtype-pain/scl/l021.png	n/a	n/a	n/a	n/a	n/a	n/a	n/a	n/a
298.31	1.95	pain	expectrating	10	low_cue	n/a	42.07	Strong	42.07	Strong	0.43	1.52	task-social/cue/runtype-pain/scl/l021.png	n/a	n/a	n/a	n/a	n/a	n/a	n/a	n/a
306.74	12.819999999999993	pain	stimulus	10	low_cue	high_stim	n/a	n/a	n/a	n/a	n/a	n/a	n/a	306.74	310.75	315.75	319.56	success	n/a	n/a	n/a
320.02	1.99	pain	outcomerating	10	low_cue	high_stim	52.49	Strong	52.49	Strong	0.43	1.52	task-social/outcomerating/task-pain_scale.png	n/a	n/a	n/a	n/a	success	n/a	n/a	n/a
330.71	1.0	pain	cue	11	low_cue	n/a	n/a	n/a	n/a	n/a	n/a	n/a	task-social/cue/runtype-pain/scl/l024.png	n/a	n/a	n/a	n/a	n/a	n/a	n/a	n/a
332.41	1.32	pain	expectrating	11	low_cue	n/a	53.82	Strong	53.82	Strong	0.32	1.0	task-social/cue/runtype-pain/scl/l024.png	n/a	n/a	n/a	n/a	n/a	n/a	n/a	n/a
340.06	11.899999999999977	pain	stimulus	11	low_cue	low_stim	n/a	n/a	n/a	n/a	n/a	n/a	n/a	340.06	343.56	348.56	351.96	success	n/a	n/a	n/a
365.82	2.76	pain	outcomerating	11	low_cue	low_stim	9.04	Weak	9.04	Weak	0.32	1.0	task-social/outcomerating/task-pain_scale.png	n/a	n/a	n/a	n/a	success	n/a	n/a	n/a
372.01	1.0	pain	cue	12	low_cue	n/a	n/a	n/a	n/a	n/a	n/a	n/a	task-social/cue/runtype-pain/scl/l049.png	n/a	n/a	n/a	n/a	n/a	n/a	n/a	n/a
373.61	2.29	pain	expectrating	12	low_cue	n/a	32.42	Strong	32.42	Strong	0.05	2.24	task-social/cue/runtype-pain/scl/l049.png	n/a	n/a	n/a	n/a	n/a	n/a	n/a	n/a
381.24	12.360000000000014	pain	stimulus	12	low_cue	med_stim	n/a	n/a	n/a	n/a	n/a	n/a	n/a	381.24	385.0	390.0	393.61	success	n/a	n/a	n/a
395.22	2.18	pain	outcomerating	12	low_cue	med_stim	27.5	Moderate	27.5	Moderate	0.05	2.24	task-social/outcomerating/task-pain_scale.png	n/a	n/a	n/a	n/a	success	n/a	n/a	n/a
