onset	duration	subtask_type	event_type	value	response_accuracy	stim_file	participant_response	reaction_time
7.926	1.034	memory	dummy	study_dummy	n/a	task-memory/obj022bell.png	n/a	n/a
9.976	1.017	memory	dummy	study_dummy	n/a	task-memory/obj030bone.png	n/a	n/a
12.027	1.017	memory	dummy	study_dummy	n/a	task-memory/obj045camel.png	n/a	n/a
14.078	1.017	memory	study	study	n/a	task-memory/obj313trophy.png	n/a	n/a
16.129	1.017	memory	study	study	n/a	task-memory/obj073crackers.png	n/a	n/a
18.179	1.017	memory	study	study	n/a	task-memory/obj259scarf.png	n/a	n/a
20.214	1.017	memory	study	study	n/a	task-memory/obj069corn.png	n/a	n/a
22.248	1.017	memory	study	study	n/a	task-memory/obj277snake.png	n/a	n/a
24.282	1.017	memory	study	study	n/a	task-memory/obj332well.png	n/a	n/a
26.316	1.017	memory	study	study	n/a	task-memory/obj310tractor.png	n/a	n/a
28.35	1.017	memory	study	study	n/a	task-memory/obj214pencil.png	n/a	n/a
30.384	1.017	memory	study	study	n/a	task-memory/obj274slide.png	n/a	n/a
32.418	1.017	memory	study	study	n/a	task-memory/obj226plate.png	n/a	n/a
34.452	1.017	memory	study	study	n/a	task-memory/obj327volcano.png	n/a	n/a
36.486	1.017	memory	study	study	n/a	task-memory/obj260scissors.png	n/a	n/a
38.52	1.017	memory	study	study	n/a	task-memory/obj154key.png	n/a	n/a
40.554	1.017	memory	study	study	n/a	task-memory/obj192nail.png	n/a	n/a
42.589	1.017	memory	study	study	n/a	task-memory/obj092ear.png	n/a	n/a
44.623	1.017	memory	study	study	n/a	task-memory/obj141hoof.png	n/a	n/a
46.657	1.034	memory	study	study	n/a	task-memory/obj336wheelchair.png	n/a	n/a
48.707	1.034	memory	study	study	n/a	task-memory/obj306toilet.png	n/a	n/a
50.758	1.017	memory	study	study	n/a	task-memory/obj303tiger.png	n/a	n/a
52.809	1.017	memory	study	study	n/a	task-memory/obj224pitchfork.png	n/a	n/a
54.843	1.017	memory	dummy	study_dummy	n/a	task-memory/obj163leaf.png	n/a	n/a
56.894	1.017	memory	dummy	study_dummy	n/a	task-memory/obj193needle.png	n/a	n/a
58.928	1.017	memory	dummy	study_dummy	n/a	task-memory/obj325vest.png	n/a	n/a
71.049	25.0	memory	distraction_math	math	n/a	n/a	n/a	n/a
99.11	25.0	memory	distraction_math	math	n/a	n/a	n/a	n/a
127.17	25.0	memory	distraction_math	math	n/a	n/a	n/a	n/a
155.231	25.0	memory	distraction_math	math	n/a	n/a	n/a	n/a
188.91	1.514	memory	test	test_old	correct	task-memory/obj226plate.png	old	n/a
191.994	0.734	memory	test	test_old	correct	task-memory/obj259scarf.png	old	n/a
194.995	0.775	memory	test	test_old	correct	task-memory/obj224pitchfork.png	old	n/a
197.713	0.968	memory	test	test_new	correct	task-memory/obj283spider.png	new	n/a
200.647	1.393	memory	test	test_new	correct	task-memory/obj132hanger.png	new	n/a
203.632	0.717	memory	test	test_old	correct	task-memory/obj327volcano.png	old	n/a
206.65	0.955	memory	test	test_new	correct	task-memory/obj219pillow.png	new	n/a
209.401	0.737	memory	test	test_old	correct	task-memory/obj092ear.png	old	n/a
212.218	0.7	memory	test	test_old	correct	task-memory/obj277snake.png	old	n/a
214.919	0.783	memory	test	test_new	correct	task-memory/obj031book.png	new	n/a
217.754	0.863	memory	test	test_new	correct	task-memory/obj002acorn.png	new	n/a
220.422	0.971	memory	test	test_new	correct	task-memory/obj105flag.png	new	n/a
223.273	0.76	memory	test	test_old	correct	task-memory/obj313trophy.png	old	n/a
225.99	0.889	memory	test	test_new	correct	task-memory/obj127hair.png	new	n/a
228.858	1.157	memory	test	test_new	correct	task-memory/obj169lips.png	new	n/a
231.692	0.705	memory	test	test_old	correct	task-memory/obj310tractor.png	old	n/a
234.26	0.993	memory	test	test_old	correct	task-memory/obj073crackers.png	old	n/a
237.061	0.966	memory	test	test_new	correct	task-memory/obj099faucet.png	new	n/a
239.912	0.902	memory	test	test_new	correct	task-memory/obj218pig.png	new	n/a
242.68	0.914	memory	test	test_new	correct	task-memory/obj271skis.png	new	n/a
245.464	1.178	memory	test	test_new	correct	task-memory/obj228porcupine.png	new	n/a
248.499	1.499	memory	test	test_new	incorrect	task-memory/obj309top.png	old	n/a
251.083	1.142	memory	test	test_new	correct	task-memory/obj200orange.png	new	n/a
253.651	0.927	memory	test	test_old	correct	task-memory/obj332well.png	old	n/a
256.285	1.229	memory	test	test_new	correct	task-memory/obj034bowl.png	new	n/a
259.203	1.437	memory	test	test_new	correct	task-memory/obj098fan.png	new	n/a
261.97	0.904	memory	test	test_old	correct	task-memory/obj336wheelchair.png	old	n/a
264.755	1.132	memory	test	test_old	incorrect	task-memory/obj154key.png	new	n/a
267.606	0.821	memory	test	test_old	correct	task-memory/obj069corn.png	old	n/a
270.507	0.739	memory	test	test_old	correct	task-memory/obj303tiger.png	old	n/a
273.225	0.641	memory	test	test_old	correct	task-memory/obj214pencil.png	old	n/a
276.092	1.074	memory	test	test_new	correct	task-memory/obj301thimble.png	new	n/a
278.993	0.952	memory	test	test_old	correct	task-memory/obj306toilet.png	old	n/a
282.028	0.787	memory	test	test_new	correct	task-memory/obj026bird.png	new	n/a
284.712	0.791	memory	test	test_old	correct	task-memory/obj260scissors.png	old	n/a
287.447	0.812	memory	test	test_old	correct	task-memory/obj192nail.png	old	n/a
290.181	1.008	memory	test	test_new	correct	task-memory/obj280sofa.png	new	n/a
292.899	1.316	memory	test	test_new	correct	task-memory/obj115funnel.png	new	n/a
295.65	0.714	memory	test	test_old	correct	task-memory/obj141hoof.png	old	n/a
298.284	0.846	memory	test	test_old	correct	task-memory/obj274slide.png	old	n/a
308.188	1.017	memory	dummy	study_dummy	n/a	task-memory/obj018barrel.png	n/a	n/a
310.222	1.017	memory	dummy	study_dummy	n/a	task-memory/obj122glove.png	n/a	n/a
312.256	1.017	memory	dummy	study_dummy	n/a	task-memory/obj177map.png	n/a	n/a
314.29	1.017	memory	study	study	n/a	task-memory/obj126gun.png	n/a	n/a
316.324	1.034	memory	study	study	n/a	task-memory/obj134hat.png	n/a	n/a
318.375	1.017	memory	study	study	n/a	task-memory/obj213pen.png	n/a	n/a
320.425	1.017	memory	study	study	n/a	task-memory/obj197nurse.png	n/a	n/a
322.46	1.017	memory	study	study	n/a	task-memory/obj292sword.png	n/a	n/a
324.51	1.017	memory	study	study	n/a	task-memory/obj101fence.png	n/a	n/a
326.561	1.017	memory	study	study	n/a	task-memory/obj075crown.png	n/a	n/a
328.595	1.017	memory	study	study	n/a	task-memory/obj065clown.png	n/a	n/a
330.629	1.017	memory	study	study	n/a	task-memory/obj312tree.png	n/a	n/a
332.663	1.017	memory	study	study	n/a	task-memory/obj087dragon.png	n/a	n/a
334.697	1.017	memory	study	study	n/a	task-memory/obj080diaper.png	n/a	n/a
336.732	1.017	memory	study	study	n/a	task-memory/obj165leopard.png	n/a	n/a
338.766	1.017	memory	study	study	n/a	task-memory/obj203paintbrush.png	n/a	n/a
340.8	1.017	memory	study	study	n/a	task-memory/obj156kite.png	n/a	n/a
342.834	1.017	memory	study	study	n/a	task-memory/obj275slingshot.png	n/a	n/a
344.868	1.017	memory	study	study	n/a	task-memory/obj029bomb.png	n/a	n/a
346.902	1.017	memory	study	study	n/a	task-memory/obj322unicycle.png	n/a	n/a
348.936	1.017	memory	study	study	n/a	task-memory/obj055chair.png	n/a	n/a
350.97	1.017	memory	study	study	n/a	task-memory/obj307tomato.png	n/a	n/a
353.004	1.017	memory	study	study	n/a	task-memory/obj107flower.png	n/a	n/a
355.038	1.017	memory	dummy	study_dummy	n/a	task-memory/obj235rabbit.png	n/a	n/a
357.072	1.017	memory	dummy	study_dummy	n/a	task-memory/obj262screw.png	n/a	n/a
359.107	1.017	memory	dummy	study_dummy	n/a	task-memory/obj337whip.png	n/a	n/a
371.278	25.0	memory	distraction_math	math	n/a	n/a	n/a	n/a
399.355	25.0	memory	distraction_math	math	n/a	n/a	n/a	n/a
427.415	25.0	memory	distraction_math	math	n/a	n/a	n/a	n/a
455.476	25.0	memory	distraction_math	math	n/a	n/a	n/a	n/a
489.105	1.039	memory	test	test_old	correct	task-memory/obj292sword.png	old	n/a
491.989	1.387	memory	test	test_new	correct	task-memory/obj201owl.png	new	n/a
494.64	0.686	memory	test	test_new	correct	task-memory/obj216penguin.png	new	n/a
497.208	1.167	memory	test	test_new	correct	task-memory/obj239rake.png	new	n/a
500.042	0.783	memory	test	test_new	correct	task-memory/obj063city.png	new	n/a
502.727	0.789	memory	test	test_new	correct	task-memory/obj254safe.png	new	n/a
505.728	1.583	memory	test	test_new	correct	task-memory/obj089dress.png	new	n/a
508.796	2.0	memory	test	test_old	incorrect	task-memory/obj322unicycle.png	n/a	n/a
511.613	0.766	memory	test	test_old	correct	task-memory/obj165leopard.png	old	n/a
514.381	0.668	memory	test	test_old	correct	task-memory/obj197nurse.png	old	n/a
517.332	0.795	memory	test	test_new	correct	task-memory/obj225pizza.png	new	n/a
520.183	0.731	memory	test	test_old	correct	task-memory/obj275slingshot.png	old	n/a
523.051	0.995	memory	test	test_old	correct	task-memory/obj156kite.png	old	n/a
525.852	0.678	memory	test	test_new	correct	task-memory/obj103fire.png	new	n/a
528.787	1.071	memory	test	test_new	correct	task-memory/obj155king.png	new	n/a
531.488	1.018	memory	test	test_old	correct	task-memory/obj107flower.png	old	n/a
534.439	0.584	memory	test	test_old	correct	task-memory/obj075crown.png	old	n/a
537.156	1.167	memory	test	test_new	correct	task-memory/obj108flute.png	new	n/a
540.041	0.67	memory	test	test_old	correct	task-memory/obj087dragon.png	old	n/a
542.675	0.878	memory	test	test_new	correct	task-memory/obj149jacket.png	new	n/a
545.559	0.882	memory	test	test_old	correct	task-memory/obj101fence.png	old	n/a
548.344	0.899	memory	test	test_old	correct	task-memory/obj065clown.png	old	n/a
551.061	1.145	memory	test	test_old	correct	task-memory/obj203paintbrush.png	old	n/a
553.979	1.069	memory	test	test_old	correct	task-memory/obj312tree.png	old	n/a
556.53	0.712	memory	test	test_old	correct	task-memory/obj307tomato.png	old	n/a
559.381	1.188	memory	test	test_new	correct	task-memory/obj287stool.png	new	n/a
562.299	0.821	memory	test	test_new	correct	task-memory/obj181microphone.png	new	n/a
565.233	1.145	memory	test	test_new	correct	task-memory/obj057cherry.png	new	n/a
567.818	0.88	memory	test	test_old	correct	task-memory/obj080diaper.png	old	n/a
570.502	0.836	memory	test	test_new	correct	task-memory/obj341window.png	new	n/a
573.136	1.017	memory	test	test_old	correct	task-memory/obj213pen.png	old	n/a
575.971	0.75	memory	test	test_new	correct	task-memory/obj265shoe.png	new	n/a
578.605	0.824	memory	test	test_new	correct	task-memory/obj343witch.png	new	n/a
581.356	0.885	memory	test	test_new	correct	task-memory/obj139highchair.png	new	n/a
583.957	1.227	memory	test	test_old	correct	task-memory/obj126gun.png	old	n/a
586.641	0.796	memory	test	test_new	correct	task-memory/obj209paperclip.png	new	n/a
589.593	0.709	memory	test	test_new	correct	task-memory/obj290sun.png	new	n/a
592.527	1.36	memory	test	test_old	correct	task-memory/obj055chair.png	old	n/a
595.095	0.783	memory	test	test_old	correct	task-memory/obj134hat.png	old	n/a
597.862	0.84	memory	test	test_old	incorrect	task-memory/obj029bomb.png	new	n/a
