onset	duration	run_type	trial_type	trial_index	cue	stimulusintensity	rating_value	rating_glmslabel	rating_value_fillna	rating_glmslabel_fillna	rating_mouseonset	rating_mousedur	stim_file	pain_onset_ttl1	pain_onset_ttl2	pain_onset_ttl3	pain_onset_ttl4	pain_stimulus_delivery_success	cognitive_correct_response	cognitive_participant_response	cognitive_response_accuracy
5.71	1.0	pain	cue	1	high_cue	n/a	n/a	n/a	n/a	n/a	n/a	n/a	task-social/cue/runtype-pain/sch/h024.png	n/a	n/a	n/a	n/a	n/a	n/a	n/a	n/a
8.33	2.29	pain	expectrating	1	high_cue	n/a	55.47	Strong	55.47	Strong	0.62	1.67	task-social/cue/runtype-pain/sch/h024.png	n/a	n/a	n/a	n/a	n/a	n/a	n/a	n/a
12.95	12.82	pain	stimulus	1	high_cue	high_stim	n/a	n/a	n/a	n/a	n/a	n/a	n/a	12.95	16.96	21.96	25.77	success	n/a	n/a	n/a
23.92	2.88	pain	outcomerating	1	high_cue	high_stim	78.28	Very-Strong	78.28	Very-Strong	0.62	1.67	task-social/outcomerating/task-pain_scale.png	n/a	n/a	n/a	n/a	success	n/a	n/a	n/a
29.0	1.0	pain	cue	2	low_cue	n/a	n/a	n/a	n/a	n/a	n/a	n/a	task-social/cue/runtype-pain/scl/l046.png	n/a	n/a	n/a	n/a	n/a	n/a	n/a	n/a
32.01	2.27	pain	expectrating	2	low_cue	n/a	56.12	Strong	56.12	Strong	1.57	0.7	task-social/cue/runtype-pain/scl/l046.png	n/a	n/a	n/a	n/a	n/a	n/a	n/a	n/a
41.95	12.82	pain	stimulus	2	low_cue	high_stim	n/a	n/a	n/a	n/a	n/a	n/a	n/a	41.95	45.96	50.96	54.77	success	n/a	n/a	n/a
55.21	2.57	pain	outcomerating	2	low_cue	high_stim	75.85	Very-Strong	75.85	Very-Strong	1.57	0.7	task-social/outcomerating/task-pain_scale.png	n/a	n/a	n/a	n/a	success	n/a	n/a	n/a
59.8	1.0	pain	cue	3	low_cue	n/a	n/a	n/a	n/a	n/a	n/a	n/a	task-social/cue/runtype-pain/scl/l017.png	n/a	n/a	n/a	n/a	n/a	n/a	n/a	n/a
62.22	2.04	pain	expectrating	3	low_cue	n/a	48.46	Strong	48.46	Strong	0.05	1.99	task-social/cue/runtype-pain/scl/l017.png	n/a	n/a	n/a	n/a	n/a	n/a	n/a	n/a
67.24	12.820000000000007	pain	stimulus	3	low_cue	high_stim	n/a	n/a	n/a	n/a	n/a	n/a	n/a	67.24	71.25	76.25	80.06	success	n/a	n/a	n/a
81.71	2.58	pain	outcomerating	3	low_cue	high_stim	63.33	Strong	63.33	Strong	0.05	1.99	task-social/outcomerating/task-pain_scale.png	n/a	n/a	n/a	n/a	success	n/a	n/a	n/a
94.91	1.0	pain	cue	4	high_cue	n/a	n/a	n/a	n/a	n/a	n/a	n/a	task-social/cue/runtype-pain/sch/h039.png	n/a	n/a	n/a	n/a	n/a	n/a	n/a	n/a
97.31	2.29	pain	expectrating	4	high_cue	n/a	54.78	Strong	54.78	Strong	0.18	2.11	task-social/cue/runtype-pain/sch/h039.png	n/a	n/a	n/a	n/a	n/a	n/a	n/a	n/a
102.57	12.820000000000007	pain	stimulus	4	high_cue	high_stim	n/a	n/a	n/a	n/a	n/a	n/a	n/a	102.57	106.58	111.58	115.39	success	n/a	n/a	n/a
115.42	3.42	pain	outcomerating	4	high_cue	high_stim	66.83	Very-Strong	66.83	Very-Strong	0.18	2.11	task-social/outcomerating/task-pain_scale.png	n/a	n/a	n/a	n/a	success	n/a	n/a	n/a
120.0	1.0	pain	cue	5	low_cue	n/a	n/a	n/a	n/a	n/a	n/a	n/a	task-social/cue/runtype-pain/scl/l013.png	n/a	n/a	n/a	n/a	n/a	n/a	n/a	n/a
123.02	3.63	pain	expectrating	5	low_cue	n/a	50.05	Strong	50.05	Strong	2.25	1.38	task-social/cue/runtype-pain/scl/l013.png	n/a	n/a	n/a	n/a	n/a	n/a	n/a	n/a
138.24	11.899999999999977	pain	stimulus	5	low_cue	low_stim	n/a	n/a	n/a	n/a	n/a	n/a	n/a	138.24	141.74	146.74	150.14	success	n/a	n/a	n/a
151.52	2.3	pain	outcomerating	5	low_cue	low_stim	47.76	Strong	47.76	Strong	2.25	1.38	task-social/outcomerating/task-pain_scale.png	n/a	n/a	n/a	n/a	success	n/a	n/a	n/a
162.4	1.0	pain	cue	6	high_cue	n/a	n/a	n/a	n/a	n/a	n/a	n/a	task-social/cue/runtype-pain/sch/h032.png	n/a	n/a	n/a	n/a	n/a	n/a	n/a	n/a
165.4	2.63	pain	expectrating	6	high_cue	n/a	49.72	Strong	49.72	Strong	0.97	1.67	task-social/cue/runtype-pain/sch/h032.png	n/a	n/a	n/a	n/a	n/a	n/a	n/a	n/a
189.14	11.900000000000006	pain	stimulus	6	high_cue	low_stim	n/a	n/a	n/a	n/a	n/a	n/a	n/a	189.14	192.64	197.64	201.04	success	n/a	n/a	n/a
207.8	2.35	pain	outcomerating	6	high_cue	low_stim	54.33	Strong	54.33	Strong	0.97	1.67	task-social/outcomerating/task-pain_scale.png	n/a	n/a	n/a	n/a	success	n/a	n/a	n/a
215.41	1.0	pain	cue	7	low_cue	n/a	n/a	n/a	n/a	n/a	n/a	n/a	task-social/cue/runtype-pain/scl/l022.png	n/a	n/a	n/a	n/a	n/a	n/a	n/a	n/a
217.61	2.68	pain	expectrating	7	low_cue	n/a	42.57	Strong	42.57	Strong	0.08	2.59	task-social/cue/runtype-pain/scl/l022.png	n/a	n/a	n/a	n/a	n/a	n/a	n/a	n/a
225.04	12.360000000000014	pain	stimulus	7	low_cue	med_stim	n/a	n/a	n/a	n/a	n/a	n/a	n/a	225.04	228.8	233.8	237.41	success	n/a	n/a	n/a
240.62	2.45	pain	outcomerating	7	low_cue	med_stim	69.31	Very-Strong	69.31	Very-Strong	0.08	2.59	task-social/outcomerating/task-pain_scale.png	n/a	n/a	n/a	n/a	success	n/a	n/a	n/a
251.7	1.0	pain	cue	8	high_cue	n/a	n/a	n/a	n/a	n/a	n/a	n/a	task-social/cue/runtype-pain/sch/h014.png	n/a	n/a	n/a	n/a	n/a	n/a	n/a	n/a
254.3	2.67	pain	expectrating	8	high_cue	n/a	55.61	Strong	55.61	Strong	1.32	1.35	task-social/cue/runtype-pain/sch/h014.png	n/a	n/a	n/a	n/a	n/a	n/a	n/a	n/a
258.93	12.370000000000005	pain	stimulus	8	high_cue	med_stim	n/a	n/a	n/a	n/a	n/a	n/a	n/a	258.93	262.69	267.69	271.3	success	n/a	n/a	n/a
270.11	3.31	pain	outcomerating	8	high_cue	med_stim	62.31	Strong	62.31	Strong	1.32	1.35	task-social/outcomerating/task-pain_scale.png	n/a	n/a	n/a	n/a	success	n/a	n/a	n/a
280.01	1.0	pain	cue	9	high_cue	n/a	n/a	n/a	n/a	n/a	n/a	n/a	task-social/cue/runtype-pain/sch/h001.png	n/a	n/a	n/a	n/a	n/a	n/a	n/a	n/a
281.92	1.47	pain	expectrating	9	high_cue	n/a	56.44	Strong	56.44	Strong	0.35	1.12	task-social/cue/runtype-pain/sch/h001.png	n/a	n/a	n/a	n/a	n/a	n/a	n/a	n/a
287.93	12.360000000000014	pain	stimulus	9	high_cue	med_stim	n/a	n/a	n/a	n/a	n/a	n/a	n/a	287.93	291.69	296.69	300.3	success	n/a	n/a	n/a
299.3	2.6	pain	outcomerating	9	high_cue	med_stim	72.29	Very-Strong	72.29	Very-Strong	0.35	1.12	task-social/outcomerating/task-pain_scale.png	n/a	n/a	n/a	n/a	success	n/a	n/a	n/a
308.41	1.0	pain	cue	10	low_cue	n/a	n/a	n/a	n/a	n/a	n/a	n/a	task-social/cue/runtype-pain/scl/l004.png	n/a	n/a	n/a	n/a	n/a	n/a	n/a	n/a
311.41	1.98	pain	expectrating	10	low_cue	n/a	51.66	Strong	51.66	Strong	0.23	1.74	task-social/cue/runtype-pain/scl/l004.png	n/a	n/a	n/a	n/a	n/a	n/a	n/a	n/a
317.03	12.360000000000014	pain	stimulus	10	low_cue	med_stim	n/a	n/a	n/a	n/a	n/a	n/a	n/a	317.03	320.79	325.79	329.4	success	n/a	n/a	n/a
331.52	2.92	pain	outcomerating	10	low_cue	med_stim	59.63	Strong	59.63	Strong	0.23	1.74	task-social/outcomerating/task-pain_scale.png	n/a	n/a	n/a	n/a	success	n/a	n/a	n/a
341.1	1.0	pain	cue	11	high_cue	n/a	n/a	n/a	n/a	n/a	n/a	n/a	task-social/cue/runtype-pain/sch/h011.png	n/a	n/a	n/a	n/a	n/a	n/a	n/a	n/a
343.0	3.1	pain	expectrating	11	high_cue	n/a	59.51	Strong	59.51	Strong	0.65	2.45	task-social/cue/runtype-pain/sch/h011.png	n/a	n/a	n/a	n/a	n/a	n/a	n/a	n/a
352.94	11.910000000000025	pain	stimulus	11	high_cue	low_stim	n/a	n/a	n/a	n/a	n/a	n/a	n/a	352.94	356.44	361.44	364.84	success	n/a	n/a	n/a
364.71	2.61	pain	outcomerating	11	high_cue	low_stim	58.09	Strong	58.09	Strong	0.65	2.45	task-social/outcomerating/task-pain_scale.png	n/a	n/a	n/a	n/a	success	n/a	n/a	n/a
374.3	1.0	pain	cue	12	low_cue	n/a	n/a	n/a	n/a	n/a	n/a	n/a	task-social/cue/runtype-pain/scl/l056.png	n/a	n/a	n/a	n/a	n/a	n/a	n/a	n/a
376.22	2.27	pain	expectrating	12	low_cue	n/a	43.05	Strong	43.05	Strong	0.7	1.57	task-social/cue/runtype-pain/scl/l056.png	n/a	n/a	n/a	n/a	n/a	n/a	n/a	n/a
381.04	11.909999999999968	pain	stimulus	12	low_cue	low_stim	n/a	n/a	n/a	n/a	n/a	n/a	n/a	381.04	384.54	389.54	392.94	success	n/a	n/a	n/a
395.01	3.12	pain	outcomerating	12	low_cue	low_stim	54.14	Strong	54.14	Strong	0.7	1.57	task-social/outcomerating/task-pain_scale.png	n/a	n/a	n/a	n/a	success	n/a	n/a	n/a
