onset	duration	run_type	trial_type	trial_index	cue	stimulusintensity	rating_value	rating_glmslabel	rating_value_fillna	rating_glmslabel_fillna	rating_mouseonset	rating_mousedur	stim_file	pain_onset_ttl1	pain_onset_ttl2	pain_onset_ttl3	pain_onset_ttl4	pain_stimulus_delivery_success	cognitive_correct_response	cognitive_participant_response	cognitive_response_accuracy
3.4	1.02	pain	cue	1	low_cue	n/a	n/a	n/a	n/a	n/a	n/a	n/a	task-social/cue/runtype-pain/scl/l022.png	n/a	n/a	n/a	n/a	n/a	n/a	n/a	n/a
6.14	1.69	pain	expectrating	1	low_cue	n/a	18.43	Moderate	18.43	Moderate	0.35	1.34	task-social/cue/runtype-pain/scl/l022.png	n/a	n/a	n/a	n/a	n/a	n/a	n/a	n/a
16.58	12.82	pain	stimulus	1	low_cue	high_stim	n/a	n/a	n/a	n/a	n/a	n/a	n/a	16.58	20.59	25.59	29.4	success	n/a	n/a	n/a
32.6	1.95	pain	outcomerating	1	low_cue	high_stim	62.2	Strong	62.2	Strong	0.35	1.34	task-social/outcomerating/task-pain_scale.png	n/a	n/a	n/a	n/a	success	n/a	n/a	n/a
46.0	1.0	pain	cue	2	high_cue	n/a	n/a	n/a	n/a	n/a	n/a	n/a	task-social/cue/runtype-pain/sch/h047.png	n/a	n/a	n/a	n/a	n/a	n/a	n/a	n/a
49.1	1.88	pain	expectrating	2	high_cue	n/a	114.61	Strongest sensation of any kind	114.61	Strongest sensation of any kind	0.48	1.4	task-social/cue/runtype-pain/sch/h047.png	n/a	n/a	n/a	n/a	n/a	n/a	n/a	n/a
57.65	12.360000000000007	pain	stimulus	2	high_cue	med_stim	n/a	n/a	n/a	n/a	n/a	n/a	n/a	57.65	61.41	66.41	70.02	success	n/a	n/a	n/a
75.99	1.82	pain	outcomerating	2	high_cue	med_stim	107.99	Strongest sensation of any kind	107.99	Strongest sensation of any kind	0.48	1.4	task-social/outcomerating/task-pain_scale.png	n/a	n/a	n/a	n/a	success	n/a	n/a	n/a
80.7	1.0	pain	cue	3	low_cue	n/a	n/a	n/a	n/a	n/a	n/a	n/a	task-social/cue/runtype-pain/scl/l014.png	n/a	n/a	n/a	n/a	n/a	n/a	n/a	n/a
83.81	1.9	pain	expectrating	3	low_cue	n/a	51.84	Strong	51.84	Strong	0.75	1.15	task-social/cue/runtype-pain/scl/l014.png	n/a	n/a	n/a	n/a	n/a	n/a	n/a	n/a
88.34	11.909999999999997	pain	stimulus	3	low_cue	low_stim	n/a	n/a	n/a	n/a	n/a	n/a	n/a	88.34	91.84	96.84	100.24	success	n/a	n/a	n/a
97.8	1.81	pain	outcomerating	3	low_cue	low_stim	76.58	Very Strong	76.58	Very Strong	0.75	1.15	task-social/outcomerating/task-pain_scale.png	n/a	n/a	n/a	n/a	success	n/a	n/a	n/a
110.29	1.0	pain	cue	4	low_cue	n/a	n/a	n/a	n/a	n/a	n/a	n/a	task-social/cue/runtype-pain/scl/l042.png	n/a	n/a	n/a	n/a	n/a	n/a	n/a	n/a
111.79	2.95	pain	expectrating	4	low_cue	n/a	87.46	Very Strong	87.46	Very Strong	0.5	2.45	task-social/cue/runtype-pain/scl/l042.png	n/a	n/a	n/a	n/a	n/a	n/a	n/a	n/a
116.62	11.909999999999997	pain	stimulus	4	low_cue	low_stim	n/a	n/a	n/a	n/a	n/a	n/a	n/a	116.62	120.12	125.12	128.52	success	n/a	n/a	n/a
134.7	1.77	pain	outcomerating	4	low_cue	low_stim	38.85	Strong	38.85	Strong	0.5	2.45	task-social/outcomerating/task-pain_scale.png	n/a	n/a	n/a	n/a	success	n/a	n/a	n/a
143.8	0.98	pain	cue	5	high_cue	n/a	n/a	n/a	n/a	n/a	n/a	n/a	task-social/cue/runtype-pain/sch/h031.png	n/a	n/a	n/a	n/a	n/a	n/a	n/a	n/a
146.9	2.31	pain	expectrating	5	high_cue	n/a	88.85	Very Strong	88.85	Very Strong	0.65	1.66	task-social/cue/runtype-pain/sch/h031.png	n/a	n/a	n/a	n/a	n/a	n/a	n/a	n/a
154.67	11.900000000000006	pain	stimulus	5	high_cue	low_stim	n/a	n/a	n/a	n/a	n/a	n/a	n/a	154.67	158.17	163.17	166.57	success	n/a	n/a	n/a
166.61	1.77	pain	outcomerating	5	high_cue	low_stim	87.91	Very Strong	87.91	Very Strong	0.65	1.66	task-social/outcomerating/task-pain_scale.png	n/a	n/a	n/a	n/a	success	n/a	n/a	n/a
171.3	1.0	pain	cue	6	high_cue	n/a	n/a	n/a	n/a	n/a	n/a	n/a	task-social/cue/runtype-pain/sch/h003.png	n/a	n/a	n/a	n/a	n/a	n/a	n/a	n/a
173.3	2.82	pain	expectrating	6	high_cue	n/a	102.78	Strongest sensation of any kind	102.78	Strongest sensation of any kind	0.85	1.97	task-social/cue/runtype-pain/sch/h003.png	n/a	n/a	n/a	n/a	n/a	n/a	n/a	n/a
177.83	12.359999999999985	pain	stimulus	6	high_cue	med_stim	n/a	n/a	n/a	n/a	n/a	n/a	n/a	177.83	181.59	186.59	190.2	success	n/a	n/a	n/a
189.6	1.67	pain	outcomerating	6	high_cue	med_stim	114.61	Strongest sensation of any kind	114.61	Strongest sensation of any kind	0.85	1.97	task-social/outcomerating/task-pain_scale.png	n/a	n/a	n/a	n/a	success	n/a	n/a	n/a
201.09	1.0	pain	cue	7	high_cue	n/a	n/a	n/a	n/a	n/a	n/a	n/a	task-social/cue/runtype-pain/sch/h030.png	n/a	n/a	n/a	n/a	n/a	n/a	n/a	n/a
203.09	1.9	pain	expectrating	7	high_cue	n/a	111.18	Strongest sensation of any kind	111.18	Strongest sensation of any kind	0.75	1.15	task-social/cue/runtype-pain/sch/h030.png	n/a	n/a	n/a	n/a	n/a	n/a	n/a	n/a
214.12	11.909999999999997	pain	stimulus	7	high_cue	low_stim	n/a	n/a	n/a	n/a	n/a	n/a	n/a	214.12	217.62	222.62	226.02	success	n/a	n/a	n/a
226.7	1.78	pain	outcomerating	7	high_cue	low_stim	85.4	Very Strong	85.4	Very Strong	0.75	1.15	task-social/outcomerating/task-pain_scale.png	n/a	n/a	n/a	n/a	success	n/a	n/a	n/a
234.79	1.0	pain	cue	8	low_cue	n/a	n/a	n/a	n/a	n/a	n/a	n/a	task-social/cue/runtype-pain/scl/l047.png	n/a	n/a	n/a	n/a	n/a	n/a	n/a	n/a
237.3	1.91	pain	expectrating	8	low_cue	n/a	91.39	Very Strong	91.39	Very Strong	0.43	1.48	task-social/cue/runtype-pain/scl/l047.png	n/a	n/a	n/a	n/a	n/a	n/a	n/a	n/a
249.31	12.819999999999993	pain	stimulus	8	low_cue	high_stim	n/a	n/a	n/a	n/a	n/a	n/a	n/a	249.31	253.32	258.32	262.13	success	n/a	n/a	n/a
260.4	2.3	pain	outcomerating	8	low_cue	high_stim	159.19	Strongest sensation of any kind	159.19	Strongest sensation of any kind	0.43	1.48	task-social/outcomerating/task-pain_scale.png	n/a	n/a	n/a	n/a	success	n/a	n/a	n/a
265.1	1.0	pain	cue	9	low_cue	n/a	n/a	n/a	n/a	n/a	n/a	n/a	task-social/cue/runtype-pain/scl/l051.png	n/a	n/a	n/a	n/a	n/a	n/a	n/a	n/a
268.2	2.27	pain	expectrating	9	low_cue	n/a	150.34	Strongest sensation of any kind	150.34	Strongest sensation of any kind	0.77	1.5	task-social/cue/runtype-pain/scl/l051.png	n/a	n/a	n/a	n/a	n/a	n/a	n/a	n/a
277.94	12.360000000000014	pain	stimulus	9	low_cue	med_stim	n/a	n/a	n/a	n/a	n/a	n/a	n/a	277.94	281.7	286.7	290.31	success	n/a	n/a	n/a
289.99	1.37	pain	outcomerating	9	low_cue	med_stim	166.79	Strongest sensation of any kind	166.79	Strongest sensation of any kind	0.77	1.5	task-social/outcomerating/task-pain_scale.png	n/a	n/a	n/a	n/a	success	n/a	n/a	n/a
295.49	1.0	pain	cue	10	low_cue	n/a	n/a	n/a	n/a	n/a	n/a	n/a	task-social/cue/runtype-pain/scl/l033.png	n/a	n/a	n/a	n/a	n/a	n/a	n/a	n/a
297.39	1.78	pain	expectrating	10	low_cue	n/a	107.07	Strongest sensation of any kind	107.07	Strongest sensation of any kind	0.95	0.83	task-social/cue/runtype-pain/scl/l033.png	n/a	n/a	n/a	n/a	n/a	n/a	n/a	n/a
309.11	12.370000000000005	pain	stimulus	10	low_cue	med_stim	n/a	n/a	n/a	n/a	n/a	n/a	n/a	309.11	312.87	317.87	321.48	success	n/a	n/a	n/a
321.7	1.76	pain	outcomerating	10	low_cue	med_stim	105.74	Strongest sensation of any kind	105.74	Strongest sensation of any kind	0.95	0.83	task-social/outcomerating/task-pain_scale.png	n/a	n/a	n/a	n/a	success	n/a	n/a	n/a
337.89	1.0	pain	cue	11	high_cue	n/a	n/a	n/a	n/a	n/a	n/a	n/a	task-social/cue/runtype-pain/sch/h037.png	n/a	n/a	n/a	n/a	n/a	n/a	n/a	n/a
340.59	1.8	pain	expectrating	11	high_cue	n/a	139.12	Strongest sensation of any kind	139.12	Strongest sensation of any kind	0.63	1.17	task-social/cue/runtype-pain/sch/h037.png	n/a	n/a	n/a	n/a	n/a	n/a	n/a	n/a
346.02	12.819999999999993	pain	stimulus	11	high_cue	high_stim	n/a	n/a	n/a	n/a	n/a	n/a	n/a	346.02	350.03	355.03	358.84	success	n/a	n/a	n/a
355.5	1.68	pain	outcomerating	11	high_cue	high_stim	161.42	Strongest sensation of any kind	161.42	Strongest sensation of any kind	0.63	1.17	task-social/outcomerating/task-pain_scale.png	n/a	n/a	n/a	n/a	success	n/a	n/a	n/a
362.6	0.98	pain	cue	12	high_cue	n/a	n/a	n/a	n/a	n/a	n/a	n/a	task-social/cue/runtype-pain/sch/h001.png	n/a	n/a	n/a	n/a	n/a	n/a	n/a	n/a
364.8	2.24	pain	expectrating	12	high_cue	n/a	136.14	Strongest sensation of any kind	136.14	Strongest sensation of any kind	0.53	1.71	task-social/cue/runtype-pain/sch/h001.png	n/a	n/a	n/a	n/a	n/a	n/a	n/a	n/a
376.52	12.819999999999993	pain	stimulus	12	high_cue	high_stim	n/a	n/a	n/a	n/a	n/a	n/a	n/a	376.52	380.53	385.53	389.34	success	n/a	n/a	n/a
394.6	0.92	pain	outcomerating	12	high_cue	high_stim	158.63	Strongest sensation of any kind	158.63	Strongest sensation of any kind	0.53	1.71	task-social/outcomerating/task-pain_scale.png	n/a	n/a	n/a	n/a	success	n/a	n/a	n/a
