onset	duration	event_type	response_accuracy	cue_location	target_location	button_press	trial_index
7.05094003677368	0.2	invalid_cue	incorrect	right	n/a	n/a	1
7.26768708229065	n/a	target_response	incorrect	right	left	n/a	1
10.5522458553314	0.2	valid_cue	incorrect	right	n/a	n/a	2
10.7523198127747	n/a	target_response	incorrect	right	right	n/a	2
13.6200556755066	0.2	invalid_cue	correct	right	n/a	n/a	3
13.8201313018799	0.616838693618774	target_response	correct	right	left	left	3
16.7879030704498	0.2	valid_cue	correct	right	n/a	n/a	4
16.9879784584045	0.647637605667114	target_response	correct	right	right	right	4
20.0557897090912	0.2	invalid_cue	correct	left	n/a	n/a	5
20.2558643817902	0.563194751739502	target_response	correct	left	right	right	5
23.5237493515015	0.2	valid_cue	correct	right	n/a	n/a	6
23.7238235473633	0.591238498687744	target_response	correct	right	right	right	6
30.9932019710541	0.2	valid_cue	correct	left	n/a	n/a	7
31.1932752132416	0.506263971328735	target_response	correct	left	left	left	7
36.1617958545685	0.2	valid_cue	incorrect	right	n/a	n/a	8
36.3618702888489	0.0199348926544189	target_response	incorrect	right	right	left	8
39.2296068668365	0.2	valid_cue	correct	left	n/a	n/a	9
39.4296803474426	0.492817640304565	target_response	correct	left	left	left	9
46.699059009552	0.2	invalid_cue	correct	left	n/a	n/a	10
46.8991317749023	0.491627216339111	target_response	correct	left	right	right	10
50.3670938014984	0.2	invalid_cue	correct	right	n/a	n/a	11
50.5671675205231	0.471727609634399	target_response	correct	right	left	left	11
54.5353138446808	0.2	invalid_cue	correct	left	n/a	n/a	12
54.7353889942169	0.475285053253174	target_response	correct	left	right	right	12
62.0047664642334	0.2	valid_cue	correct	right	n/a	n/a	13
62.2048408985138	0.518711090087891	target_response	correct	right	right	right	13
65.0725767612457	0.2	invalid_cue	correct	right	n/a	n/a	14
65.2726516723633	0.514978408813477	target_response	correct	right	left	left	14
68.240424156189	0.2	valid_cue	correct	left	n/a	n/a	15
68.4404990673065	0.564835071563721	target_response	correct	left	left	left	15
71.3082354068756	0.2	valid_cue	correct	left	n/a	n/a	16
71.5083105564117	0.492421627044678	target_response	correct	left	left	left	16
76.9770169258118	0.2	invalid_cue	correct	left	n/a	n/a	17
77.1770918369293	0.485530138015747	target_response	correct	left	right	right	17
80.0448279380798	0.2	invalid_cue	correct	left	n/a	n/a	18
80.2449016571045	0.500022411346436	target_response	correct	left	right	right	18
87.5142793655396	0.2	invalid_cue	correct	right	n/a	n/a	19
87.7143542766571	0.398546695709229	target_response	correct	right	left	left	19
94.9837322235107	0.2	invalid_cue	correct	right	n/a	n/a	20
95.1838068962097	0.386792182922363	target_response	correct	right	left	left	20
98.3516550064087	0.2	invalid_cue	correct	right	n/a	n/a	21
98.5517282485962	0.406927824020386	target_response	correct	right	left	left	21
101.519501686096	0.2	valid_cue	correct	right	n/a	n/a	22
101.719576358795	0.544561624526978	target_response	correct	right	right	right	22
104.58731341362	0.2	invalid_cue	correct	right	n/a	n/a	23
104.787387371063	0.430376768112183	target_response	correct	right	left	left	23
113.657362699509	0.2	valid_cue	correct	left	n/a	n/a	24
113.85743689537	0.345871210098267	target_response	correct	left	left	left	24
118.425806760788	0.2	valid_cue	correct	left	n/a	n/a	25
118.625882148743	0.39018702507019	target_response	correct	left	left	left	25
125.895260095596	0.2	valid_cue	correct	left	n/a	n/a	26
126.095333337784	0.759987831115723	target_response	correct	left	left	left	26
131.864150762558	0.2	valid_cue	correct	left	n/a	n/a	27
132.064226865768	0.289467096328735	target_response	correct	left	left	left	27
139.333604812622	0.2	valid_cue	correct	right	n/a	n/a	28
139.533678770065	0.497803211212158	target_response	correct	right	right	right	28
143.301750183105	0.2	valid_cue	correct	left	n/a	n/a	29
143.501824855804	0.334693193435669	target_response	correct	left	left	left	29
147.169859170914	0.2	invalid_cue	correct	left	n/a	n/a	30
147.369934797287	0.641593217849731	target_response	correct	left	right	right	30
152.838640213013	0.2	valid_cue	correct	left	n/a	n/a	31
153.038714885712	0.602832078933716	target_response	correct	left	left	left	31
160.308092355728	0.2	invalid_cue	correct	left	n/a	n/a	32
160.508167743683	0.505463361740112	target_response	correct	left	right	right	32
164.476313829422	0.2	valid_cue	correct	right	n/a	n/a	33
164.67638874054	0.65068244934082	target_response	correct	right	right	right	33
168.44446015358	0.2	valid_cue	correct	right	n/a	n/a	34
168.644534826279	0.89886736869812	target_response	correct	right	right	right	34
174.613427639008	0.2	invalid_cue	correct	right	n/a	n/a	35
174.813501358032	0.586382627487183	target_response	correct	right	left	left	35
180.782394647598	0.2	valid_cue	correct	left	n/a	n/a	36
180.982470035553	0.884618043899536	target_response	correct	left	left	left	36
189.352256059647	0.2	invalid_cue	incorrect	left	n/a	n/a	37
189.552331209183	0.0063507556915283	target_response	incorrect	left	right	left	37
193.320403575897	0.2	invalid_cue	correct	right	n/a	n/a	38
193.520479202271	0.421092987060547	target_response	correct	right	left	left	38
200.789855718613	0.2	invalid_cue	correct	left	n/a	n/a	39
200.989930868149	0.507790327072144	target_response	correct	left	right	right	39
204.157778263092	0.2	valid_cue	correct	right	n/a	n/a	40
204.357853412628	0.451687574386597	target_response	correct	right	right	right	40
208.325999736786	0.2	valid_cue	correct	left	n/a	n/a	41
208.526074647903	0.360445499420166	target_response	correct	left	left	left	41
213.79470539093	0.2	invalid_cue	correct	right	n/a	n/a	42
213.994779825211	0.802786350250244	target_response	correct	right	left	left	42
217.762851476669	0.2	invalid_cue	correct	right	n/a	n/a	43
217.962926149368	0.0054750442504882	target_response	correct	right	left	left	43
221.730998754501	0.2	valid_cue	correct	left	n/a	n/a	44
221.9310734272	0.30604076385498	target_response	correct	left	left	left	44
224.798809766769	0.2	valid_cue	correct	right	n/a	n/a	45
224.998883247375	0.499371767044067	target_response	correct	right	right	right	45
227.866619110107	0.2	invalid_cue	correct	left	n/a	n/a	46
228.066694259644	0.657853841781616	target_response	correct	left	right	right	46
231.934803962708	0.2	valid_cue	correct	left	n/a	n/a	47
232.134878158569	0.485376834869385	target_response	correct	left	left	left	47
241.004853248596	0.2	invalid_cue	correct	left	n/a	n/a	48
241.204927921295	0.387710094451904	target_response	correct	left	right	right	48
246.673633098602	0.2	invalid_cue	correct	left	n/a	n/a	49
246.87370800972	0.406257152557373	target_response	correct	left	right	right	49
251.942265510559	0.2	invalid_cue	correct	right	n/a	n/a	50
252.142339944839	0.449373245239258	target_response	correct	right	left	left	50
256.710710048676	0.2	invalid_cue	correct	right	n/a	n/a	51
256.910784482956	0.36262059211731	target_response	correct	right	left	left	51
261.579192638397	0.2	valid_cue	correct	right	n/a	n/a	52
261.77926659584	0.97774338722229	target_response	correct	right	right	right	52
269.048644781113	0.2	valid_cue	correct	right	n/a	n/a	53
269.248718500137	0.311149597167969	target_response	correct	right	right	right	53
274.717424631119	0.2	invalid_cue	correct	left	n/a	n/a	54
274.917499303818	0.483691692352295	target_response	correct	left	right	right	54
278.385459423065	0.2	invalid_cue	correct	right	n/a	n/a	55
278.585534572601	1.14896845817566	target_response	correct	right	left	left	55
281.453270196915	0.2	invalid_cue	correct	right	n/a	n/a	56
281.653344392776	0.650582790374756	target_response	correct	right	left	left	56
284.921229600906	0.2	valid_cue	correct	left	n/a	n/a	57
285.121304512024	0.450300455093384	target_response	correct	left	left	left	57
288.489227294922	0.2	valid_cue	correct	right	n/a	n/a	58
288.689302444458	1.74065756797791	target_response	correct	right	right	right	58
292.107243061066	0.2	invalid_cue	correct	right	n/a	n/a	59
292.307317495346	0.429262638092041	target_response	correct	right	left	left	59
298.776397943497	0.2	invalid_cue	correct	right	n/a	n/a	60
298.976471424103	0.712418556213379	target_response	correct	right	left	left	60
305.945737838745	0.2	invalid_cue	correct	right	n/a	n/a	61
306.145811319351	0.426114797592163	target_response	correct	right	left	left	61
309.613771915436	0.2	valid_cue	correct	right	n/a	n/a	62
309.813846111298	1.139564037323	target_response	correct	right	right	right	62
313.581918954849	0.2	valid_cue	correct	left	n/a	n/a	63
313.78199338913	0.472610712051392	target_response	correct	left	left	left	63
317.249953508377	0.2	invalid_cue	correct	right	n/a	n/a	64
317.450027942657	0.599400043487549	target_response	correct	right	left	left	64
324.419293880463	0.2	valid_cue	correct	right	n/a	n/a	65
324.61936879158	0.323222398757935	target_response	correct	right	right	right	65
327.88725233078	0.2	valid_cue	correct	right	n/a	n/a	66
328.087327480316	0.543344497680664	target_response	correct	right	right	right	66
331.455250740051	0.2	valid_cue	incorrect	right	n/a	n/a	67
331.655324220657	1.30231595039368	target_response	incorrect	right	right	left	67
335.123284578323	0.2	invalid_cue	incorrect	left	n/a	n/a	68
335.323360204697	n/a	target_response	incorrect	left	right	n/a	68
340.391916513443	0.2	invalid_cue	correct	right	n/a	n/a	69
340.591991901398	0.320356130599976	target_response	correct	right	left	left	69
344.760211467743	0.2	invalid_cue	correct	left	n/a	n/a	70
344.960286617279	0.757567405700684	target_response	correct	left	right	right	70
349.928805828094	0.2	valid_cue	correct	left	n/a	n/a	71
350.128880739212	0.342459440231323	target_response	correct	left	left	left	71
355.097400665283	0.2	valid_cue	correct	left	n/a	n/a	72
355.297475576401	0.567200422286987	target_response	correct	left	left	left	72
364.167448759079	0.2	valid_cue	correct	right	n/a	n/a	73
364.367523193359	0.586151838302612	target_response	correct	right	right	right	73
371.320117235184	0.2	invalid_cue	incorrect	left	n/a	n/a	74
371.520192146301	0.59438681602478	target_response	incorrect	left	right	left	74
378.789569377899	0.2	invalid_cue	correct	left	n/a	n/a	75
378.989644050598	0.81964111328125	target_response	correct	left	right	right	75
383.558013677597	0.2	valid_cue	correct	right	n/a	n/a	76
383.758088588715	0.433314561843872	target_response	correct	right	right	right	76
391.027465581894	0.2	invalid_cue	correct	right	n/a	n/a	77
391.227540254593	0.615503787994385	target_response	correct	right	left	left	77
397.196433782578	0.2	invalid_cue	correct	left	n/a	n/a	78
397.396508693695	0.711401462554932	target_response	correct	left	right	right	78
400.264243602753	0.2	invalid_cue	correct	right	n/a	n/a	79
400.464319467545	0.437811613082886	target_response	correct	right	left	left	79
403.732204675674	0.2	invalid_cue	correct	left	n/a	n/a	80
403.932278633118	0.372256517410278	target_response	correct	left	right	right	80
408.300574302673	0.2	invalid_cue	correct	right	n/a	n/a	81
408.500649452209	1.58795762062073	target_response	correct	right	left	left	81
411.968608379364	0.2	invalid_cue	incorrect	left	n/a	n/a	82
412.1686835289	n/a	target_response	incorrect	left	right	n/a	82
417.037165403366	0.2	invalid_cue	incorrect	right	n/a	n/a	83
417.237241029739	0.0094060897827148	target_response	incorrect	right	left	right	83
423.60628247261	0.2	valid_cue	correct	left	n/a	n/a	84
423.806356906891	0.321207284927368	target_response	correct	left	left	left	84
431.075734615326	0.2	valid_cue	correct	right	n/a	n/a	85
431.275808334351	0.423004627227783	target_response	correct	right	right	right	85
434.643732070923	0.2	valid_cue	correct	left	n/a	n/a	86
434.843806505203	0.468082666397095	target_response	correct	left	left	left	86
442.113186120987	0.2	invalid_cue	correct	left	n/a	n/a	87
442.313258886337	0.477257251739502	target_response	correct	left	right	right	87
450.983159065247	0.2	valid_cue	correct	right	n/a	n/a	88
451.183233499527	1.03036046028137	target_response	correct	right	right	right	88
455.651566028595	0.2	invalid_cue	correct	right	n/a	n/a	89
455.851640462875	0.762929677963257	target_response	correct	right	left	left	89
463.121017694473	0.2	valid_cue	correct	left	n/a	n/a	90
463.321092367172	0.83124566078186	target_response	correct	left	left	left	90
466.989127635956	0.2	valid_cue	correct	left	n/a	n/a	91
467.189202547073	0.722459554672241	target_response	correct	left	left	left	91
470.957273721695	0.2	valid_cue	correct	left	n/a	n/a	92
471.157348871231	1.59678721427917	target_response	correct	left	left	left	92
474.241831302643	0.2	invalid_cue	incorrect	left	n/a	n/a	93
474.441906929016	n/a	target_response	incorrect	left	right	n/a	93
478.410053491592	0.2	invalid_cue	correct	left	n/a	n/a	94
478.610127687454	0.717621326446533	target_response	correct	left	right	right	94
481.477864027023	0.2	valid_cue	correct	right	n/a	n/a	95
481.677938222885	1.95968294143677	target_response	correct	right	right	right	95
489.430828809738	0.2	invalid_cue	correct	right	n/a	n/a	96
489.630904436111	0.522834539413452	target_response	correct	right	left	left	96
496.800244569778	0.2	invalid_cue	incorrect	left	n/a	n/a	97
497.000319957733	n/a	target_response	incorrect	left	right	n/a	97
500.468279600143	0.2	valid_cue	correct	left	n/a	n/a	98
500.668353557587	0.813248634338379	target_response	correct	left	left	left	98
506.637247085571	0.2	invalid_cue	correct	left	n/a	n/a	99
506.837320566177	0.679105520248413	target_response	correct	left	right	right	99
510.605392932892	0.2	invalid_cue	correct	right	n/a	n/a	100
510.805468082428	0.366077899932861	target_response	correct	right	left	left	100
517.074470758438	0.2	valid_cue	correct	left	n/a	n/a	101
517.274545431137	0.0053145885467529	target_response	correct	left	left	left	101
524.543924570084	0.2	invalid_cue	correct	right	n/a	n/a	102
524.743998765945	0.527779340744019	target_response	correct	right	left	left	102
528.011884689331	0.2	valid_cue	correct	left	n/a	n/a	103
528.211958646774	1.05660843849182	target_response	correct	left	left	left	103
531.47984457016	0.2	invalid_cue	correct	left	n/a	n/a	104
531.679917097092	0.581616878509521	target_response	correct	left	right	right	104
534.947803497314	0.2	invalid_cue	incorrect	left	n/a	n/a	105
535.147878885269	n/a	target_response	incorrect	left	right	n/a	105
540.11639881134	0.2	invalid_cue	correct	right	n/a	n/a	106
540.316473245621	0.455026865005493	target_response	correct	right	left	left	106
543.484321117401	0.2	valid_cue	incorrect	right	n/a	n/a	107
543.684396266937	n/a	target_response	incorrect	right	right	n/a	107
547.552505254745	0.2	invalid_cue	correct	left	n/a	n/a	108
547.752578258514	0.442518711090088	target_response	correct	left	right	right	108
552.821135997772	0.2	invalid_cue	incorrect	left	n/a	n/a	109
553.02121090889	n/a	target_response	incorrect	left	right	n/a	109
557.389506101608	0.2	invalid_cue	incorrect	left	n/a	n/a	110
557.58958029747	0.164249897003174	target_response	incorrect	left	right	left	110
560.540681362152	0.2	valid_cue	correct	right	n/a	n/a	111
560.74075627327	0.397274732589722	target_response	correct	right	right	right	111
564.108678817749	0.2	invalid_cue	correct	left	n/a	n/a	112
564.308753252029	0.38090991973877	target_response	correct	left	right	right	112
567.476601839066	0.2	invalid_cue	correct	left	n/a	n/a	113
567.676676034927	0.423512935638428	target_response	correct	left	right	right	113
573.845642328262	0.2	valid_cue	correct	right	n/a	n/a	114
574.045717477798	0.41482949256897	target_response	correct	right	right	right	114
581.315095663071	0.2	invalid_cue	incorrect	right	n/a	n/a	115
581.515170812607	n/a	target_response	incorrect	right	left	n/a	115
584.482943296432	0.2	invalid_cue	correct	left	n/a	n/a	116
584.683017492294	0.393936634063721	target_response	correct	left	right	right	116
587.950903654099	0.2	invalid_cue	correct	right	n/a	n/a	117
588.150977373123	0.58060359954834	target_response	correct	right	left	left	117
591.018713951111	0.2	invalid_cue	correct	left	n/a	n/a	118
591.218788385391	0.474112749099731	target_response	correct	left	right	right	118
596.687494754791	0.2	valid_cue	incorrect	left	n/a	n/a	119
596.887569665909	n/a	target_response	incorrect	left	left	n/a	119
600.25549197197	0.2	invalid_cue	correct	right	n/a	n/a	120
600.45556640625	1.0842297077179	target_response	correct	right	left	left	120
