onset	duration	run_type	trial_type	trial_index	cue	stimulusintensity	rating_value	rating_glmslabel	rating_value_fillna	rating_glmslabel_fillna	rating_mouseonset	rating_mousedur	stim_file_TODO	pain_onset_ttl1	pain_onset_ttl2	pain_onset_ttl3	pain_onset_ttl4	pain_stimulus_delivery_success	cognitive_correct_response	cognitive_participant_response	cognitive_response_accuracy
7.89	0.99	cognitive	cue	1	high_cue	n/a	n/a	n/a	n/a	n/a	n/a	n/a	task-social/cue/runtype-cognitive/sch/h008.png	n/a	n/a	n/a	n/a	n/a	n/a	n/a	n/a
10.11	2.65	cognitive	expectrating	1	high_cue	n/a	108.58	Strongest sensation of any kind	108.58	Strongest sensation of any kind	0.6	2.05	task-social/cue/runtype-cognitive/sch/h008.png	n/a	n/a	n/a	n/a	n/a	n/a	n/a	n/a
20.8	5.0	cognitive	stimulus	1	high_cue	low_stim	n/a	n/a	n/a	n/a	n/a	n/a	task-social/stim/runtype-cognitive/5_50.jpg	n/a	n/a	n/a	n/a	n/a	same	same	True
33.0	2.96	cognitive	outcomerating	1	high_cue	low_stim	28.52	Moderate	28.52	Moderate	0.6	2.05	task-social/outcomerating/task-cognitive_scale.png	n/a	n/a	n/a	n/a	n/a	n/a	n/a	n/a
37.6	0.98	cognitive	cue	2	low_cue	n/a	n/a	n/a	n/a	n/a	n/a	n/a	task-social/cue/runtype-cognitive/scl/l011.png	n/a	n/a	n/a	n/a	n/a	n/a	n/a	n/a
40.0	1.55	cognitive	expectrating	2	low_cue	n/a	22.66	Moderate	22.66	Moderate	0.62	0.94	task-social/cue/runtype-cognitive/scl/l011.png	n/a	n/a	n/a	n/a	n/a	n/a	n/a	n/a
47.41	5.0	cognitive	stimulus	2	low_cue	med_stim	n/a	n/a	n/a	n/a	n/a	n/a	task-social/stim/runtype-cognitive/5_100_R.jpg	n/a	n/a	n/a	n/a	n/a	diff	same	False
57.49	1.95	cognitive	outcomerating	2	low_cue	med_stim	11.68	Moderate	11.68	Moderate	0.62	0.94	task-social/outcomerating/task-cognitive_scale.png	n/a	n/a	n/a	n/a	n/a	n/a	n/a	n/a
66.7	0.99	cognitive	cue	3	high_cue	n/a	n/a	n/a	n/a	n/a	n/a	n/a	task-social/cue/runtype-cognitive/sch/h024.png	n/a	n/a	n/a	n/a	n/a	n/a	n/a	n/a
68.9	2.45	cognitive	expectrating	3	high_cue	n/a	52.25	Strong	52.25	Strong	0.52	1.93	task-social/cue/runtype-cognitive/sch/h024.png	n/a	n/a	n/a	n/a	n/a	n/a	n/a	n/a
81.9	5.0	cognitive	stimulus	3	high_cue	low_stim	n/a	n/a	n/a	n/a	n/a	n/a	task-social/stim/runtype-cognitive/42_50.jpg	n/a	n/a	n/a	n/a	n/a	same	diff	False
90.41	2.9	cognitive	outcomerating	3	high_cue	low_stim	98.5	Strongest sensation of any kind	98.5	Strongest sensation of any kind	0.52	1.93	task-social/outcomerating/task-cognitive_scale.png	n/a	n/a	n/a	n/a	n/a	n/a	n/a	n/a
95.49	0.99	cognitive	cue	4	low_cue	n/a	n/a	n/a	n/a	n/a	n/a	n/a	task-social/cue/runtype-cognitive/scl/l038.png	n/a	n/a	n/a	n/a	n/a	n/a	n/a	n/a
98.99	2.28	cognitive	expectrating	4	low_cue	n/a	27.19	Moderate	27.19	Moderate	0.53	1.75	task-social/cue/runtype-cognitive/scl/l038.png	n/a	n/a	n/a	n/a	n/a	n/a	n/a	n/a
107.6	5.0	cognitive	stimulus	4	low_cue	med_stim	n/a	n/a	n/a	n/a	n/a	n/a	task-social/stim/runtype-cognitive/38_100_R.jpg	n/a	n/a	n/a	n/a	n/a	diff	same	False
120.8	2.48	cognitive	outcomerating	4	low_cue	med_stim	25.11	Moderate	25.11	Moderate	0.53	1.75	task-social/outcomerating/task-cognitive_scale.png	n/a	n/a	n/a	n/a	n/a	n/a	n/a	n/a
125.9	0.98	cognitive	cue	5	high_cue	n/a	n/a	n/a	n/a	n/a	n/a	n/a	task-social/cue/runtype-cognitive/sch/h047.png	n/a	n/a	n/a	n/a	n/a	n/a	n/a	n/a
127.6	2.16	cognitive	expectrating	5	high_cue	n/a	108.58	Strongest sensation of any kind	108.58	Strongest sensation of any kind	0.47	1.69	task-social/cue/runtype-cognitive/sch/h047.png	n/a	n/a	n/a	n/a	n/a	n/a	n/a	n/a
134.21	5.0	cognitive	stimulus	5	high_cue	high_stim	n/a	n/a	n/a	n/a	n/a	n/a	task-social/stim/runtype-cognitive/27_150_R.jpg	n/a	n/a	n/a	n/a	n/a	diff	same	False
147.4	2.02	cognitive	outcomerating	5	high_cue	high_stim	73.02	Very Strong	73.02	Very Strong	0.47	1.69	task-social/outcomerating/task-cognitive_scale.png	n/a	n/a	n/a	n/a	n/a	n/a	n/a	n/a
152.0	0.99	cognitive	cue	6	low_cue	n/a	n/a	n/a	n/a	n/a	n/a	n/a	task-social/cue/runtype-cognitive/scl/l016.png	n/a	n/a	n/a	n/a	n/a	n/a	n/a	n/a
155.5	2.12	cognitive	expectrating	6	low_cue	n/a	10.94	Moderate	10.94	Moderate	0.63	1.48	task-social/cue/runtype-cognitive/scl/l016.png	n/a	n/a	n/a	n/a	n/a	n/a	n/a	n/a
169.7	5.0	cognitive	stimulus	6	low_cue	low_stim	n/a	n/a	n/a	n/a	n/a	n/a	task-social/stim/runtype-cognitive/43_50.jpg	n/a	n/a	n/a	n/a	n/a	same	diff	False
181.91	2.02	cognitive	outcomerating	6	low_cue	low_stim	42.38	Strong	42.38	Strong	0.63	1.48	task-social/outcomerating/task-cognitive_scale.png	n/a	n/a	n/a	n/a	n/a	n/a	n/a	n/a
187.49	0.99	cognitive	cue	7	low_cue	n/a	n/a	n/a	n/a	n/a	n/a	n/a	task-social/cue/runtype-cognitive/scl/l042.png	n/a	n/a	n/a	n/a	n/a	n/a	n/a	n/a
189.69	3.22	cognitive	expectrating	7	low_cue	n/a	51.56	Strong	51.56	Strong	0.62	2.6	task-social/cue/runtype-cognitive/scl/l042.png	n/a	n/a	n/a	n/a	n/a	n/a	n/a	n/a
203.9	5.0	cognitive	stimulus	7	low_cue	high_stim	n/a	n/a	n/a	n/a	n/a	n/a	task-social/stim/runtype-cognitive/44_150_R.jpg	n/a	n/a	n/a	n/a	n/a	diff	diff	True
217.2	2.57	cognitive	outcomerating	7	low_cue	high_stim	30.06	Strong	30.06	Strong	0.62	2.6	task-social/outcomerating/task-cognitive_scale.png	n/a	n/a	n/a	n/a	n/a	n/a	n/a	n/a
223.39	0.99	cognitive	cue	8	low_cue	n/a	n/a	n/a	n/a	n/a	n/a	n/a	task-social/cue/runtype-cognitive/scl/l009.png	n/a	n/a	n/a	n/a	n/a	n/a	n/a	n/a
225.61	1.79	cognitive	expectrating	8	low_cue	n/a	14.32	Moderate	14.32	Moderate	0.77	1.02	task-social/cue/runtype-cognitive/scl/l009.png	n/a	n/a	n/a	n/a	n/a	n/a	n/a	n/a
232.19	5.0	cognitive	stimulus	8	low_cue	low_stim	n/a	n/a	n/a	n/a	n/a	n/a	task-social/stim/runtype-cognitive/38_50_R.jpg	n/a	n/a	n/a	n/a	n/a	diff	diff	True
245.5	2.35	cognitive	outcomerating	8	low_cue	low_stim	16.61	Moderate	16.61	Moderate	0.77	1.02	task-social/outcomerating/task-cognitive_scale.png	n/a	n/a	n/a	n/a	n/a	n/a	n/a	n/a
259.3	0.98	cognitive	cue	9	high_cue	n/a	n/a	n/a	n/a	n/a	n/a	n/a	task-social/cue/runtype-cognitive/sch/h025.png	n/a	n/a	n/a	n/a	n/a	n/a	n/a	n/a
262.8	1.87	cognitive	expectrating	9	high_cue	n/a	61.68	Strong	61.68	Strong	0.53	1.34	task-social/cue/runtype-cognitive/sch/h025.png	n/a	n/a	n/a	n/a	n/a	n/a	n/a	n/a
271.39	5.0	cognitive	stimulus	9	high_cue	high_stim	n/a	n/a	n/a	n/a	n/a	n/a	task-social/stim/runtype-cognitive/43_150_R.jpg	n/a	n/a	n/a	n/a	n/a	diff	diff	True
281.5	2.8	cognitive	outcomerating	9	high_cue	high_stim	70.25	Very Strong	70.25	Very Strong	0.53	1.34	task-social/outcomerating/task-cognitive_scale.png	n/a	n/a	n/a	n/a	n/a	n/a	n/a	n/a
291.7	0.99	cognitive	cue	10	low_cue	n/a	n/a	n/a	n/a	n/a	n/a	n/a	task-social/cue/runtype-cognitive/scl/l043.png	n/a	n/a	n/a	n/a	n/a	n/a	n/a	n/a
294.1	1.7	cognitive	expectrating	10	low_cue	n/a	15.91	Moderate	15.91	Moderate	0.38	1.32	task-social/cue/runtype-cognitive/scl/l043.png	n/a	n/a	n/a	n/a	n/a	n/a	n/a	n/a
301.7	5.0	cognitive	stimulus	10	low_cue	high_stim	n/a	n/a	n/a	n/a	n/a	n/a	task-social/stim/runtype-cognitive/43_150.jpg	n/a	n/a	n/a	n/a	n/a	same	diff	False
310.21	2.59	cognitive	outcomerating	10	low_cue	high_stim	17.34	Moderate	17.34	Moderate	0.38	1.32	task-social/outcomerating/task-cognitive_scale.png	n/a	n/a	n/a	n/a	n/a	n/a	n/a	n/a
328.7	0.99	cognitive	cue	11	high_cue	n/a	n/a	n/a	n/a	n/a	n/a	n/a	task-social/cue/runtype-cognitive/sch/h028.png	n/a	n/a	n/a	n/a	n/a	n/a	n/a	n/a
331.1	2.03	cognitive	expectrating	11	high_cue	n/a	98.73	Strongest sensation of any kind	98.73	Strongest sensation of any kind	0.43	1.6	task-social/cue/runtype-cognitive/sch/h028.png	n/a	n/a	n/a	n/a	n/a	n/a	n/a	n/a
346.8	5.0	cognitive	stimulus	11	high_cue	med_stim	n/a	n/a	n/a	n/a	n/a	n/a	task-social/stim/runtype-cognitive/29_100.jpg	n/a	n/a	n/a	n/a	n/a	same	n/a	False
359.81	2.57	cognitive	outcomerating	11	high_cue	med_stim	20.72	Moderate	20.72	Moderate	0.43	1.6	task-social/outcomerating/task-cognitive_scale.png	n/a	n/a	n/a	n/a	n/a	n/a	n/a	n/a
369.59	0.99	cognitive	cue	12	high_cue	n/a	n/a	n/a	n/a	n/a	n/a	n/a	task-social/cue/runtype-cognitive/sch/h021.png	n/a	n/a	n/a	n/a	n/a	n/a	n/a	n/a
371.61	2.05	cognitive	expectrating	12	high_cue	n/a	31.08	Strong	31.08	Strong	0.22	1.83	task-social/cue/runtype-cognitive/sch/h021.png	n/a	n/a	n/a	n/a	n/a	n/a	n/a	n/a
384.6	5.0	cognitive	stimulus	12	high_cue	med_stim	n/a	n/a	n/a	n/a	n/a	n/a	task-social/stim/runtype-cognitive/35_100.jpg	n/a	n/a	n/a	n/a	n/a	same	diff	False
394.8	2.46	cognitive	outcomerating	12	high_cue	med_stim	11.08	Moderate	11.08	Moderate	0.22	1.83	task-social/outcomerating/task-cognitive_scale.png	n/a	n/a	n/a	n/a	n/a	n/a	n/a	n/a
