onset	duration	run_type	trial_type	trial_index	cue	stimulusintensity	rating_value	rating_glmslabel	rating_value_fillna	rating_glmslabel_fillna	rating_mouseonset	rating_mousedur	stim_file	pain_onset_ttl1	pain_onset_ttl2	pain_onset_ttl3	pain_onset_ttl4	pain_stimulus_delivery_success	cognitive_correct_response	cognitive_participant_response	cognitive_response_accuracy
10.09	0.98	cognitive	cue	1	high_cue	n/a	n/a	n/a	n/a	n/a	n/a	n/a	n/a	n/a	n/a	n/a	n/a	n/a	n/a	n/a	n/a
12.41	1.92	cognitive	expectrating	1	high_cue	n/a	54.14	Strong	54.14	Strong	0.93	0.99	task-social/cue/runtype-cognitive/sch/h049.png	n/a	n/a	n/a	n/a	n/a	n/a	n/a	n/a
20.21	5.0	cognitive	stimulus	1	high_cue	med_stim	n/a	n/a	n/a	n/a	n/a	n/a	task-social/stim/runtype-cognitive/29_100.jpg	n/a	n/a	n/a	n/a	n/a	same	same	True
31.48	1.53	cognitive	outcomerating	1	high_cue	med_stim	49.22	Strong	49.22	Strong	0.52	1.02	task-social/outcomerating/task-cognitive_scale.png	n/a	n/a	n/a	n/a	n/a	n/a	n/a	n/a
36.29	0.99	cognitive	cue	2	high_cue	n/a	n/a	n/a	n/a	n/a	n/a	n/a	n/a	n/a	n/a	n/a	n/a	n/a	n/a	n/a	n/a
39.19	1.58	cognitive	expectrating	2	high_cue	n/a	53.92	Strong	53.92	Strong	0.18	1.39	task-social/cue/runtype-cognitive/sch/h007.png	n/a	n/a	n/a	n/a	n/a	n/a	n/a	n/a
47.49	5.0	cognitive	stimulus	2	high_cue	low_stim	n/a	n/a	n/a	n/a	n/a	n/a	task-social/stim/runtype-cognitive/39_50_R.jpg	n/a	n/a	n/a	n/a	n/a	diff	diff	True
55.79	2.99	cognitive	outcomerating	2	high_cue	low_stim	21.71	Moderate	21.71	Moderate	0.9	2.09	task-social/outcomerating/task-cognitive_scale.png	n/a	n/a	n/a	n/a	n/a	n/a	n/a	n/a
68.38	0.99	cognitive	cue	3	low_cue	n/a	n/a	n/a	n/a	n/a	n/a	n/a	n/a	n/a	n/a	n/a	n/a	n/a	n/a	n/a	n/a
71.3	0.9	cognitive	expectrating	3	low_cue	n/a	24.3	Moderate	24.3	Moderate	0.07	0.83	task-social/cue/runtype-cognitive/scl/l037.png	n/a	n/a	n/a	n/a	n/a	n/a	n/a	n/a
80.49	5.0	cognitive	stimulus	3	low_cue	med_stim	n/a	n/a	n/a	n/a	n/a	n/a	task-social/stim/runtype-cognitive/17_100_R.jpg	n/a	n/a	n/a	n/a	n/a	diff	same	False
96.39	2.65	cognitive	outcomerating	3	low_cue	med_stim	58.09	Strong	58.09	Strong	0.55	2.1	task-social/outcomerating/task-cognitive_scale.png	n/a	n/a	n/a	n/a	n/a	n/a	n/a	n/a
103.09	0.98	cognitive	cue	4	high_cue	n/a	n/a	n/a	n/a	n/a	n/a	n/a	n/a	n/a	n/a	n/a	n/a	n/a	n/a	n/a	n/a
105.99	1.52	cognitive	expectrating	4	high_cue	n/a	41.23	Strong	41.23	Strong	0.75	0.77	task-social/cue/runtype-cognitive/sch/h030.png	n/a	n/a	n/a	n/a	n/a	n/a	n/a	n/a
115.2	5.0	cognitive	stimulus	4	high_cue	high_stim	n/a	n/a	n/a	n/a	n/a	n/a	task-social/stim/runtype-cognitive/27_150.jpg	n/a	n/a	n/a	n/a	n/a	same	same	True
126.99	1.81	cognitive	outcomerating	4	high_cue	high_stim	52.7	Strong	52.7	Strong	0.92	0.89	task-social/outcomerating/task-cognitive_scale.png	n/a	n/a	n/a	n/a	n/a	n/a	n/a	n/a
139.59	0.99	cognitive	cue	5	high_cue	n/a	n/a	n/a	n/a	n/a	n/a	n/a	n/a	n/a	n/a	n/a	n/a	n/a	n/a	n/a	n/a
141.69	1.69	cognitive	expectrating	5	high_cue	n/a	53.64	Strong	53.64	Strong	0.52	1.17	task-social/cue/runtype-cognitive/sch/h044.png	n/a	n/a	n/a	n/a	n/a	n/a	n/a	n/a
159.8	5.0	cognitive	stimulus	5	high_cue	high_stim	n/a	n/a	n/a	n/a	n/a	n/a	task-social/stim/runtype-cognitive/8_150_R.jpg	n/a	n/a	n/a	n/a	n/a	diff	diff	True
169.72	1.82	cognitive	outcomerating	5	high_cue	high_stim	29.08	Strong	29.08	Strong	0.05	1.77	task-social/outcomerating/task-cognitive_scale.png	n/a	n/a	n/a	n/a	n/a	n/a	n/a	n/a
175.69	0.99	cognitive	cue	6	low_cue	n/a	n/a	n/a	n/a	n/a	n/a	n/a	n/a	n/a	n/a	n/a	n/a	n/a	n/a	n/a	n/a
178.49	1.72	cognitive	expectrating	6	low_cue	n/a	20.84	Moderate	20.84	Moderate	0.82	0.91	task-social/cue/runtype-cognitive/scl/l036.png	n/a	n/a	n/a	n/a	n/a	n/a	n/a	n/a
187.69	5.0	cognitive	stimulus	6	low_cue	high_stim	n/a	n/a	n/a	n/a	n/a	n/a	task-social/stim/runtype-cognitive/12_150.jpg	n/a	n/a	n/a	n/a	n/a	same	same	True
196.0	3.05	cognitive	outcomerating	6	low_cue	high_stim	11.17	Moderate	11.17	Moderate	0.07	2.98	task-social/outcomerating/task-cognitive_scale.png	n/a	n/a	n/a	n/a	n/a	n/a	n/a	n/a
203.08	0.99	cognitive	cue	7	high_cue	n/a	n/a	n/a	n/a	n/a	n/a	n/a	n/a	n/a	n/a	n/a	n/a	n/a	n/a	n/a	n/a
205.4	1.62	cognitive	expectrating	7	high_cue	n/a	71.93	Very Strong	71.93	Very Strong	0.37	1.25	task-social/cue/runtype-cognitive/sch/h027.png	n/a	n/a	n/a	n/a	n/a	n/a	n/a	n/a
217.59	5.0	cognitive	stimulus	7	high_cue	med_stim	n/a	n/a	n/a	n/a	n/a	n/a	task-social/stim/runtype-cognitive/6_100.jpg	n/a	n/a	n/a	n/a	n/a	same	diff	False
229.99	1.67	cognitive	outcomerating	7	high_cue	med_stim	38.34	Strong	38.34	Strong	0.3	1.37	task-social/outcomerating/task-cognitive_scale.png	n/a	n/a	n/a	n/a	n/a	n/a	n/a	n/a
235.79	0.98	cognitive	cue	8	high_cue	n/a	n/a	n/a	n/a	n/a	n/a	n/a	n/a	n/a	n/a	n/a	n/a	n/a	n/a	n/a	n/a
237.79	1.59	cognitive	expectrating	8	high_cue	n/a	79.95	Very Strong	79.95	Very Strong	0.27	1.32	task-social/cue/runtype-cognitive/sch/h047.png	n/a	n/a	n/a	n/a	n/a	n/a	n/a	n/a
245.3	5.0	cognitive	stimulus	8	high_cue	low_stim	n/a	n/a	n/a	n/a	n/a	n/a	task-social/stim/runtype-cognitive/29_50.jpg	n/a	n/a	n/a	n/a	n/a	same	same	True
256.98	1.75	cognitive	outcomerating	8	high_cue	low_stim	11.59	Moderate	11.59	Moderate	0.05	1.7	task-social/outcomerating/task-cognitive_scale.png	n/a	n/a	n/a	n/a	n/a	n/a	n/a	n/a
262.79	0.99	cognitive	cue	9	low_cue	n/a	n/a	n/a	n/a	n/a	n/a	n/a	n/a	n/a	n/a	n/a	n/a	n/a	n/a	n/a	n/a
264.99	1.84	cognitive	expectrating	9	low_cue	n/a	11.22	Moderate	11.22	Moderate	0.55	1.29	task-social/cue/runtype-cognitive/scl/l018.png	n/a	n/a	n/a	n/a	n/a	n/a	n/a	n/a
272.79	5.0	cognitive	stimulus	9	low_cue	high_stim	n/a	n/a	n/a	n/a	n/a	n/a	task-social/stim/runtype-cognitive/41_150.jpg	n/a	n/a	n/a	n/a	n/a	same	same	True
289.8	1.63	cognitive	outcomerating	9	low_cue	high_stim	25.23	Moderate	25.23	Moderate	0.58	1.05	task-social/outcomerating/task-cognitive_scale.png	n/a	n/a	n/a	n/a	n/a	n/a	n/a	n/a
294.58	0.99	cognitive	cue	10	low_cue	n/a	n/a	n/a	n/a	n/a	n/a	n/a	n/a	n/a	n/a	n/a	n/a	n/a	n/a	n/a	n/a
297.48	0.95	cognitive	expectrating	10	low_cue	n/a	7.64	Weak	7.64	Weak	0.05	0.9	task-social/cue/runtype-cognitive/scl/l043.png	n/a	n/a	n/a	n/a	n/a	n/a	n/a	n/a
308.89	5.0	cognitive	stimulus	10	low_cue	low_stim	n/a	n/a	n/a	n/a	n/a	n/a	task-social/stim/runtype-cognitive/6_50_R.jpg	n/a	n/a	n/a	n/a	n/a	diff	diff	True
318.79	3.32	cognitive	outcomerating	10	low_cue	low_stim	7.21	Weak	7.21	Weak	0.07	3.26	task-social/outcomerating/task-cognitive_scale.png	n/a	n/a	n/a	n/a	n/a	n/a	n/a	n/a
332.98	1.0	cognitive	cue	11	low_cue	n/a	n/a	n/a	n/a	n/a	n/a	n/a	n/a	n/a	n/a	n/a	n/a	n/a	n/a	n/a	n/a
335.6	2.55	cognitive	expectrating	11	low_cue	n/a	13.19	Moderate	13.19	Moderate	0.45	2.1	task-social/cue/runtype-cognitive/scl/l001.png	n/a	n/a	n/a	n/a	n/a	n/a	n/a	n/a
353.69	5.0	cognitive	stimulus	11	low_cue	low_stim	n/a	n/a	n/a	n/a	n/a	n/a	task-social/stim/runtype-cognitive/17_50_R.jpg	n/a	n/a	n/a	n/a	n/a	diff	n/a	False
361.99	1.82	cognitive	outcomerating	11	low_cue	low_stim	26.14	Moderate	26.14	Moderate	0.5	1.32	task-social/outcomerating/task-cognitive_scale.png	n/a	n/a	n/a	n/a	n/a	n/a	n/a	n/a
372.29	0.98	cognitive	cue	12	low_cue	n/a	n/a	n/a	n/a	n/a	n/a	n/a	n/a	n/a	n/a	n/a	n/a	n/a	n/a	n/a	n/a
374.3	2.15	cognitive	expectrating	12	low_cue	n/a	26.99	Moderate	26.99	Moderate	0.35	1.8	task-social/cue/runtype-cognitive/scl/l047.png	n/a	n/a	n/a	n/a	n/a	n/a	n/a	n/a
381.38	5.0	cognitive	stimulus	12	low_cue	med_stim	n/a	n/a	n/a	n/a	n/a	n/a	task-social/stim/runtype-cognitive/12_100.jpg	n/a	n/a	n/a	n/a	n/a	same	same	True
394.79	2.43	cognitive	outcomerating	12	low_cue	med_stim	4.53	Weak	4.53	Weak	0.5	1.93	task-social/outcomerating/task-cognitive_scale.png	n/a	n/a	n/a	n/a	n/a	n/a	n/a	n/a
