onset	duration	run_type	trial_type	trial_index	cue	stimulusintensity	rating_value	rating_glmslabel	rating_value_fillna	rating_glmslabel_fillna	rating_mouseonset	rating_mousedur	stim_file	pain_onset_ttl1	pain_onset_ttl2	pain_onset_ttl3	pain_onset_ttl4	pain_stimulus_delivery_success	cognitive_correct_response	cognitive_participant_response	cognitive_response_accuracy
11.01	0.98	pain	cue	1	low_cue	n/a	n/a	n/a	n/a	n/a	n/a	n/a	task-social/cue/runtype-pain/scl/l032.png	n/a	n/a	n/a	n/a	n/a	n/a	n/a	n/a
14.32	2.02	pain	expectrating	1	low_cue	n/a	14.43	Moderate	14.43	Moderate	1.02	1.0	task-social/cue/runtype-pain/scl/l032.png	n/a	n/a	n/a	n/a	n/a	n/a	n/a	n/a
30.52	12.370000000000001	pain	stimulus	1	low_cue	med_stim	n/a	n/a	n/a	n/a	n/a	n/a	n/a	30.52	34.28	39.28	42.89	success	n/a	n/a	n/a
45.3	2.49	pain	outcomerating	1	low_cue	med_stim	68.58	Very Strong	68.58	Very Strong	1.02	1.0	task-social/outcomerating/task-pain_scale.png	n/a	n/a	n/a	n/a	success	n/a	n/a	n/a
51.5	0.98	pain	cue	2	low_cue	n/a	n/a	n/a	n/a	n/a	n/a	n/a	task-social/cue/runtype-pain/scl/l044.png	n/a	n/a	n/a	n/a	n/a	n/a	n/a	n/a
53.71	2.71	pain	expectrating	2	low_cue	n/a	32.35	Strong	32.35	Strong	1.02	1.69	task-social/cue/runtype-pain/scl/l044.png	n/a	n/a	n/a	n/a	n/a	n/a	n/a	n/a
60.43	12.82	pain	stimulus	2	low_cue	high_stim	n/a	n/a	n/a	n/a	n/a	n/a	n/a	60.43	64.44	69.44	73.25	success	n/a	n/a	n/a
75.2	1.72	pain	outcomerating	2	low_cue	high_stim	79.05	Very Strong	79.05	Very Strong	1.02	1.69	task-social/outcomerating/task-pain_scale.png	n/a	n/a	n/a	n/a	success	n/a	n/a	n/a
83.0	1.0	pain	cue	3	high_cue	n/a	n/a	n/a	n/a	n/a	n/a	n/a	task-social/cue/runtype-pain/sch/h001.png	n/a	n/a	n/a	n/a	n/a	n/a	n/a	n/a
85.8	1.0	pain	expectrating	3	high_cue	n/a	62.61	Strong	62.61	Strong	0.07	0.93	task-social/cue/runtype-pain/sch/h001.png	n/a	n/a	n/a	n/a	n/a	n/a	n/a	n/a
90.53	11.900000000000006	pain	stimulus	3	high_cue	low_stim	n/a	n/a	n/a	n/a	n/a	n/a	n/a	90.53	94.03	99.03	102.43	success	n/a	n/a	n/a
100.41	1.6	pain	outcomerating	3	high_cue	low_stim	6.49	Weak	6.49	Weak	0.07	0.93	task-social/outcomerating/task-pain_scale.png	n/a	n/a	n/a	n/a	success	n/a	n/a	n/a
117.2	1.0	pain	cue	4	high_cue	n/a	n/a	n/a	n/a	n/a	n/a	n/a	task-social/cue/runtype-pain/sch/h036.png	n/a	n/a	n/a	n/a	n/a	n/a	n/a	n/a
119.3	0.98	pain	expectrating	4	high_cue	n/a	85.16	Very Strong	85.16	Very Strong	0.05	0.93	task-social/cue/runtype-pain/sch/h036.png	n/a	n/a	n/a	n/a	n/a	n/a	n/a	n/a
130.84	12.359999999999985	pain	stimulus	4	high_cue	med_stim	n/a	n/a	n/a	n/a	n/a	n/a	n/a	130.84	134.6	139.6	143.21	success	n/a	n/a	n/a
145.61	1.72	pain	outcomerating	4	high_cue	med_stim	19.96	Moderate	19.96	Moderate	0.05	0.93	task-social/outcomerating/task-pain_scale.png	n/a	n/a	n/a	n/a	success	n/a	n/a	n/a
150.49	1.0	pain	cue	5	high_cue	n/a	n/a	n/a	n/a	n/a	n/a	n/a	task-social/cue/runtype-pain/sch/h031.png	n/a	n/a	n/a	n/a	n/a	n/a	n/a	n/a
152.71	1.19	pain	expectrating	5	high_cue	n/a	64.47	Very Strong	64.47	Very Strong	0.05	1.14	task-social/cue/runtype-pain/sch/h031.png	n/a	n/a	n/a	n/a	n/a	n/a	n/a	n/a
168.93	12.819999999999993	pain	stimulus	5	high_cue	high_stim	n/a	n/a	n/a	n/a	n/a	n/a	n/a	168.93	172.94	177.94	181.75	success	n/a	n/a	n/a
179.6	1.42	pain	outcomerating	5	high_cue	high_stim	70.04	Very Strong	70.04	Very Strong	0.05	1.14	task-social/outcomerating/task-pain_scale.png	n/a	n/a	n/a	n/a	success	n/a	n/a	n/a
185.1	1.0	pain	cue	6	low_cue	n/a	n/a	n/a	n/a	n/a	n/a	n/a	task-social/cue/runtype-pain/scl/l053.png	n/a	n/a	n/a	n/a	n/a	n/a	n/a	n/a
187.1	0.87	pain	expectrating	6	low_cue	n/a	26.04	Moderate	26.04	Moderate	0.33	0.54	task-social/cue/runtype-pain/scl/l053.png	n/a	n/a	n/a	n/a	n/a	n/a	n/a	n/a
193.63	12.819999999999993	pain	stimulus	6	low_cue	high_stim	n/a	n/a	n/a	n/a	n/a	n/a	n/a	193.63	197.64	202.64	206.45	success	n/a	n/a	n/a
204.29	1.3	pain	outcomerating	6	low_cue	high_stim	53.78	Strong	53.78	Strong	0.33	0.54	task-social/outcomerating/task-pain_scale.png	n/a	n/a	n/a	n/a	success	n/a	n/a	n/a
213.2	1.0	pain	cue	7	low_cue	n/a	n/a	n/a	n/a	n/a	n/a	n/a	task-social/cue/runtype-pain/scl/l026.png	n/a	n/a	n/a	n/a	n/a	n/a	n/a	n/a
216.5	1.28	pain	expectrating	7	low_cue	n/a	24.32	Moderate	24.32	Moderate	0.2	1.08	task-social/cue/runtype-pain/scl/l026.png	n/a	n/a	n/a	n/a	n/a	n/a	n/a	n/a
223.02	11.909999999999997	pain	stimulus	7	low_cue	low_stim	n/a	n/a	n/a	n/a	n/a	n/a	n/a	223.02	226.52	231.52	234.92	success	n/a	n/a	n/a
238.11	2.25	pain	outcomerating	7	low_cue	low_stim	2.99	Barely detectable	2.99	Barely detectable	0.2	1.08	task-social/outcomerating/task-pain_scale.png	n/a	n/a	n/a	n/a	success	n/a	n/a	n/a
244.29	1.0	pain	cue	8	high_cue	n/a	n/a	n/a	n/a	n/a	n/a	n/a	task-social/cue/runtype-pain/sch/h003.png	n/a	n/a	n/a	n/a	n/a	n/a	n/a	n/a
247.29	1.93	pain	expectrating	8	high_cue	n/a	58.92	Strong	58.92	Strong	0.98	0.95	task-social/cue/runtype-pain/sch/h003.png	n/a	n/a	n/a	n/a	n/a	n/a	n/a	n/a
252.03	12.820000000000022	pain	stimulus	8	high_cue	high_stim	n/a	n/a	n/a	n/a	n/a	n/a	n/a	252.03	256.04	261.04	264.85	success	n/a	n/a	n/a
263.0	1.85	pain	outcomerating	8	high_cue	high_stim	76.53	Very Strong	76.53	Very Strong	0.98	0.95	task-social/outcomerating/task-pain_scale.png	n/a	n/a	n/a	n/a	success	n/a	n/a	n/a
270.4	1.0	pain	cue	9	high_cue	n/a	n/a	n/a	n/a	n/a	n/a	n/a	task-social/cue/runtype-pain/sch/h016.png	n/a	n/a	n/a	n/a	n/a	n/a	n/a	n/a
272.4	2.22	pain	expectrating	9	high_cue	n/a	63.33	Strong	63.33	Strong	0.45	1.77	task-social/cue/runtype-pain/sch/h016.png	n/a	n/a	n/a	n/a	n/a	n/a	n/a	n/a
279.72	11.899999999999977	pain	stimulus	9	high_cue	low_stim	n/a	n/a	n/a	n/a	n/a	n/a	n/a	279.72	283.22	288.22	291.62	success	n/a	n/a	n/a
298.6	3.22	pain	outcomerating	9	high_cue	low_stim	14.15	Moderate	14.15	Moderate	0.45	1.77	task-social/outcomerating/task-pain_scale.png	n/a	n/a	n/a	n/a	success	n/a	n/a	n/a
304.1	1.0	pain	cue	10	low_cue	n/a	n/a	n/a	n/a	n/a	n/a	n/a	task-social/cue/runtype-pain/scl/l005.png	n/a	n/a	n/a	n/a	n/a	n/a	n/a	n/a
306.3	1.18	pain	expectrating	10	low_cue	n/a	23.96	Moderate	23.96	Moderate	0.35	0.83	task-social/cue/runtype-pain/scl/l005.png	n/a	n/a	n/a	n/a	n/a	n/a	n/a	n/a
311.65	12.360000000000014	pain	stimulus	10	low_cue	med_stim	n/a	n/a	n/a	n/a	n/a	n/a	n/a	311.65	315.41	320.41	324.02	success	n/a	n/a	n/a
329.81	1.19	pain	outcomerating	10	low_cue	med_stim	23.75	Moderate	23.75	Moderate	0.35	0.83	task-social/outcomerating/task-pain_scale.png	n/a	n/a	n/a	n/a	success	n/a	n/a	n/a
338.09	1.0	pain	cue	11	low_cue	n/a	n/a	n/a	n/a	n/a	n/a	n/a	task-social/cue/runtype-pain/scl/l030.png	n/a	n/a	n/a	n/a	n/a	n/a	n/a	n/a
340.3	1.75	pain	expectrating	11	low_cue	n/a	12.85	Moderate	12.85	Moderate	0.83	0.92	task-social/cue/runtype-pain/scl/l030.png	n/a	n/a	n/a	n/a	n/a	n/a	n/a	n/a
350.26	11.900000000000034	pain	stimulus	11	low_cue	low_stim	n/a	n/a	n/a	n/a	n/a	n/a	n/a	350.26	353.76	358.76	362.16	success	n/a	n/a	n/a
363.9	1.94	pain	outcomerating	11	low_cue	low_stim	3.09	Weak	3.09	Weak	0.83	0.92	task-social/outcomerating/task-pain_scale.png	n/a	n/a	n/a	n/a	success	n/a	n/a	n/a
376.09	1.0	pain	cue	12	high_cue	n/a	n/a	n/a	n/a	n/a	n/a	n/a	task-social/cue/runtype-pain/sch/h024.png	n/a	n/a	n/a	n/a	n/a	n/a	n/a	n/a
378.89	1.32	pain	expectrating	12	high_cue	n/a	92.77	Very Strong	92.77	Very Strong	0.37	0.95	task-social/cue/runtype-pain/sch/h024.png	n/a	n/a	n/a	n/a	n/a	n/a	n/a	n/a
385.42	12.359999999999957	pain	stimulus	12	high_cue	med_stim	n/a	n/a	n/a	n/a	n/a	n/a	n/a	385.42	389.18	394.18	397.79	success	n/a	n/a	n/a
395.0	2.12	pain	outcomerating	12	high_cue	med_stim	34.01	Strong	34.01	Strong	0.37	0.95	task-social/outcomerating/task-pain_scale.png	n/a	n/a	n/a	n/a	success	n/a	n/a	n/a
