onset	duration	subtask_type	question	event_type	participant_response	normative_response	response_accuracy	stim_file	trial_index
0.09	2.016	tomspunt	reaching?	block_question_presentation	n/a	n/a	n/a	n/a	0
0.09	0.3	tomspunt	reaching?	block_question_presentation	n/a	n/a	n/a	n/a	1
0.09	0.3	tomspunt	reaching?	block_question_presentation	n/a	n/a	n/a	n/a	2
0.09	0.3	tomspunt	reaching?	block_question_presentation	n/a	n/a	n/a	n/a	3
0.09	0.3	tomspunt	reaching?	block_question_presentation	n/a	n/a	n/a	n/a	4
0.09	0.3	tomspunt	reaching?	block_question_presentation	n/a	n/a	n/a	n/a	5
0.09	0.3	tomspunt	reaching?	block_question_presentation	n/a	n/a	n/a	n/a	6
0.09	0.3	tomspunt	reaching?	block_question_presentation	n/a	n/a	n/a	n/a	7
5.033	0.978	tomspunt	reaching?	how_hand	yes	yes	correct	task-tomspunt/H_007.jpg	0
6.316	0.968	tomspunt	reaching?	how_hand	no	no	correct	task-tomspunt/H_532.jpg	1
7.599	0.81	tomspunt	reaching?	how_hand	yes	yes	correct	task-tomspunt/H_474.jpg	2
8.716	0.926	tomspunt	reaching?	how_hand	yes	no	incorrect	task-tomspunt/H_438.jpg	3
9.949	0.71	tomspunt	reaching?	how_hand	no	yes	incorrect	task-tomspunt/H_364.jpg	4
10.966	0.902	tomspunt	reaching?	how_hand	yes	yes	correct	task-tomspunt/H_006.jpg	5
12.182	0.785	tomspunt	reaching?	how_hand	yes	yes	correct	task-tomspunt/H_003.jpg	6
13.282	0.668	tomspunt	reaching?	how_hand	yes	no	incorrect	task-tomspunt/H_132.jpg	7
17.538	2.1	tomspunt	healthy?	block_question_presentation	n/a	n/a	n/a	n/a	8
17.538	0.3	tomspunt	healthy?	block_question_presentation	n/a	n/a	n/a	n/a	9
17.538	0.3	tomspunt	healthy?	block_question_presentation	n/a	n/a	n/a	n/a	10
17.538	0.3	tomspunt	healthy?	block_question_presentation	n/a	n/a	n/a	n/a	11
17.538	0.3	tomspunt	healthy?	block_question_presentation	n/a	n/a	n/a	n/a	12
17.538	0.3	tomspunt	healthy?	block_question_presentation	n/a	n/a	n/a	n/a	13
17.538	0.3	tomspunt	healthy?	block_question_presentation	n/a	n/a	n/a	n/a	14
17.538	0.3	tomspunt	healthy?	block_question_presentation	n/a	n/a	n/a	n/a	15
22.548	0.771	tomspunt	healthy?	why_hand	no	yes	incorrect	task-tomspunt/H_627.jpg	8
23.631	0.52	tomspunt	healthy?	why_hand	yes	yes	correct	task-tomspunt/H_438.jpg	9
24.464	0.669	tomspunt	healthy?	why_hand	yes	yes	correct	task-tomspunt/H_364.jpg	10
25.447	0.652	tomspunt	healthy?	why_hand	no	no	correct	task-tomspunt/H_130.jpg	11
26.414	0.635	tomspunt	healthy?	why_hand	yes	yes	correct	task-tomspunt/H_362.jpg	12
27.364	0.568	tomspunt	healthy?	why_hand	no	no	correct	task-tomspunt/H_007.jpg	13
28.247	0.718	tomspunt	healthy?	why_hand	no	yes	incorrect	task-tomspunt/H_167.jpg	14
29.28	0.568	tomspunt	healthy?	why_hand	yes	no	incorrect	task-tomspunt/H_019.jpg	15
36.652	2.1	tomspunt	admiring?	block_question_presentation	n/a	n/a	n/a	n/a	16
36.652	0.3	tomspunt	admiring?	block_question_presentation	n/a	n/a	n/a	n/a	17
36.652	0.3	tomspunt	admiring?	block_question_presentation	n/a	n/a	n/a	n/a	18
36.652	0.3	tomspunt	admiring?	block_question_presentation	n/a	n/a	n/a	n/a	19
36.652	0.3	tomspunt	admiring?	block_question_presentation	n/a	n/a	n/a	n/a	20
36.652	0.3	tomspunt	admiring?	block_question_presentation	n/a	n/a	n/a	n/a	21
36.652	0.3	tomspunt	admiring?	block_question_presentation	n/a	n/a	n/a	n/a	22
36.652	0.3	tomspunt	admiring?	block_question_presentation	n/a	n/a	n/a	n/a	23
41.662	0.485	tomspunt	admiring?	why_face	yes	yes	correct	task-tomspunt/F_779.jpg	16
42.462	0.702	tomspunt	admiring?	why_face	yes	yes	correct	task-tomspunt/F_593.jpg	17
43.478	0.485	tomspunt	admiring?	why_face	yes	no	incorrect	task-tomspunt/F_110.jpg	18
44.278	0.452	tomspunt	admiring?	why_face	yes	yes	correct	task-tomspunt/F_590.jpg	19
45.045	0.712	tomspunt	admiring?	why_face	no	no	correct	task-tomspunt/F_692.jpg	20
46.061	0.518	tomspunt	admiring?	why_face	yes	yes	correct	task-tomspunt/F_759.jpg	21
46.894	0.685	tomspunt	admiring?	why_face	yes	yes	correct	task-tomspunt/F_648.jpg	22
47.894	0.81	tomspunt	admiring?	why_face	no	no	correct	task-tomspunt/F_129.jpg	23
55.616	2.1	tomspunt	smiling?	block_question_presentation	n/a	n/a	n/a	n/a	24
55.616	0.3	tomspunt	smiling?	block_question_presentation	n/a	n/a	n/a	n/a	25
55.616	0.3	tomspunt	smiling?	block_question_presentation	n/a	n/a	n/a	n/a	26
55.616	0.3	tomspunt	smiling?	block_question_presentation	n/a	n/a	n/a	n/a	27
55.616	0.3	tomspunt	smiling?	block_question_presentation	n/a	n/a	n/a	n/a	28
55.616	0.3	tomspunt	smiling?	block_question_presentation	n/a	n/a	n/a	n/a	29
55.616	0.3	tomspunt	smiling?	block_question_presentation	n/a	n/a	n/a	n/a	30
55.616	0.3	tomspunt	smiling?	block_question_presentation	n/a	n/a	n/a	n/a	31
60.626	0.656	tomspunt	smiling?	how_face	yes	yes	correct	task-tomspunt/F_139.jpg	24
61.593	0.639	tomspunt	smiling?	how_face	no	no	correct	task-tomspunt/F_712.jpg	25
62.542	0.889	tomspunt	smiling?	how_face	no	yes	incorrect	task-tomspunt/F_695.jpg	26
63.742	0.638	tomspunt	smiling?	how_face	no	no	correct	task-tomspunt/F_758.jpg	27
64.692	0.551	tomspunt	smiling?	how_face	yes	yes	correct	task-tomspunt/F_083.jpg	28
65.559	0.504	tomspunt	smiling?	how_face	yes	yes	correct	task-tomspunt/F_759.jpg	29
66.375	0.585	tomspunt	smiling?	how_face	no	no	correct	task-tomspunt/F_412.jpg	30
67.275	0.586	tomspunt	smiling?	how_face	yes	yes	correct	task-tomspunt/F_593.jpg	31
73.147	2.1	tomspunt	lifting?	block_question_presentation	n/a	n/a	n/a	n/a	32
73.147	0.3	tomspunt	lifting?	block_question_presentation	n/a	n/a	n/a	n/a	33
73.147	0.3	tomspunt	lifting?	block_question_presentation	n/a	n/a	n/a	n/a	34
73.147	0.3	tomspunt	lifting?	block_question_presentation	n/a	n/a	n/a	n/a	35
73.147	0.3	tomspunt	lifting?	block_question_presentation	n/a	n/a	n/a	n/a	36
73.147	0.3	tomspunt	lifting?	block_question_presentation	n/a	n/a	n/a	n/a	37
73.147	0.3	tomspunt	lifting?	block_question_presentation	n/a	n/a	n/a	n/a	38
73.147	0.3	tomspunt	lifting?	block_question_presentation	n/a	n/a	n/a	n/a	39
78.157	1.001	tomspunt	lifting?	how_hand	yes	yes	correct	task-tomspunt/H_136.jpg	32
79.474	0.598	tomspunt	lifting?	how_hand	no	no	correct	task-tomspunt/H_038.jpg	33
80.374	0.718	tomspunt	lifting?	how_hand	yes	yes	correct	task-tomspunt/H_189.jpg	34
81.407	0.615	tomspunt	lifting?	how_hand	no	no	correct	task-tomspunt/H_077.jpg	35
82.323	0.635	tomspunt	lifting?	how_hand	yes	yes	correct	task-tomspunt/H_443.jpg	36
83.273	0.618	tomspunt	lifting?	how_hand	no	no	correct	task-tomspunt/H_012.jpg	37
84.206	0.585	tomspunt	lifting?	how_hand	yes	yes	correct	task-tomspunt/H_362.jpg	38
85.106	0.752	tomspunt	lifting?	how_hand	yes	yes	correct	task-tomspunt/H_170.jpg	39
95.628	2.1	tomspunt	helping?	block_question_presentation	n/a	n/a	n/a	n/a	40
95.628	0.3	tomspunt	helping?	block_question_presentation	n/a	n/a	n/a	n/a	41
95.628	0.3	tomspunt	helping?	block_question_presentation	n/a	n/a	n/a	n/a	42
95.628	0.3	tomspunt	helping?	block_question_presentation	n/a	n/a	n/a	n/a	43
95.628	0.3	tomspunt	helping?	block_question_presentation	n/a	n/a	n/a	n/a	44
95.628	0.3	tomspunt	helping?	block_question_presentation	n/a	n/a	n/a	n/a	45
95.628	0.3	tomspunt	helping?	block_question_presentation	n/a	n/a	n/a	n/a	46
95.628	0.3	tomspunt	helping?	block_question_presentation	n/a	n/a	n/a	n/a	47
100.638	0.557	tomspunt	helping?	why_hand	yes	yes	correct	task-tomspunt/H_077.jpg	40
101.504	0.574	tomspunt	helping?	why_hand	yes	yes	correct	task-tomspunt/H_349.jpg	41
102.387	0.669	tomspunt	helping?	why_hand	yes	yes	correct	task-tomspunt/H_474.jpg	42
103.371	0.774	tomspunt	helping?	why_hand	yes	yes	correct	task-tomspunt/H_024.jpg	43
104.454	0.523	tomspunt	helping?	why_hand	yes	no	incorrect	task-tomspunt/H_012.jpg	44
105.287	1.034	tomspunt	helping?	why_hand	no	no	correct	task-tomspunt/H_159.jpg	45
106.637	1.155	tomspunt	helping?	why_hand	yes	yes	correct	task-tomspunt/H_111.jpg	46
108.103	0.835	tomspunt	helping?	why_hand	no	no	correct	task-tomspunt/H_091.jpg	47
113.509	2.1	tomspunt	proud?	block_question_presentation	n/a	n/a	n/a	n/a	48
113.509	0.3	tomspunt	proud?	block_question_presentation	n/a	n/a	n/a	n/a	49
113.509	0.3	tomspunt	proud?	block_question_presentation	n/a	n/a	n/a	n/a	50
113.509	0.3	tomspunt	proud?	block_question_presentation	n/a	n/a	n/a	n/a	51
113.509	0.3	tomspunt	proud?	block_question_presentation	n/a	n/a	n/a	n/a	52
113.509	0.3	tomspunt	proud?	block_question_presentation	n/a	n/a	n/a	n/a	53
113.509	0.3	tomspunt	proud?	block_question_presentation	n/a	n/a	n/a	n/a	54
113.509	0.3	tomspunt	proud?	block_question_presentation	n/a	n/a	n/a	n/a	55
118.519	0.652	tomspunt	proud?	why_face	yes	yes	correct	task-tomspunt/F_598.jpg	48
119.485	0.601	tomspunt	proud?	why_face	no	no	correct	task-tomspunt/F_760.jpg	49
120.402	0.585	tomspunt	proud?	why_face	yes	yes	correct	task-tomspunt/F_582.jpg	50
121.302	0.601	tomspunt	proud?	why_face	no	no	correct	task-tomspunt/F_412.jpg	51
122.218	0.601	tomspunt	proud?	why_face	yes	yes	correct	task-tomspunt/F_083.jpg	52
123.135	0.682	tomspunt	proud?	why_face	no	no	correct	task-tomspunt/F_776.jpg	53
124.118	0.618	tomspunt	proud?	why_face	yes	yes	correct	task-tomspunt/F_618.jpg	54
125.051	0.785	tomspunt	proud?	why_face	yes	yes	correct	task-tomspunt/F_695.jpg	55
131.023	2.1	tomspunt	looking to side?	block_question_presentation	n/a	n/a	n/a	n/a	56
131.023	0.3	tomspunt	looking to side?	block_question_presentation	n/a	n/a	n/a	n/a	57
131.023	0.3	tomspunt	looking to side?	block_question_presentation	n/a	n/a	n/a	n/a	58
131.023	0.3	tomspunt	looking to side?	block_question_presentation	n/a	n/a	n/a	n/a	59
131.023	0.3	tomspunt	looking to side?	block_question_presentation	n/a	n/a	n/a	n/a	60
131.023	0.3	tomspunt	looking to side?	block_question_presentation	n/a	n/a	n/a	n/a	61
131.023	0.3	tomspunt	looking to side?	block_question_presentation	n/a	n/a	n/a	n/a	62
131.023	0.3	tomspunt	looking to side?	block_question_presentation	n/a	n/a	n/a	n/a	63
136.033	0.768	tomspunt	looking to side?	how_face	no	yes	incorrect	task-tomspunt/F_590.jpg	56
137.116	0.752	tomspunt	looking to side?	how_face	yes	yes	correct	task-tomspunt/F_433.jpg	57
138.183	0.651	tomspunt	looking to side?	how_face	yes	yes	correct	task-tomspunt/F_716.jpg	58
139.149	0.668	tomspunt	looking to side?	how_face	no	no	correct	task-tomspunt/F_779.jpg	59
140.133	0.792	tomspunt	looking to side?	how_face	yes	yes	correct	task-tomspunt/F_760.jpg	60
141.232	0.709	tomspunt	looking to side?	how_face	no	no	correct	task-tomspunt/F_111.jpg	61
142.249	1.025	tomspunt	looking to side?	how_face	no	yes	incorrect	task-tomspunt/F_110.jpg	62
143.582	0.925	tomspunt	looking to side?	how_face	no	no	correct	task-tomspunt/F_798.jpg	63
150.138	2.1	tomspunt	argument?	block_question_presentation	n/a	n/a	n/a	n/a	64
150.138	0.3	tomspunt	argument?	block_question_presentation	n/a	n/a	n/a	n/a	65
150.138	0.3	tomspunt	argument?	block_question_presentation	n/a	n/a	n/a	n/a	66
150.138	0.3	tomspunt	argument?	block_question_presentation	n/a	n/a	n/a	n/a	67
150.138	0.3	tomspunt	argument?	block_question_presentation	n/a	n/a	n/a	n/a	68
150.138	0.3	tomspunt	argument?	block_question_presentation	n/a	n/a	n/a	n/a	69
150.138	0.3	tomspunt	argument?	block_question_presentation	n/a	n/a	n/a	n/a	70
150.138	0.3	tomspunt	argument?	block_question_presentation	n/a	n/a	n/a	n/a	71
155.147	0.854	tomspunt	argument?	why_face	yes	yes	correct	task-tomspunt/F_716.jpg	64
156.314	0.721	tomspunt	argument?	why_face	no	no	correct	task-tomspunt/F_139.jpg	65
157.347	0.536	tomspunt	argument?	why_face	yes	yes	correct	task-tomspunt/F_712.jpg	66
158.197	0.719	tomspunt	argument?	why_face	no	no	correct	task-tomspunt/F_433.jpg	67
159.23	0.819	tomspunt	argument?	why_face	yes	yes	correct	task-tomspunt/F_403.jpg	68
160.363	0.569	tomspunt	argument?	why_face	no	no	correct	task-tomspunt/F_844.jpg	69
161.247	0.601	tomspunt	argument?	why_face	yes	yes	correct	task-tomspunt/F_743.jpg	70
162.163	0.752	tomspunt	argument?	why_face	yes	yes	correct	task-tomspunt/F_758.jpg	71
167.985	2.1	tomspunt	open mouth?	block_question_presentation	n/a	n/a	n/a	n/a	72
167.985	0.3	tomspunt	open mouth?	block_question_presentation	n/a	n/a	n/a	n/a	73
167.985	0.3	tomspunt	open mouth?	block_question_presentation	n/a	n/a	n/a	n/a	74
167.985	0.3	tomspunt	open mouth?	block_question_presentation	n/a	n/a	n/a	n/a	75
167.985	0.3	tomspunt	open mouth?	block_question_presentation	n/a	n/a	n/a	n/a	76
167.985	0.3	tomspunt	open mouth?	block_question_presentation	n/a	n/a	n/a	n/a	77
167.985	0.3	tomspunt	open mouth?	block_question_presentation	n/a	n/a	n/a	n/a	78
167.985	0.3	tomspunt	open mouth?	block_question_presentation	n/a	n/a	n/a	n/a	79
172.995	0.797	tomspunt	open mouth?	how_face	yes	yes	correct	task-tomspunt/F_844.jpg	72
174.095	0.502	tomspunt	open mouth?	how_face	yes	yes	correct	task-tomspunt/F_776.jpg	73
174.911	0.752	tomspunt	open mouth?	how_face	no	no	correct	task-tomspunt/F_544.jpg	74
175.978	0.451	tomspunt	open mouth?	how_face	yes	yes	correct	task-tomspunt/F_692.jpg	75
176.745	0.685	tomspunt	open mouth?	how_face	no	no	correct	task-tomspunt/F_584.jpg	76
177.744	0.462	tomspunt	open mouth?	how_face	yes	yes	correct	task-tomspunt/F_403.jpg	77
178.511	0.562	tomspunt	open mouth?	how_face	yes	yes	correct	task-tomspunt/F_086.jpg	78
179.378	0.601	tomspunt	open mouth?	how_face	no	no	correct	task-tomspunt/F_648.jpg	79
185.866	2.1	tomspunt	pressing button?	block_question_presentation	n/a	n/a	n/a	n/a	80
185.866	0.3	tomspunt	pressing button?	block_question_presentation	n/a	n/a	n/a	n/a	81
185.866	0.3	tomspunt	pressing button?	block_question_presentation	n/a	n/a	n/a	n/a	82
185.866	0.3	tomspunt	pressing button?	block_question_presentation	n/a	n/a	n/a	n/a	83
185.866	0.3	tomspunt	pressing button?	block_question_presentation	n/a	n/a	n/a	n/a	84
185.866	0.3	tomspunt	pressing button?	block_question_presentation	n/a	n/a	n/a	n/a	85
185.866	0.3	tomspunt	pressing button?	block_question_presentation	n/a	n/a	n/a	n/a	86
185.866	0.3	tomspunt	pressing button?	block_question_presentation	n/a	n/a	n/a	n/a	87
190.876	0.99	tomspunt	pressing button?	how_hand	yes	yes	correct	task-tomspunt/H_019.jpg	80
192.176	1.473	tomspunt	pressing button?	how_hand	no	no	correct	task-tomspunt/H_024.jpg	81
193.959	0.689	tomspunt	pressing button?	how_hand	no	no	correct	task-tomspunt/H_130.jpg	82
194.959	0.773	tomspunt	pressing button?	how_hand	yes	yes	correct	task-tomspunt/H_502.jpg	83
196.042	0.656	tomspunt	pressing button?	how_hand	no	no	correct	task-tomspunt/H_261.jpg	84
197.009	0.538	tomspunt	pressing button?	how_hand	yes	yes	correct	task-tomspunt/H_332.jpg	85
197.859	0.788	tomspunt	pressing button?	how_hand	yes	yes	correct	task-tomspunt/H_126.jpg	86
198.958	1.338	tomspunt	pressing button?	how_hand	yes	yes	correct	task-tomspunt/H_483.jpg	87
203.664	2.1	tomspunt	competing?	block_question_presentation	n/a	n/a	n/a	n/a	88
203.664	0.3	tomspunt	competing?	block_question_presentation	n/a	n/a	n/a	n/a	89
203.664	0.3	tomspunt	competing?	block_question_presentation	n/a	n/a	n/a	n/a	90
203.664	0.3	tomspunt	competing?	block_question_presentation	n/a	n/a	n/a	n/a	91
203.664	0.3	tomspunt	competing?	block_question_presentation	n/a	n/a	n/a	n/a	92
203.664	0.3	tomspunt	competing?	block_question_presentation	n/a	n/a	n/a	n/a	93
203.664	0.3	tomspunt	competing?	block_question_presentation	n/a	n/a	n/a	n/a	94
203.664	0.3	tomspunt	competing?	block_question_presentation	n/a	n/a	n/a	n/a	95
208.674	0.668	tomspunt	competing?	why_hand	yes	yes	correct	task-tomspunt/H_261.jpg	88
209.657	0.701	tomspunt	competing?	why_hand	no	no	correct	task-tomspunt/H_483.jpg	89
210.674	0.934	tomspunt	competing?	why_hand	yes	yes	correct	task-tomspunt/H_132.jpg	90
211.923	0.718	tomspunt	competing?	why_hand	no	no	correct	task-tomspunt/H_126.jpg	91
212.957	0.952	tomspunt	competing?	why_hand	yes	yes	correct	task-tomspunt/H_136.jpg	92
214.223	0.765	tomspunt	competing?	why_hand	no	no	correct	task-tomspunt/H_502.jpg	93
215.29	0.868	tomspunt	competing?	why_hand	yes	yes	correct	task-tomspunt/H_003.jpg	94
216.473	0.618	tomspunt	competing?	why_hand	yes	yes	correct	task-tomspunt/H_170.jpg	95
221.729	2.1	tomspunt	self-doubt?	block_question_presentation	n/a	n/a	n/a	n/a	96
221.729	0.3	tomspunt	self-doubt?	block_question_presentation	n/a	n/a	n/a	n/a	97
221.729	0.3	tomspunt	self-doubt?	block_question_presentation	n/a	n/a	n/a	n/a	98
221.729	0.3	tomspunt	self-doubt?	block_question_presentation	n/a	n/a	n/a	n/a	99
221.729	0.3	tomspunt	self-doubt?	block_question_presentation	n/a	n/a	n/a	n/a	100
221.729	0.3	tomspunt	self-doubt?	block_question_presentation	n/a	n/a	n/a	n/a	101
221.729	0.3	tomspunt	self-doubt?	block_question_presentation	n/a	n/a	n/a	n/a	102
221.729	0.3	tomspunt	self-doubt?	block_question_presentation	n/a	n/a	n/a	n/a	103
226.738	0.684	tomspunt	self-doubt?	why_face	yes	yes	correct	task-tomspunt/F_544.jpg	96
227.738	0.568	tomspunt	self-doubt?	why_face	no	no	correct	task-tomspunt/F_086.jpg	97
228.621	0.518	tomspunt	self-doubt?	why_face	yes	yes	correct	task-tomspunt/F_798.jpg	98
229.455	0.535	tomspunt	self-doubt?	why_face	yes	yes	correct	task-tomspunt/F_111.jpg	99
230.304	0.501	tomspunt	self-doubt?	why_face	no	no	correct	task-tomspunt/F_774.jpg	100
231.121	0.726	tomspunt	self-doubt?	why_face	yes	yes	correct	task-tomspunt/F_754.jpg	101
232.154	1.002	tomspunt	self-doubt?	why_face	no	no	correct	task-tomspunt/F_128.jpg	102
233.471	1.157	tomspunt	self-doubt?	why_face	no	yes	incorrect	task-tomspunt/F_584.jpg	103
240.776	2.1	tomspunt	looking at camera?	block_question_presentation	n/a	n/a	n/a	n/a	104
240.776	0.3	tomspunt	looking at camera?	block_question_presentation	n/a	n/a	n/a	n/a	105
240.776	0.3	tomspunt	looking at camera?	block_question_presentation	n/a	n/a	n/a	n/a	106
240.776	0.3	tomspunt	looking at camera?	block_question_presentation	n/a	n/a	n/a	n/a	107
240.776	0.3	tomspunt	looking at camera?	block_question_presentation	n/a	n/a	n/a	n/a	108
240.776	0.3	tomspunt	looking at camera?	block_question_presentation	n/a	n/a	n/a	n/a	109
240.776	0.3	tomspunt	looking at camera?	block_question_presentation	n/a	n/a	n/a	n/a	110
240.776	0.3	tomspunt	looking at camera?	block_question_presentation	n/a	n/a	n/a	n/a	111
245.786	0.62	tomspunt	looking at camera?	how_face	yes	yes	correct	task-tomspunt/F_128.jpg	104
246.719	0.618	tomspunt	looking at camera?	how_face	yes	yes	correct	task-tomspunt/F_618.jpg	105
247.652	0.619	tomspunt	looking at camera?	how_face	yes	yes	correct	task-tomspunt/F_598.jpg	106
248.585	0.636	tomspunt	looking at camera?	how_face	no	no	correct	task-tomspunt/F_743.jpg	107
249.535	0.569	tomspunt	looking at camera?	how_face	yes	yes	correct	task-tomspunt/F_774.jpg	108
250.419	0.769	tomspunt	looking at camera?	how_face	no	no	correct	task-tomspunt/F_582.jpg	109
251.502	0.718	tomspunt	looking at camera?	how_face	no	no	correct	task-tomspunt/F_754.jpg	110
252.535	0.751	tomspunt	looking at camera?	how_face	yes	yes	correct	task-tomspunt/F_129.jpg	111
259.574	2.1	tomspunt	both hands?	block_question_presentation	n/a	n/a	n/a	n/a	112
259.574	0.3	tomspunt	both hands?	block_question_presentation	n/a	n/a	n/a	n/a	113
259.574	0.3	tomspunt	both hands?	block_question_presentation	n/a	n/a	n/a	n/a	114
259.574	0.3	tomspunt	both hands?	block_question_presentation	n/a	n/a	n/a	n/a	115
259.574	0.3	tomspunt	both hands?	block_question_presentation	n/a	n/a	n/a	n/a	116
259.574	0.3	tomspunt	both hands?	block_question_presentation	n/a	n/a	n/a	n/a	117
259.574	0.3	tomspunt	both hands?	block_question_presentation	n/a	n/a	n/a	n/a	118
259.574	0.3	tomspunt	both hands?	block_question_presentation	n/a	n/a	n/a	n/a	119
264.583	1.218	tomspunt	both hands?	how_hand	yes	yes	correct	task-tomspunt/H_167.jpg	112
266.117	0.745	tomspunt	both hands?	how_hand	no	no	correct	task-tomspunt/H_091.jpg	113
267.166	0.945	tomspunt	both hands?	how_hand	no	no	correct	task-tomspunt/H_627.jpg	114
268.416	1.052	tomspunt	both hands?	how_hand	yes	yes	correct	task-tomspunt/H_027.jpg	115
269.783	0.961	tomspunt	both hands?	how_hand	yes	yes	correct	task-tomspunt/H_111.jpg	116
271.049	1.035	tomspunt	both hands?	how_hand	no	no	correct	task-tomspunt/H_159.jpg	117
272.399	0.793	tomspunt	both hands?	how_hand	yes	yes	correct	task-tomspunt/H_581.jpg	118
273.499	0.734	tomspunt	both hands?	how_hand	yes	yes	correct	task-tomspunt/H_349.jpg	119
278.371	2.083	tomspunt	self-protection?	block_question_presentation	n/a	n/a	n/a	n/a	120
278.371	0.3	tomspunt	self-protection?	block_question_presentation	n/a	n/a	n/a	n/a	121
278.371	0.3	tomspunt	self-protection?	block_question_presentation	n/a	n/a	n/a	n/a	122
278.371	0.3	tomspunt	self-protection?	block_question_presentation	n/a	n/a	n/a	n/a	123
278.371	0.3	tomspunt	self-protection?	block_question_presentation	n/a	n/a	n/a	n/a	124
278.371	0.3	tomspunt	self-protection?	block_question_presentation	n/a	n/a	n/a	n/a	125
278.371	0.3	tomspunt	self-protection?	block_question_presentation	n/a	n/a	n/a	n/a	126
278.371	0.3	tomspunt	self-protection?	block_question_presentation	n/a	n/a	n/a	n/a	127
283.364	0.739	tomspunt	self-protection?	why_hand	yes	yes	correct	task-tomspunt/H_443.jpg	120
284.414	1.439	tomspunt	self-protection?	why_hand	no	no	correct	task-tomspunt/H_006.jpg	121
286.164	1.852	tomspunt	self-protection?	why_hand	no	yes	incorrect	task-tomspunt/H_581.jpg	122
288.197	1.038	tomspunt	self-protection?	why_hand	no	no	correct	task-tomspunt/H_532.jpg	123
289.547	0.921	tomspunt	self-protection?	why_hand	yes	yes	correct	task-tomspunt/H_027.jpg	124
290.78	0.72	tomspunt	self-protection?	why_hand	no	yes	incorrect	task-tomspunt/H_038.jpg	125
291.813	0.818	tomspunt	self-protection?	why_hand	no	no	correct	task-tomspunt/H_332.jpg	126
292.946	0.786	tomspunt	self-protection?	why_hand	yes	yes	correct	task-tomspunt/H_189.jpg	127
299.852	2.083	tomspunt	smiling?	block_question_presentation	n/a	n/a	n/a	n/a	128
299.852	0.3	tomspunt	smiling?	block_question_presentation	n/a	n/a	n/a	n/a	129
299.852	0.3	tomspunt	smiling?	block_question_presentation	n/a	n/a	n/a	n/a	130
299.852	0.3	tomspunt	smiling?	block_question_presentation	n/a	n/a	n/a	n/a	131
299.852	0.3	tomspunt	smiling?	block_question_presentation	n/a	n/a	n/a	n/a	132
299.852	0.3	tomspunt	smiling?	block_question_presentation	n/a	n/a	n/a	n/a	133
299.852	0.3	tomspunt	smiling?	block_question_presentation	n/a	n/a	n/a	n/a	134
299.852	0.3	tomspunt	smiling?	block_question_presentation	n/a	n/a	n/a	n/a	135
304.845	0.598	tomspunt	smiling?	how_face	yes	yes	correct	task-tomspunt/F_759.jpg	128
305.745	0.668	tomspunt	smiling?	how_face	no	no	correct	task-tomspunt/F_412.jpg	129
306.728	0.781	tomspunt	smiling?	how_face	yes	yes	correct	task-tomspunt/F_593.jpg	130
307.811	0.651	tomspunt	smiling?	how_face	no	no	correct	task-tomspunt/F_712.jpg	131
308.778	0.763	tomspunt	smiling?	how_face	yes	yes	correct	task-tomspunt/F_695.jpg	132
309.844	1.046	tomspunt	smiling?	how_face	yes	yes	correct	task-tomspunt/F_139.jpg	133
311.194	0.484	tomspunt	smiling?	how_face	yes	yes	correct	task-tomspunt/F_083.jpg	134
311.994	0.712	tomspunt	smiling?	how_face	no	no	correct	task-tomspunt/F_758.jpg	135
317.633	2.1	tomspunt	admiring?	block_question_presentation	n/a	n/a	n/a	n/a	136
317.633	0.3	tomspunt	admiring?	block_question_presentation	n/a	n/a	n/a	n/a	137
317.633	0.3	tomspunt	admiring?	block_question_presentation	n/a	n/a	n/a	n/a	138
317.633	0.3	tomspunt	admiring?	block_question_presentation	n/a	n/a	n/a	n/a	139
317.633	0.3	tomspunt	admiring?	block_question_presentation	n/a	n/a	n/a	n/a	140
317.633	0.3	tomspunt	admiring?	block_question_presentation	n/a	n/a	n/a	n/a	141
317.633	0.3	tomspunt	admiring?	block_question_presentation	n/a	n/a	n/a	n/a	142
317.633	0.3	tomspunt	admiring?	block_question_presentation	n/a	n/a	n/a	n/a	143
322.643	0.652	tomspunt	admiring?	why_face	yes	yes	correct	task-tomspunt/F_593.jpg	136
323.609	0.674	tomspunt	admiring?	why_face	no	no	correct	task-tomspunt/F_129.jpg	137
324.592	1.391	tomspunt	admiring?	why_face	no	yes	incorrect	task-tomspunt/F_759.jpg	138
326.292	0.773	tomspunt	admiring?	why_face	no	no	correct	task-tomspunt/F_692.jpg	139
327.375	0.673	tomspunt	admiring?	why_face	yes	yes	correct	task-tomspunt/F_779.jpg	140
328.359	0.668	tomspunt	admiring?	why_face	yes	yes	correct	task-tomspunt/F_590.jpg	141
329.342	0.801	tomspunt	admiring?	why_face	yes	yes	correct	task-tomspunt/F_648.jpg	142
330.458	0.722	tomspunt	admiring?	why_face	no	no	correct	task-tomspunt/F_110.jpg	143
335.531	2.1	tomspunt	competing?	block_question_presentation	n/a	n/a	n/a	n/a	144
335.531	0.3	tomspunt	competing?	block_question_presentation	n/a	n/a	n/a	n/a	145
335.531	0.3	tomspunt	competing?	block_question_presentation	n/a	n/a	n/a	n/a	146
335.531	0.3	tomspunt	competing?	block_question_presentation	n/a	n/a	n/a	n/a	147
335.531	0.3	tomspunt	competing?	block_question_presentation	n/a	n/a	n/a	n/a	148
335.531	0.3	tomspunt	competing?	block_question_presentation	n/a	n/a	n/a	n/a	149
335.531	0.3	tomspunt	competing?	block_question_presentation	n/a	n/a	n/a	n/a	150
335.531	0.3	tomspunt	competing?	block_question_presentation	n/a	n/a	n/a	n/a	151
340.54	0.652	tomspunt	competing?	why_hand	yes	yes	correct	task-tomspunt/H_261.jpg	144
341.507	0.518	tomspunt	competing?	why_hand	yes	yes	correct	task-tomspunt/H_170.jpg	145
342.34	1.151	tomspunt	competing?	why_hand	no	no	correct	task-tomspunt/H_483.jpg	146
343.807	0.651	tomspunt	competing?	why_hand	yes	yes	correct	task-tomspunt/H_132.jpg	147
344.773	0.768	tomspunt	competing?	why_hand	yes	yes	correct	task-tomspunt/H_136.jpg	148
345.856	0.651	tomspunt	competing?	why_hand	yes	yes	correct	task-tomspunt/H_003.jpg	149
346.823	0.968	tomspunt	competing?	why_hand	no	no	correct	task-tomspunt/H_126.jpg	150
348.106	0.668	tomspunt	competing?	why_hand	yes	no	incorrect	task-tomspunt/H_502.jpg	151
357.011	2.083	tomspunt	reaching?	block_question_presentation	n/a	n/a	n/a	n/a	152
357.011	0.3	tomspunt	reaching?	block_question_presentation	n/a	n/a	n/a	n/a	153
357.011	0.3	tomspunt	reaching?	block_question_presentation	n/a	n/a	n/a	n/a	154
357.011	0.3	tomspunt	reaching?	block_question_presentation	n/a	n/a	n/a	n/a	155
357.011	0.3	tomspunt	reaching?	block_question_presentation	n/a	n/a	n/a	n/a	156
357.011	0.3	tomspunt	reaching?	block_question_presentation	n/a	n/a	n/a	n/a	157
357.011	0.3	tomspunt	reaching?	block_question_presentation	n/a	n/a	n/a	n/a	158
357.011	0.3	tomspunt	reaching?	block_question_presentation	n/a	n/a	n/a	n/a	159
362.021	0.994	tomspunt	reaching?	how_hand	yes	yes	correct	task-tomspunt/H_003.jpg	152
363.321	0.668	tomspunt	reaching?	how_hand	yes	yes	correct	task-tomspunt/H_364.jpg	153
364.304	0.651	tomspunt	reaching?	how_hand	no	no	correct	task-tomspunt/H_532.jpg	154
365.271	0.842	tomspunt	reaching?	how_hand	yes	yes	correct	task-tomspunt/H_006.jpg	155
366.42	0.026	tomspunt	reaching?	how_hand	yes	no	incorrect	task-tomspunt/H_438.jpg	156
366.754	1.108	tomspunt	reaching?	how_hand	yes	yes	correct	task-tomspunt/H_007.jpg	157
368.17	1.024	tomspunt	reaching?	how_hand	no	yes	incorrect	task-tomspunt/H_474.jpg	158
369.503	0.907	tomspunt	reaching?	how_hand	no	no	correct	task-tomspunt/H_132.jpg	159
374.842	2.1	tomspunt	open mouth?	block_question_presentation	n/a	n/a	n/a	n/a	160
374.842	0.3	tomspunt	open mouth?	block_question_presentation	n/a	n/a	n/a	n/a	161
374.842	0.3	tomspunt	open mouth?	block_question_presentation	n/a	n/a	n/a	n/a	162
374.842	0.3	tomspunt	open mouth?	block_question_presentation	n/a	n/a	n/a	n/a	163
374.842	0.3	tomspunt	open mouth?	block_question_presentation	n/a	n/a	n/a	n/a	164
374.842	0.3	tomspunt	open mouth?	block_question_presentation	n/a	n/a	n/a	n/a	165
374.842	0.3	tomspunt	open mouth?	block_question_presentation	n/a	n/a	n/a	n/a	166
374.842	0.3	tomspunt	open mouth?	block_question_presentation	n/a	n/a	n/a	n/a	167
379.852	0.603	tomspunt	open mouth?	how_face	yes	yes	correct	task-tomspunt/F_403.jpg	160
380.769	0.569	tomspunt	open mouth?	how_face	no	no	correct	task-tomspunt/F_648.jpg	161
381.652	0.536	tomspunt	open mouth?	how_face	yes	yes	correct	task-tomspunt/F_776.jpg	162
382.502	0.769	tomspunt	open mouth?	how_face	no	no	correct	task-tomspunt/F_584.jpg	163
383.585	0.668	tomspunt	open mouth?	how_face	yes	yes	correct	task-tomspunt/F_844.jpg	164
384.568	0.551	tomspunt	open mouth?	how_face	yes	yes	correct	task-tomspunt/F_692.jpg	165
385.435	0.501	tomspunt	open mouth?	how_face	yes	yes	correct	task-tomspunt/F_086.jpg	166
386.251	0.634	tomspunt	open mouth?	how_face	no	no	correct	task-tomspunt/F_544.jpg	167
393.523	2.1	tomspunt	argument?	block_question_presentation	n/a	n/a	n/a	n/a	168
393.523	0.3	tomspunt	argument?	block_question_presentation	n/a	n/a	n/a	n/a	169
393.523	0.3	tomspunt	argument?	block_question_presentation	n/a	n/a	n/a	n/a	170
393.523	0.3	tomspunt	argument?	block_question_presentation	n/a	n/a	n/a	n/a	171
393.523	0.3	tomspunt	argument?	block_question_presentation	n/a	n/a	n/a	n/a	172
393.523	0.3	tomspunt	argument?	block_question_presentation	n/a	n/a	n/a	n/a	173
393.523	0.3	tomspunt	argument?	block_question_presentation	n/a	n/a	n/a	n/a	174
393.523	0.3	tomspunt	argument?	block_question_presentation	n/a	n/a	n/a	n/a	175
398.533	0.546	tomspunt	argument?	why_face	yes	yes	correct	task-tomspunt/F_403.jpg	168
399.383	1.195	tomspunt	argument?	why_face	no	no	correct	task-tomspunt/F_844.jpg	169
400.883	0.868	tomspunt	argument?	why_face	no	yes	incorrect	task-tomspunt/F_712.jpg	170
402.066	0.668	tomspunt	argument?	why_face	yes	yes	correct	task-tomspunt/F_758.jpg	171
403.049	0.635	tomspunt	argument?	why_face	no	no	correct	task-tomspunt/F_433.jpg	172
403.999	0.585	tomspunt	argument?	why_face	yes	yes	correct	task-tomspunt/F_716.jpg	173
404.899	0.91	tomspunt	argument?	why_face	no	no	correct	task-tomspunt/F_139.jpg	174
406.115	0.818	tomspunt	argument?	why_face	yes	yes	correct	task-tomspunt/F_743.jpg	175
411.738	2.1	tomspunt	helping?	block_question_presentation	n/a	n/a	n/a	n/a	176
411.738	0.3	tomspunt	helping?	block_question_presentation	n/a	n/a	n/a	n/a	177
411.738	0.3	tomspunt	helping?	block_question_presentation	n/a	n/a	n/a	n/a	178
411.738	0.3	tomspunt	helping?	block_question_presentation	n/a	n/a	n/a	n/a	179
411.738	0.3	tomspunt	helping?	block_question_presentation	n/a	n/a	n/a	n/a	180
411.738	0.3	tomspunt	helping?	block_question_presentation	n/a	n/a	n/a	n/a	181
411.738	0.3	tomspunt	helping?	block_question_presentation	n/a	n/a	n/a	n/a	182
411.738	0.3	tomspunt	helping?	block_question_presentation	n/a	n/a	n/a	n/a	183
416.747	1.156	tomspunt	helping?	why_hand	no	yes	incorrect	task-tomspunt/H_024.jpg	176
418.214	0.739	tomspunt	helping?	why_hand	yes	yes	correct	task-tomspunt/H_349.jpg	177
419.264	1.352	tomspunt	helping?	why_hand	no	yes	incorrect	task-tomspunt/H_077.jpg	178
420.93	0.851	tomspunt	helping?	why_hand	yes	yes	correct	task-tomspunt/H_474.jpg	179
422.097	0.588	tomspunt	helping?	why_hand	yes	no	incorrect	task-tomspunt/H_091.jpg	180
422.997	0.988	tomspunt	helping?	why_hand	no	no	correct	task-tomspunt/H_159.jpg	181
424.296	0.72	tomspunt	helping?	why_hand	yes	yes	correct	task-tomspunt/H_111.jpg	182
425.33	0.853	tomspunt	helping?	why_hand	no	no	correct	task-tomspunt/H_012.jpg	183
429.802	2.1	tomspunt	both hands?	block_question_presentation	n/a	n/a	n/a	n/a	184
429.802	0.3	tomspunt	both hands?	block_question_presentation	n/a	n/a	n/a	n/a	185
429.802	0.3	tomspunt	both hands?	block_question_presentation	n/a	n/a	n/a	n/a	186
429.802	0.3	tomspunt	both hands?	block_question_presentation	n/a	n/a	n/a	n/a	187
429.802	0.3	tomspunt	both hands?	block_question_presentation	n/a	n/a	n/a	n/a	188
429.802	0.3	tomspunt	both hands?	block_question_presentation	n/a	n/a	n/a	n/a	189
429.802	0.3	tomspunt	both hands?	block_question_presentation	n/a	n/a	n/a	n/a	190
429.802	0.3	tomspunt	both hands?	block_question_presentation	n/a	n/a	n/a	n/a	191
434.812	0.585	tomspunt	both hands?	how_hand	yes	yes	correct	task-tomspunt/H_111.jpg	184
435.712	0.635	tomspunt	both hands?	how_hand	yes	yes	correct	task-tomspunt/H_027.jpg	185
436.662	0.618	tomspunt	both hands?	how_hand	no	no	correct	task-tomspunt/H_091.jpg	186
437.595	1.065	tomspunt	both hands?	how_hand	yes	yes	correct	task-tomspunt/H_167.jpg	187
438.961	0.918	tomspunt	both hands?	how_hand	yes	yes	correct	task-tomspunt/H_581.jpg	188
440.194	0.702	tomspunt	both hands?	how_hand	no	no	correct	task-tomspunt/H_159.jpg	189
441.211	0.835	tomspunt	both hands?	how_hand	yes	yes	correct	task-tomspunt/H_349.jpg	190
442.361	0.801	tomspunt	both hands?	how_hand	no	no	correct	task-tomspunt/H_627.jpg	191
447.333	2.1	tomspunt	healthy?	block_question_presentation	n/a	n/a	n/a	n/a	192
447.333	0.3	tomspunt	healthy?	block_question_presentation	n/a	n/a	n/a	n/a	193
447.333	0.3	tomspunt	healthy?	block_question_presentation	n/a	n/a	n/a	n/a	194
447.333	0.3	tomspunt	healthy?	block_question_presentation	n/a	n/a	n/a	n/a	195
447.333	0.3	tomspunt	healthy?	block_question_presentation	n/a	n/a	n/a	n/a	196
447.333	0.3	tomspunt	healthy?	block_question_presentation	n/a	n/a	n/a	n/a	197
447.333	0.3	tomspunt	healthy?	block_question_presentation	n/a	n/a	n/a	n/a	198
447.333	0.3	tomspunt	healthy?	block_question_presentation	n/a	n/a	n/a	n/a	199
452.343	1.085	tomspunt	healthy?	why_hand	yes	yes	correct	task-tomspunt/H_438.jpg	192
453.743	1.035	tomspunt	healthy?	why_hand	yes	yes	correct	task-tomspunt/H_364.jpg	193
455.093	0.668	tomspunt	healthy?	why_hand	yes	yes	correct	task-tomspunt/H_362.jpg	194
456.076	0.742	tomspunt	healthy?	why_hand	no	no	correct	task-tomspunt/H_019.jpg	195
457.126	0.675	tomspunt	healthy?	why_hand	yes	yes	correct	task-tomspunt/H_167.jpg	196
458.109	0.925	tomspunt	healthy?	why_hand	no	no	correct	task-tomspunt/H_007.jpg	197
459.342	0.974	tomspunt	healthy?	why_hand	no	yes	incorrect	task-tomspunt/H_627.jpg	198
460.625	1.239	tomspunt	healthy?	why_hand	no	no	correct	task-tomspunt/H_130.jpg	199
466.381	2.1	tomspunt	pressing button?	block_question_presentation	n/a	n/a	n/a	n/a	200
466.381	0.3	tomspunt	pressing button?	block_question_presentation	n/a	n/a	n/a	n/a	201
466.381	0.3	tomspunt	pressing button?	block_question_presentation	n/a	n/a	n/a	n/a	202
466.381	0.3	tomspunt	pressing button?	block_question_presentation	n/a	n/a	n/a	n/a	203
466.381	0.3	tomspunt	pressing button?	block_question_presentation	n/a	n/a	n/a	n/a	204
466.381	0.3	tomspunt	pressing button?	block_question_presentation	n/a	n/a	n/a	n/a	205
466.381	0.3	tomspunt	pressing button?	block_question_presentation	n/a	n/a	n/a	n/a	206
466.381	0.3	tomspunt	pressing button?	block_question_presentation	n/a	n/a	n/a	n/a	207
471.39	0.685	tomspunt	pressing button?	how_hand	yes	yes	correct	task-tomspunt/H_126.jpg	200
472.39	0.585	tomspunt	pressing button?	how_hand	no	no	correct	task-tomspunt/H_130.jpg	201
473.29	0.751	tomspunt	pressing button?	how_hand	yes	yes	correct	task-tomspunt/H_483.jpg	202
474.357	0.785	tomspunt	pressing button?	how_hand	no	no	correct	task-tomspunt/H_024.jpg	203
475.457	0.501	tomspunt	pressing button?	how_hand	yes	yes	correct	task-tomspunt/H_332.jpg	204
476.273	0.618	tomspunt	pressing button?	how_hand	yes	yes	correct	task-tomspunt/H_019.jpg	205
477.206	0.685	tomspunt	pressing button?	how_hand	no	no	correct	task-tomspunt/H_261.jpg	206
478.206	0.601	tomspunt	pressing button?	how_hand	yes	yes	correct	task-tomspunt/H_502.jpg	207
483.912	2.1	tomspunt	looking at camera?	block_question_presentation	n/a	n/a	n/a	n/a	208
483.912	0.3	tomspunt	looking at camera?	block_question_presentation	n/a	n/a	n/a	n/a	209
483.912	0.3	tomspunt	looking at camera?	block_question_presentation	n/a	n/a	n/a	n/a	210
483.912	0.3	tomspunt	looking at camera?	block_question_presentation	n/a	n/a	n/a	n/a	211
483.912	0.3	tomspunt	looking at camera?	block_question_presentation	n/a	n/a	n/a	n/a	212
483.912	0.3	tomspunt	looking at camera?	block_question_presentation	n/a	n/a	n/a	n/a	213
483.912	0.3	tomspunt	looking at camera?	block_question_presentation	n/a	n/a	n/a	n/a	214
483.912	0.3	tomspunt	looking at camera?	block_question_presentation	n/a	n/a	n/a	n/a	215
488.922	0.585	tomspunt	looking at camera?	how_face	yes	yes	correct	task-tomspunt/F_618.jpg	208
489.821	0.613	tomspunt	looking at camera?	how_face	no	no	correct	task-tomspunt/F_754.jpg	209
490.738	0.568	tomspunt	looking at camera?	how_face	yes	yes	correct	task-tomspunt/F_129.jpg	210
491.621	0.735	tomspunt	looking at camera?	how_face	yes	yes	correct	task-tomspunt/F_598.jpg	211
492.671	0.985	tomspunt	looking at camera?	how_face	yes	yes	correct	task-tomspunt/F_128.jpg	212
493.971	0.901	tomspunt	looking at camera?	how_face	no	no	correct	task-tomspunt/F_582.jpg	213
495.187	0.461	tomspunt	looking at camera?	how_face	yes	yes	correct	task-tomspunt/F_774.jpg	214
495.954	0.668	tomspunt	looking at camera?	how_face	no	no	correct	task-tomspunt/F_743.jpg	215
502.876	2.1	tomspunt	self-doubt?	block_question_presentation	n/a	n/a	n/a	n/a	216
502.876	0.3	tomspunt	self-doubt?	block_question_presentation	n/a	n/a	n/a	n/a	217
502.876	0.3	tomspunt	self-doubt?	block_question_presentation	n/a	n/a	n/a	n/a	218
502.876	0.3	tomspunt	self-doubt?	block_question_presentation	n/a	n/a	n/a	n/a	219
502.876	0.3	tomspunt	self-doubt?	block_question_presentation	n/a	n/a	n/a	n/a	220
502.876	0.3	tomspunt	self-doubt?	block_question_presentation	n/a	n/a	n/a	n/a	221
502.876	0.3	tomspunt	self-doubt?	block_question_presentation	n/a	n/a	n/a	n/a	222
502.876	0.3	tomspunt	self-doubt?	block_question_presentation	n/a	n/a	n/a	n/a	223
507.886	n/a	tomspunt	self-doubt?	why_face	n/a	yes	incorrect	task-tomspunt/F_798.jpg	216
509.919	1.055	tomspunt	self-doubt?	why_face	yes	no	incorrect	task-tomspunt/F_086.jpg	217
511.285	0.738	tomspunt	self-doubt?	why_face	yes	yes	correct	task-tomspunt/F_544.jpg	218
512.335	0.552	tomspunt	self-doubt?	why_face	yes	yes	correct	task-tomspunt/F_754.jpg	219
513.202	0.52	tomspunt	self-doubt?	why_face	yes	yes	correct	task-tomspunt/F_111.jpg	220
514.035	0.504	tomspunt	self-doubt?	why_face	yes	yes	correct	task-tomspunt/F_584.jpg	221
514.852	0.62	tomspunt	self-doubt?	why_face	no	no	correct	task-tomspunt/F_128.jpg	222
515.785	0.803	tomspunt	self-doubt?	why_face	no	no	correct	task-tomspunt/F_774.jpg	223
520.391	2.1	tomspunt	self-protection?	block_question_presentation	n/a	n/a	n/a	n/a	224
520.391	0.3	tomspunt	self-protection?	block_question_presentation	n/a	n/a	n/a	n/a	225
520.391	0.3	tomspunt	self-protection?	block_question_presentation	n/a	n/a	n/a	n/a	226
520.391	0.3	tomspunt	self-protection?	block_question_presentation	n/a	n/a	n/a	n/a	227
520.391	0.3	tomspunt	self-protection?	block_question_presentation	n/a	n/a	n/a	n/a	228
520.391	0.3	tomspunt	self-protection?	block_question_presentation	n/a	n/a	n/a	n/a	229
520.391	0.3	tomspunt	self-protection?	block_question_presentation	n/a	n/a	n/a	n/a	230
520.391	0.3	tomspunt	self-protection?	block_question_presentation	n/a	n/a	n/a	n/a	231
525.4	n/a	tomspunt	self-protection?	why_hand	n/a	yes	incorrect	task-tomspunt/H_581.jpg	224
527.433	n/a	tomspunt	self-protection?	why_hand	n/a	yes	incorrect	task-tomspunt/H_443.jpg	225
529.466	0.934	tomspunt	self-protection?	why_hand	no	no	correct	task-tomspunt/H_332.jpg	226
530.716	0.931	tomspunt	self-protection?	why_hand	yes	yes	correct	task-tomspunt/H_027.jpg	227
531.949	0.668	tomspunt	self-protection?	why_hand	no	no	correct	task-tomspunt/H_532.jpg	228
532.933	0.585	tomspunt	self-protection?	why_hand	yes	yes	correct	task-tomspunt/H_189.jpg	229
533.833	1.002	tomspunt	self-protection?	why_hand	no	no	correct	task-tomspunt/H_006.jpg	230
535.149	1.051	tomspunt	self-protection?	why_hand	yes	yes	correct	task-tomspunt/H_038.jpg	231
538.605	2.1	tomspunt	lifting?	block_question_presentation	n/a	n/a	n/a	n/a	232
538.605	0.3	tomspunt	lifting?	block_question_presentation	n/a	n/a	n/a	n/a	233
538.605	0.3	tomspunt	lifting?	block_question_presentation	n/a	n/a	n/a	n/a	234
538.605	0.3	tomspunt	lifting?	block_question_presentation	n/a	n/a	n/a	n/a	235
538.605	0.3	tomspunt	lifting?	block_question_presentation	n/a	n/a	n/a	n/a	236
538.605	0.3	tomspunt	lifting?	block_question_presentation	n/a	n/a	n/a	n/a	237
538.605	0.3	tomspunt	lifting?	block_question_presentation	n/a	n/a	n/a	n/a	238
538.605	0.3	tomspunt	lifting?	block_question_presentation	n/a	n/a	n/a	n/a	239
543.615	1.542	tomspunt	lifting?	how_hand	no	yes	incorrect	task-tomspunt/H_443.jpg	232
545.464	0.742	tomspunt	lifting?	how_hand	no	no	correct	task-tomspunt/H_038.jpg	233
546.514	0.958	tomspunt	lifting?	how_hand	no	yes	incorrect	task-tomspunt/H_136.jpg	234
547.781	0.802	tomspunt	lifting?	how_hand	no	no	correct	task-tomspunt/H_012.jpg	235
548.897	0.641	tomspunt	lifting?	how_hand	yes	yes	correct	task-tomspunt/H_362.jpg	236
549.847	1.273	tomspunt	lifting?	how_hand	no	yes	incorrect	task-tomspunt/H_189.jpg	237
551.43	1.184	tomspunt	lifting?	how_hand	no	yes	incorrect	task-tomspunt/H_170.jpg	238
552.93	0.651	tomspunt	lifting?	how_hand	no	no	correct	task-tomspunt/H_077.jpg	239
556.486	2.1	tomspunt	looking to side?	block_question_presentation	n/a	n/a	n/a	n/a	240
556.486	0.3	tomspunt	looking to side?	block_question_presentation	n/a	n/a	n/a	n/a	241
556.486	0.3	tomspunt	looking to side?	block_question_presentation	n/a	n/a	n/a	n/a	242
556.486	0.3	tomspunt	looking to side?	block_question_presentation	n/a	n/a	n/a	n/a	243
556.486	0.3	tomspunt	looking to side?	block_question_presentation	n/a	n/a	n/a	n/a	244
556.486	0.3	tomspunt	looking to side?	block_question_presentation	n/a	n/a	n/a	n/a	245
556.486	0.3	tomspunt	looking to side?	block_question_presentation	n/a	n/a	n/a	n/a	246
556.486	0.3	tomspunt	looking to side?	block_question_presentation	n/a	n/a	n/a	n/a	247
561.496	0.669	tomspunt	looking to side?	how_face	yes	yes	correct	task-tomspunt/F_716.jpg	240
562.479	0.602	tomspunt	looking to side?	how_face	no	no	correct	task-tomspunt/F_798.jpg	241
563.395	0.835	tomspunt	looking to side?	how_face	yes	yes	correct	task-tomspunt/F_760.jpg	242
564.545	1.001	tomspunt	looking to side?	how_face	no	yes	incorrect	task-tomspunt/F_110.jpg	243
565.862	0.8	tomspunt	looking to side?	how_face	no	no	correct	task-tomspunt/F_779.jpg	244
566.962	1.035	tomspunt	looking to side?	how_face	yes	yes	correct	task-tomspunt/F_590.jpg	245
568.311	0.685	tomspunt	looking to side?	how_face	no	no	correct	task-tomspunt/F_111.jpg	246
569.311	1.468	tomspunt	looking to side?	how_face	yes	yes	correct	task-tomspunt/F_433.jpg	247
578.966	2.1	tomspunt	proud?	block_question_presentation	n/a	n/a	n/a	n/a	248
578.966	0.3	tomspunt	proud?	block_question_presentation	n/a	n/a	n/a	n/a	249
578.966	0.3	tomspunt	proud?	block_question_presentation	n/a	n/a	n/a	n/a	250
578.966	0.3	tomspunt	proud?	block_question_presentation	n/a	n/a	n/a	n/a	251
578.966	0.3	tomspunt	proud?	block_question_presentation	n/a	n/a	n/a	n/a	252
578.966	0.3	tomspunt	proud?	block_question_presentation	n/a	n/a	n/a	n/a	253
578.966	0.3	tomspunt	proud?	block_question_presentation	n/a	n/a	n/a	n/a	254
578.966	0.3	tomspunt	proud?	block_question_presentation	n/a	n/a	n/a	n/a	255
583.976	0.935	tomspunt	proud?	why_face	yes	yes	correct	task-tomspunt/F_083.jpg	248
585.226	0.727	tomspunt	proud?	why_face	yes	yes	correct	task-tomspunt/F_582.jpg	249
586.259	0.926	tomspunt	proud?	why_face	yes	yes	correct	task-tomspunt/F_618.jpg	250
587.492	0.91	tomspunt	proud?	why_face	no	no	correct	task-tomspunt/F_776.jpg	251
588.709	0.918	tomspunt	proud?	why_face	no	yes	incorrect	task-tomspunt/F_598.jpg	252
589.942	0.808	tomspunt	proud?	why_face	no	no	correct	task-tomspunt/F_760.jpg	253
591.059	0.975	tomspunt	proud?	why_face	no	no	correct	task-tomspunt/F_412.jpg	254
592.342	1.302	tomspunt	proud?	why_face	yes	yes	correct	task-tomspunt/F_695.jpg	255
