onset	duration	run_type	trial_type	trial_index	cue	stimulusintensity	rating_value	rating_glmslabel	rating_value_fillna	rating_glmslabel_fillna	rating_mouseonset	rating_mousedur	stim_file_TODO	pain_onset_ttl1	pain_onset_ttl2	pain_onset_ttl3	pain_onset_ttl4	pain_stimulus_delivery_success	cognitive_correct_response	cognitive_participant_response	cognitive_response_accuracy
5.71	0.98	pain	cue	1	high_cue	n/a	n/a	n/a	n/a	n/a	n/a	n/a	task-social/cue/runtype-pain/sch/h020.png	n/a	n/a	n/a	n/a	n/a	n/a	n/a	n/a
8.31	1.53	pain	expectrating	1	high_cue	n/a	67.98	Very Strong	67.98	Very Strong	0.42	1.12	task-social/cue/runtype-pain/sch/h020.png	n/a	n/a	n/a	n/a	n/a	n/a	n/a	n/a
12.95	12.82	pain	stimulus	1	high_cue	high_stim	n/a	n/a	n/a	n/a	n/a	n/a	n/a	12.95	16.96	21.96	25.77	success	n/a	n/a	n/a
23.9	2.4	pain	outcomerating	1	high_cue	high_stim	83.51	Very Strong	83.51	Very Strong	0.42	1.12	task-social/outcomerating/task-pain_scale.png	n/a	n/a	n/a	n/a	success	n/a	n/a	n/a
32.3	1.0	pain	cue	2	low_cue	n/a	n/a	n/a	n/a	n/a	n/a	n/a	task-social/cue/runtype-pain/scl/l020.png	n/a	n/a	n/a	n/a	n/a	n/a	n/a	n/a
35.3	1.79	pain	expectrating	2	low_cue	n/a	48.62	Strong	48.62	Strong	0.8	0.99	task-social/cue/runtype-pain/scl/l020.png	n/a	n/a	n/a	n/a	n/a	n/a	n/a	n/a
45.25	12.82	pain	stimulus	2	low_cue	high_stim	n/a	n/a	n/a	n/a	n/a	n/a	n/a	45.25	49.26	54.26	58.07	success	n/a	n/a	n/a
58.5	1.43	pain	outcomerating	2	low_cue	high_stim	52.66	Strong	52.66	Strong	0.8	0.99	task-social/outcomerating/task-pain_scale.png	n/a	n/a	n/a	n/a	success	n/a	n/a	n/a
63.1	1.0	pain	cue	3	low_cue	n/a	n/a	n/a	n/a	n/a	n/a	n/a	task-social/cue/runtype-pain/scl/l011.png	n/a	n/a	n/a	n/a	n/a	n/a	n/a	n/a
65.5	2.62	pain	expectrating	3	low_cue	n/a	56.63	Strong	56.63	Strong	0.8	1.82	task-social/cue/runtype-pain/scl/l011.png	n/a	n/a	n/a	n/a	n/a	n/a	n/a	n/a
70.14	12.819999999999993	pain	stimulus	3	low_cue	high_stim	n/a	n/a	n/a	n/a	n/a	n/a	n/a	70.14	74.15	79.15	82.96	success	n/a	n/a	n/a
81.9	1.79	pain	outcomerating	3	low_cue	high_stim	71.78	Very Strong	71.78	Very Strong	0.8	1.82	task-social/outcomerating/task-pain_scale.png	n/a	n/a	n/a	n/a	success	n/a	n/a	n/a
95.09	1.0	pain	cue	4	high_cue	n/a	n/a	n/a	n/a	n/a	n/a	n/a	task-social/cue/runtype-pain/sch/h047.png	n/a	n/a	n/a	n/a	n/a	n/a	n/a	n/a
97.49	1.87	pain	expectrating	4	high_cue	n/a	80.5	Very Strong	80.5	Very Strong	1.0	0.87	task-social/cue/runtype-pain/sch/h047.png	n/a	n/a	n/a	n/a	n/a	n/a	n/a	n/a
102.72	12.829999999999998	pain	stimulus	4	high_cue	high_stim	n/a	n/a	n/a	n/a	n/a	n/a	n/a	102.72	106.73	111.73	115.54	success	n/a	n/a	n/a
115.61	1.88	pain	outcomerating	4	high_cue	high_stim	64.37	Very Strong	64.37	Very Strong	1.0	0.87	task-social/outcomerating/task-pain_scale.png	n/a	n/a	n/a	n/a	success	n/a	n/a	n/a
120.21	0.98	pain	cue	5	low_cue	n/a	n/a	n/a	n/a	n/a	n/a	n/a	task-social/cue/runtype-pain/scl/l012.png	n/a	n/a	n/a	n/a	n/a	n/a	n/a	n/a
123.21	1.24	pain	expectrating	5	low_cue	n/a	61.79	Strong	61.79	Strong	0.38	0.86	task-social/cue/runtype-pain/scl/l012.png	n/a	n/a	n/a	n/a	n/a	n/a	n/a	n/a
138.45	11.910000000000025	pain	stimulus	5	low_cue	low_stim	n/a	n/a	n/a	n/a	n/a	n/a	n/a	138.45	141.95	146.95	150.35	success	n/a	n/a	n/a
149.0	1.38	pain	outcomerating	5	low_cue	low_stim	39.42	Strong	39.42	Strong	0.38	0.86	task-social/outcomerating/task-pain_scale.png	n/a	n/a	n/a	n/a	success	n/a	n/a	n/a
159.9	1.0	pain	cue	6	high_cue	n/a	n/a	n/a	n/a	n/a	n/a	n/a	task-social/cue/runtype-pain/sch/h014.png	n/a	n/a	n/a	n/a	n/a	n/a	n/a	n/a
162.9	1.19	pain	expectrating	6	high_cue	n/a	80.01	Very Strong	80.01	Very Strong	0.4	0.79	task-social/cue/runtype-pain/sch/h014.png	n/a	n/a	n/a	n/a	n/a	n/a	n/a	n/a
187.02	11.899999999999977	pain	stimulus	6	high_cue	low_stim	n/a	n/a	n/a	n/a	n/a	n/a	n/a	187.02	190.52	195.52	198.92	success	n/a	n/a	n/a
208.4	1.99	pain	outcomerating	6	high_cue	low_stim	44.84	Strong	44.84	Strong	0.4	0.79	task-social/outcomerating/task-pain_scale.png	n/a	n/a	n/a	n/a	success	n/a	n/a	n/a
219.3	1.0	pain	cue	7	low_cue	n/a	n/a	n/a	n/a	n/a	n/a	n/a	task-social/cue/runtype-pain/scl/l014.png	n/a	n/a	n/a	n/a	n/a	n/a	n/a	n/a
221.49	1.75	pain	expectrating	7	low_cue	n/a	49.8	Strong	49.8	Strong	0.15	1.6	task-social/cue/runtype-pain/scl/l014.png	n/a	n/a	n/a	n/a	n/a	n/a	n/a	n/a
228.52	12.369999999999976	pain	stimulus	7	low_cue	med_stim	n/a	n/a	n/a	n/a	n/a	n/a	n/a	228.52	232.28	237.28	240.89	success	n/a	n/a	n/a
241.39	2.47	pain	outcomerating	7	low_cue	med_stim	67.64	Very Strong	67.64	Very Strong	0.15	1.6	task-social/outcomerating/task-pain_scale.png	n/a	n/a	n/a	n/a	success	n/a	n/a	n/a
252.49	1.0	pain	cue	8	high_cue	n/a	n/a	n/a	n/a	n/a	n/a	n/a	task-social/cue/runtype-pain/sch/h031.png	n/a	n/a	n/a	n/a	n/a	n/a	n/a	n/a
255.11	1.35	pain	expectrating	8	high_cue	n/a	71.93	Very Strong	71.93	Very Strong	0.53	0.82	task-social/cue/runtype-pain/sch/h031.png	n/a	n/a	n/a	n/a	n/a	n/a	n/a	n/a
260.13	12.370000000000005	pain	stimulus	8	high_cue	med_stim	n/a	n/a	n/a	n/a	n/a	n/a	n/a	260.13	263.89	268.89	272.5	success	n/a	n/a	n/a
274.0	3.17	pain	outcomerating	8	high_cue	med_stim	70.97	Very Strong	70.97	Very Strong	0.53	0.82	task-social/outcomerating/task-pain_scale.png	n/a	n/a	n/a	n/a	success	n/a	n/a	n/a
283.9	1.0	pain	cue	9	high_cue	n/a	n/a	n/a	n/a	n/a	n/a	n/a	task-social/cue/runtype-pain/sch/h006.png	n/a	n/a	n/a	n/a	n/a	n/a	n/a	n/a
285.8	n/a	pain	expectrating	9	high_cue	n/a	n/a	n/a	n/a	n/a	n/a	n/a	task-social/cue/runtype-pain/sch/h006.png	n/a	n/a	n/a	n/a	n/a	n/a	n/a	n/a
291.42	12.370000000000005	pain	stimulus	9	high_cue	med_stim	n/a	n/a	n/a	n/a	n/a	n/a	n/a	291.42	295.18	300.18	303.79	success	n/a	n/a	n/a
302.8	1.84	pain	outcomerating	9	high_cue	med_stim	41.88	Strong	41.88	Strong	n/a	n/a	task-social/outcomerating/task-pain_scale.png	n/a	n/a	n/a	n/a	success	n/a	n/a	n/a
311.9	1.0	pain	cue	10	low_cue	n/a	n/a	n/a	n/a	n/a	n/a	n/a	task-social/cue/runtype-pain/scl/l028.png	n/a	n/a	n/a	n/a	n/a	n/a	n/a	n/a
314.9	1.62	pain	expectrating	10	low_cue	n/a	27.29	Moderate	27.29	Moderate	0.7	0.92	task-social/cue/runtype-pain/scl/l028.png	n/a	n/a	n/a	n/a	n/a	n/a	n/a	n/a
320.55	12.360000000000014	pain	stimulus	10	low_cue	med_stim	n/a	n/a	n/a	n/a	n/a	n/a	n/a	320.55	324.31	329.31	332.92	success	n/a	n/a	n/a
335.0	1.52	pain	outcomerating	10	low_cue	med_stim	40.53	Strong	40.53	Strong	0.7	0.92	task-social/outcomerating/task-pain_scale.png	n/a	n/a	n/a	n/a	success	n/a	n/a	n/a
341.3	1.0	pain	cue	11	high_cue	n/a	n/a	n/a	n/a	n/a	n/a	n/a	task-social/cue/runtype-pain/sch/h002.png	n/a	n/a	n/a	n/a	n/a	n/a	n/a	n/a
343.2	1.61	pain	expectrating	11	high_cue	n/a	71.72	Very Strong	71.72	Very Strong	0.75	0.86	task-social/cue/runtype-pain/sch/h002.png	n/a	n/a	n/a	n/a	n/a	n/a	n/a	n/a
353.56	11.899999999999977	pain	stimulus	11	high_cue	low_stim	n/a	n/a	n/a	n/a	n/a	n/a	n/a	353.56	357.06	362.06	365.46	success	n/a	n/a	n/a
365.29	1.98	pain	outcomerating	11	high_cue	low_stim	32.28	Strong	32.28	Strong	0.75	0.86	task-social/outcomerating/task-pain_scale.png	n/a	n/a	n/a	n/a	success	n/a	n/a	n/a
371.59	1.0	pain	cue	12	low_cue	n/a	n/a	n/a	n/a	n/a	n/a	n/a	task-social/cue/runtype-pain/scl/l003.png	n/a	n/a	n/a	n/a	n/a	n/a	n/a	n/a
373.49	1.35	pain	expectrating	12	low_cue	n/a	55.85	Strong	55.85	Strong	0.52	0.83	task-social/cue/runtype-pain/scl/l003.png	n/a	n/a	n/a	n/a	n/a	n/a	n/a	n/a
378.34	11.900000000000034	pain	stimulus	12	low_cue	low_stim	n/a	n/a	n/a	n/a	n/a	n/a	n/a	378.34	381.84	386.84	390.24	success	n/a	n/a	n/a
395.01	1.92	pain	outcomerating	12	low_cue	low_stim	50.05	Strong	50.05	Strong	0.52	0.83	task-social/outcomerating/task-pain_scale.png	n/a	n/a	n/a	n/a	success	n/a	n/a	n/a
