onset	duration	run_type	trial_type	trial_index	cue	stimulusintensity	rating_value	rating_glmslabel	rating_value_fillna	rating_glmslabel_fillna	rating_mouseonset	rating_mousedur	stim_file_TODO	pain_onset_ttl1	pain_onset_ttl2	pain_onset_ttl3	pain_onset_ttl4	pain_stimulus_delivery_success	cognitive_correct_response	cognitive_participant_response	cognitive_response_accuracy
9.8	0.99	cognitive	cue	1	high_cue	n/a	n/a	n/a	n/a	n/a	n/a	n/a	task-social/cue/runtype-cognitive/sch/h051.png	n/a	n/a	n/a	n/a	n/a	n/a	n/a	n/a
12.51	2.64	cognitive	expectrating	1	high_cue	n/a	15.38	Moderate	15.38	Moderate	1.45	1.19	task-social/cue/runtype-cognitive/sch/h051.png	n/a	n/a	n/a	n/a	n/a	n/a	n/a	n/a
24.21	5.0	cognitive	stimulus	1	high_cue	med_stim	n/a	n/a	n/a	n/a	n/a	n/a	task-social/stim/runtype-cognitive/14_100.jpg	n/a	n/a	n/a	n/a	n/a	same	same	True
33.01	3.8	cognitive	outcomerating	1	high_cue	med_stim	12.03	Moderate	12.03	Moderate	1.45	1.19	task-social/outcomerating/task-cognitive_scale.png	n/a	n/a	n/a	n/a	n/a	n/a	n/a	n/a
41.51	0.98	cognitive	cue	2	high_cue	n/a	n/a	n/a	n/a	n/a	n/a	n/a	task-social/cue/runtype-cognitive/sch/h023.png	n/a	n/a	n/a	n/a	n/a	n/a	n/a	n/a
43.01	2.37	cognitive	expectrating	2	high_cue	n/a	33.88	Strong	33.88	Strong	0.7	1.67	task-social/cue/runtype-cognitive/sch/h023.png	n/a	n/a	n/a	n/a	n/a	n/a	n/a	n/a
51.11	5.0	cognitive	stimulus	2	high_cue	high_stim	n/a	n/a	n/a	n/a	n/a	n/a	task-social/stim/runtype-cognitive/28_150.jpg	n/a	n/a	n/a	n/a	n/a	same	diff	False
59.51	1.54	cognitive	outcomerating	2	high_cue	high_stim	31.91	Strong	31.91	Strong	0.7	1.67	task-social/outcomerating/task-cognitive_scale.png	n/a	n/a	n/a	n/a	n/a	n/a	n/a	n/a
67.4	0.98	cognitive	cue	3	low_cue	n/a	n/a	n/a	n/a	n/a	n/a	n/a	task-social/cue/runtype-cognitive/scl/l013.png	n/a	n/a	n/a	n/a	n/a	n/a	n/a	n/a
69.5	2.32	cognitive	expectrating	3	low_cue	n/a	13.25	Moderate	13.25	Moderate	1.4	0.92	task-social/cue/runtype-cognitive/scl/l013.png	n/a	n/a	n/a	n/a	n/a	n/a	n/a	n/a
77.7	5.0	cognitive	stimulus	3	low_cue	high_stim	n/a	n/a	n/a	n/a	n/a	n/a	task-social/stim/runtype-cognitive/28_150_R.jpg	n/a	n/a	n/a	n/a	n/a	diff	diff	True
87.5	2.63	cognitive	outcomerating	3	low_cue	high_stim	31.08	Strong	31.08	Strong	1.4	0.92	task-social/outcomerating/task-cognitive_scale.png	n/a	n/a	n/a	n/a	n/a	n/a	n/a	n/a
96.8	0.99	cognitive	cue	4	high_cue	n/a	n/a	n/a	n/a	n/a	n/a	n/a	task-social/cue/runtype-cognitive/sch/h006.png	n/a	n/a	n/a	n/a	n/a	n/a	n/a	n/a
100.7	2.71	cognitive	expectrating	4	high_cue	n/a	43.61	Strong	43.61	Strong	0.42	2.29	task-social/cue/runtype-cognitive/sch/h006.png	n/a	n/a	n/a	n/a	n/a	n/a	n/a	n/a
110.9	5.0	cognitive	stimulus	4	high_cue	low_stim	n/a	n/a	n/a	n/a	n/a	n/a	task-social/stim/runtype-cognitive/44_50_R.jpg	n/a	n/a	n/a	n/a	n/a	diff	diff	True
119.31	3.1	cognitive	outcomerating	4	high_cue	low_stim	22.44	Moderate	22.44	Moderate	0.42	2.29	task-social/outcomerating/task-cognitive_scale.png	n/a	n/a	n/a	n/a	n/a	n/a	n/a	n/a
128.4	0.99	cognitive	cue	5	high_cue	n/a	n/a	n/a	n/a	n/a	n/a	n/a	task-social/cue/runtype-cognitive/sch/h003.png	n/a	n/a	n/a	n/a	n/a	n/a	n/a	n/a
132.3	3.28	cognitive	expectrating	5	high_cue	n/a	39.57	Strong	39.57	Strong	1.25	2.03	task-social/cue/runtype-cognitive/sch/h003.png	n/a	n/a	n/a	n/a	n/a	n/a	n/a	n/a
146.99	5.0	cognitive	stimulus	5	high_cue	med_stim	n/a	n/a	n/a	n/a	n/a	n/a	task-social/stim/runtype-cognitive/27_100.jpg	n/a	n/a	n/a	n/a	n/a	same	same	True
156.81	2.64	cognitive	outcomerating	5	high_cue	med_stim	45.33	Strong	45.33	Strong	1.25	2.03	task-social/outcomerating/task-cognitive_scale.png	n/a	n/a	n/a	n/a	n/a	n/a	n/a	n/a
170.99	1.0	cognitive	cue	6	low_cue	n/a	n/a	n/a	n/a	n/a	n/a	n/a	task-social/cue/runtype-cognitive/scl/l012.png	n/a	n/a	n/a	n/a	n/a	n/a	n/a	n/a
174.91	3.18	cognitive	expectrating	6	low_cue	n/a	17.84	Moderate	17.84	Moderate	0.05	3.13	task-social/cue/runtype-cognitive/scl/l012.png	n/a	n/a	n/a	n/a	n/a	n/a	n/a	n/a
181.82	5.0	cognitive	stimulus	6	low_cue	low_stim	n/a	n/a	n/a	n/a	n/a	n/a	task-social/stim/runtype-cognitive/22_50_R.jpg	n/a	n/a	n/a	n/a	n/a	diff	diff	True
191.71	2.35	cognitive	outcomerating	6	low_cue	low_stim	11.36	Moderate	11.36	Moderate	0.05	3.13	task-social/outcomerating/task-cognitive_scale.png	n/a	n/a	n/a	n/a	n/a	n/a	n/a	n/a
198.3	0.98	cognitive	cue	7	low_cue	n/a	n/a	n/a	n/a	n/a	n/a	n/a	task-social/cue/runtype-cognitive/scl/l055.png	n/a	n/a	n/a	n/a	n/a	n/a	n/a	n/a
199.8	2.3	cognitive	expectrating	7	low_cue	n/a	17.31	Moderate	17.31	Moderate	0.35	1.95	task-social/cue/runtype-cognitive/scl/l055.png	n/a	n/a	n/a	n/a	n/a	n/a	n/a	n/a
210.1	5.0	cognitive	stimulus	7	low_cue	med_stim	n/a	n/a	n/a	n/a	n/a	n/a	task-social/stim/runtype-cognitive/27_100_R.jpg	n/a	n/a	n/a	n/a	n/a	diff	diff	True
228.9	3.42	cognitive	outcomerating	7	low_cue	med_stim	50.19	Strong	50.19	Strong	0.35	1.95	task-social/outcomerating/task-cognitive_scale.png	n/a	n/a	n/a	n/a	n/a	n/a	n/a	n/a
234.9	0.99	cognitive	cue	8	low_cue	n/a	n/a	n/a	n/a	n/a	n/a	n/a	task-social/cue/runtype-cognitive/scl/l005.png	n/a	n/a	n/a	n/a	n/a	n/a	n/a	n/a
237.0	1.56	cognitive	expectrating	8	low_cue	n/a	20.61	Moderate	20.61	Moderate	0.85	0.71	task-social/cue/runtype-cognitive/scl/l005.png	n/a	n/a	n/a	n/a	n/a	n/a	n/a	n/a
246.3	5.0	cognitive	stimulus	8	low_cue	med_stim	n/a	n/a	n/a	n/a	n/a	n/a	task-social/stim/runtype-cognitive/28_100_R.jpg	n/a	n/a	n/a	n/a	n/a	diff	diff	True
256.2	n/a	cognitive	outcomerating	8	low_cue	med_stim	n/a	n/a	64.98	Very Strong	0.85	0.71	task-social/outcomerating/task-cognitive_scale.png	n/a	n/a	n/a	n/a	n/a	n/a	n/a	n/a
262.2	0.99	cognitive	cue	9	high_cue	n/a	n/a	n/a	n/a	n/a	n/a	n/a	task-social/cue/runtype-cognitive/sch/h040.png	n/a	n/a	n/a	n/a	n/a	n/a	n/a	n/a
264.9	2.57	cognitive	expectrating	9	high_cue	n/a	38.26	Strong	38.26	Strong	0.8	1.77	task-social/cue/runtype-cognitive/sch/h040.png	n/a	n/a	n/a	n/a	n/a	n/a	n/a	n/a
274.19	5.0	cognitive	stimulus	9	high_cue	high_stim	n/a	n/a	n/a	n/a	n/a	n/a	task-social/stim/runtype-cognitive/26_150.jpg	n/a	n/a	n/a	n/a	n/a	same	same	True
285.81	1.84	cognitive	outcomerating	9	high_cue	high_stim	29.55	Strong	29.55	Strong	0.8	1.77	task-social/outcomerating/task-cognitive_scale.png	n/a	n/a	n/a	n/a	n/a	n/a	n/a	n/a
291.09	0.99	cognitive	cue	10	low_cue	n/a	n/a	n/a	n/a	n/a	n/a	n/a	task-social/cue/runtype-cognitive/scl/l019.png	n/a	n/a	n/a	n/a	n/a	n/a	n/a	n/a
293.31	1.53	cognitive	expectrating	10	low_cue	n/a	15.32	Moderate	15.32	Moderate	0.2	1.33	task-social/cue/runtype-cognitive/scl/l019.png	n/a	n/a	n/a	n/a	n/a	n/a	n/a	n/a
308.01	5.0	cognitive	stimulus	10	low_cue	low_stim	n/a	n/a	n/a	n/a	n/a	n/a	task-social/stim/runtype-cognitive/27_50_R.jpg	n/a	n/a	n/a	n/a	n/a	diff	diff	True
323.01	2.51	cognitive	outcomerating	10	low_cue	low_stim	37.3	Strong	37.3	Strong	0.2	1.33	task-social/outcomerating/task-cognitive_scale.png	n/a	n/a	n/a	n/a	n/a	n/a	n/a	n/a
336.6	0.98	cognitive	cue	11	high_cue	n/a	n/a	n/a	n/a	n/a	n/a	n/a	task-social/cue/runtype-cognitive/sch/h022.png	n/a	n/a	n/a	n/a	n/a	n/a	n/a	n/a
338.3	1.72	cognitive	expectrating	11	high_cue	n/a	30.88	Strong	30.88	Strong	0.48	1.23	task-social/cue/runtype-cognitive/sch/h022.png	n/a	n/a	n/a	n/a	n/a	n/a	n/a	n/a
354.0	5.0	cognitive	stimulus	11	high_cue	low_stim	n/a	n/a	n/a	n/a	n/a	n/a	task-social/stim/runtype-cognitive/7_50_R.jpg	n/a	n/a	n/a	n/a	n/a	diff	diff	True
367.1	n/a	cognitive	outcomerating	11	high_cue	low_stim	n/a	n/a	49.83	Strong	0.48	1.23	task-social/outcomerating/task-cognitive_scale.png	n/a	n/a	n/a	n/a	n/a	n/a	n/a	n/a
371.6	0.99	cognitive	cue	12	low_cue	n/a	n/a	n/a	n/a	n/a	n/a	n/a	task-social/cue/runtype-cognitive/scl/l035.png	n/a	n/a	n/a	n/a	n/a	n/a	n/a	n/a
373.4	2.64	cognitive	expectrating	12	low_cue	n/a	34.2	Strong	34.2	Strong	1.83	0.8	task-social/cue/runtype-cognitive/scl/l035.png	n/a	n/a	n/a	n/a	n/a	n/a	n/a	n/a
380.3	5.0	cognitive	stimulus	12	low_cue	high_stim	n/a	n/a	n/a	n/a	n/a	n/a	task-social/stim/runtype-cognitive/19_150.jpg	n/a	n/a	n/a	n/a	n/a	same	same	True
394.8	2.5	cognitive	outcomerating	12	low_cue	high_stim	24.6	Moderate	24.6	Moderate	1.83	0.8	task-social/outcomerating/task-cognitive_scale.png	n/a	n/a	n/a	n/a	n/a	n/a	n/a	n/a
