onset	duration	run_type	trial_type	trial_index	cue	stimulusintensity	rating_value	rating_glmslabel	rating_value_fillna	rating_glmslabel_fillna	rating_mouseonset	rating_mousedur	stim_file	pain_onset_ttl1	pain_onset_ttl2	pain_onset_ttl3	pain_onset_ttl4	pain_stimulus_delivery_success	cognitive_correct_response	cognitive_participant_response	cognitive_response_accuracy
11.59	1.0	pain	cue	1	low_cue	n/a	n/a	n/a	n/a	n/a	n/a	n/a	task-social/cue/runtype-pain/scl/l021.png	n/a	n/a	n/a	n/a	n/a	n/a	n/a	n/a
14.81	2.7	pain	expectrating	1	low_cue	n/a	30.69	Strong	30.69	Strong	0.82	1.88	task-social/cue/runtype-pain/scl/l021.png	n/a	n/a	n/a	n/a	n/a	n/a	n/a	n/a
19.54	11.91	pain	stimulus	1	low_cue	low_stim	n/a	n/a	n/a	n/a	n/a	n/a	n/a	19.54	23.04	28.04	31.44	success	n/a	n/a	n/a
36.9	1.52	pain	outcomerating	1	low_cue	low_stim	58.92	Strong	58.92	Strong	0.42	1.1	task-social/outcomerating/task-pain_scale.png	n/a	n/a	n/a	n/a	success	n/a	n/a	n/a
42.39	1.0	pain	cue	2	high_cue	n/a	n/a	n/a	n/a	n/a	n/a	n/a	task-social/cue/runtype-pain/sch/h052.png	n/a	n/a	n/a	n/a	n/a	n/a	n/a	n/a
44.2	1.53	pain	expectrating	2	high_cue	n/a	98.13	Strongest sensation of any kind	98.13	Strongest sensation of any kind	0.3	1.23	task-social/cue/runtype-pain/sch/h052.png	n/a	n/a	n/a	n/a	n/a	n/a	n/a	n/a
55.54	12.360000000000007	pain	stimulus	2	high_cue	med_stim	n/a	n/a	n/a	n/a	n/a	n/a	n/a	55.54	59.3	64.3	67.91	success	n/a	n/a	n/a
67.49	2.21	pain	outcomerating	2	high_cue	med_stim	75.96	Very Strong	75.96	Very Strong	0.75	1.46	task-social/outcomerating/task-pain_scale.png	n/a	n/a	n/a	n/a	success	n/a	n/a	n/a
74.2	1.0	pain	cue	3	high_cue	n/a	n/a	n/a	n/a	n/a	n/a	n/a	task-social/cue/runtype-pain/sch/h048.png	n/a	n/a	n/a	n/a	n/a	n/a	n/a	n/a
77.4	3.17	pain	expectrating	3	high_cue	n/a	62.81	Strong	62.81	Strong	0.73	2.44	task-social/cue/runtype-pain/sch/h048.png	n/a	n/a	n/a	n/a	n/a	n/a	n/a	n/a
83.12	11.899999999999991	pain	stimulus	3	high_cue	low_stim	n/a	n/a	n/a	n/a	n/a	n/a	n/a	83.12	86.62	91.62	95.02	success	n/a	n/a	n/a
96.59	1.9	pain	outcomerating	3	high_cue	low_stim	33.24	Strong	33.24	Strong	0.75	1.15	task-social/outcomerating/task-pain_scale.png	n/a	n/a	n/a	n/a	success	n/a	n/a	n/a
110.59	1.0	pain	cue	4	high_cue	n/a	n/a	n/a	n/a	n/a	n/a	n/a	task-social/cue/runtype-pain/sch/h005.png	n/a	n/a	n/a	n/a	n/a	n/a	n/a	n/a
113.3	1.37	pain	expectrating	4	high_cue	n/a	99.24	Strongest sensation of any kind	99.24	Strongest sensation of any kind	0.42	0.96	task-social/cue/runtype-pain/sch/h005.png	n/a	n/a	n/a	n/a	n/a	n/a	n/a	n/a
118.03	12.819999999999993	pain	stimulus	4	high_cue	high_stim	n/a	n/a	n/a	n/a	n/a	n/a	n/a	118.03	122.04	127.04	130.85	success	n/a	n/a	n/a
133.2	2.5	pain	outcomerating	4	high_cue	high_stim	106.55	Strongest sensation of any kind	106.55	Strongest sensation of any kind	0.58	1.92	task-social/outcomerating/task-pain_scale.png	n/a	n/a	n/a	n/a	success	n/a	n/a	n/a
139.89	1.0	pain	cue	5	low_cue	n/a	n/a	n/a	n/a	n/a	n/a	n/a	task-social/cue/runtype-pain/scl/l053.png	n/a	n/a	n/a	n/a	n/a	n/a	n/a	n/a
143.09	1.39	pain	expectrating	5	low_cue	n/a	24.27	Moderate	24.27	Moderate	0.32	1.08	task-social/cue/runtype-pain/scl/l053.png	n/a	n/a	n/a	n/a	n/a	n/a	n/a	n/a
154.83	12.359999999999985	pain	stimulus	5	low_cue	med_stim	n/a	n/a	n/a	n/a	n/a	n/a	n/a	154.83	158.59	163.59	167.2	success	n/a	n/a	n/a
165.7	3.65	pain	outcomerating	5	low_cue	med_stim	39.81	Strong	39.81	Strong	0.9	2.75	task-social/outcomerating/task-pain_scale.png	n/a	n/a	n/a	n/a	success	n/a	n/a	n/a
181.29	1.0	pain	cue	6	low_cue	n/a	n/a	n/a	n/a	n/a	n/a	n/a	task-social/cue/runtype-pain/scl/l050.png	n/a	n/a	n/a	n/a	n/a	n/a	n/a	n/a
183.7	1.48	pain	expectrating	6	low_cue	n/a	26.15	Moderate	26.15	Moderate	0.05	1.43	task-social/cue/runtype-pain/scl/l050.png	n/a	n/a	n/a	n/a	n/a	n/a	n/a	n/a
194.85	12.819999999999993	pain	stimulus	6	low_cue	high_stim	n/a	n/a	n/a	n/a	n/a	n/a	n/a	194.85	198.86	203.86	207.67	success	n/a	n/a	n/a
210.4	3.59	pain	outcomerating	6	low_cue	high_stim	54.46	Strong	54.46	Strong	0.68	2.9	task-social/outcomerating/task-pain_scale.png	n/a	n/a	n/a	n/a	success	n/a	n/a	n/a
216.1	0.98	pain	cue	7	low_cue	n/a	n/a	n/a	n/a	n/a	n/a	n/a	task-social/cue/runtype-pain/scl/l033.png	n/a	n/a	n/a	n/a	n/a	n/a	n/a	n/a
218.7	1.57	pain	expectrating	7	low_cue	n/a	23.68	Moderate	23.68	Moderate	0.27	1.3	task-social/cue/runtype-pain/scl/l033.png	n/a	n/a	n/a	n/a	n/a	n/a	n/a	n/a
233.81	12.370000000000005	pain	stimulus	7	low_cue	med_stim	n/a	n/a	n/a	n/a	n/a	n/a	n/a	233.81	237.57	242.57	246.18	success	n/a	n/a	n/a
244.49	2.66	pain	outcomerating	7	low_cue	med_stim	29.03	Strong	29.03	Strong	0.95	1.71	task-social/outcomerating/task-pain_scale.png	n/a	n/a	n/a	n/a	success	n/a	n/a	n/a
250.4	1.0	pain	cue	8	low_cue	n/a	n/a	n/a	n/a	n/a	n/a	n/a	task-social/cue/runtype-pain/scl/l025.png	n/a	n/a	n/a	n/a	n/a	n/a	n/a	n/a
253.1	2.14	pain	expectrating	8	low_cue	n/a	30.69	Strong	30.69	Strong	0.07	2.07	task-social/cue/runtype-pain/scl/l025.png	n/a	n/a	n/a	n/a	n/a	n/a	n/a	n/a
263.82	12.829999999999984	pain	stimulus	8	low_cue	high_stim	n/a	n/a	n/a	n/a	n/a	n/a	n/a	263.82	267.83	272.83	276.64	success	n/a	n/a	n/a
282.69	2.24	pain	outcomerating	8	low_cue	high_stim	35.94	Strong	35.94	Strong	0.47	1.78	task-social/outcomerating/task-pain_scale.png	n/a	n/a	n/a	n/a	success	n/a	n/a	n/a
287.69	1.0	pain	cue	9	high_cue	n/a	n/a	n/a	n/a	n/a	n/a	n/a	task-social/cue/runtype-pain/sch/h040.png	n/a	n/a	n/a	n/a	n/a	n/a	n/a	n/a
289.49	1.42	pain	expectrating	9	high_cue	n/a	71.57	Very Strong	71.57	Very Strong	0.57	0.86	task-social/cue/runtype-pain/sch/h040.png	n/a	n/a	n/a	n/a	n/a	n/a	n/a	n/a
295.12	11.899999999999977	pain	stimulus	9	high_cue	low_stim	n/a	n/a	n/a	n/a	n/a	n/a	n/a	295.12	298.62	303.62	307.02	success	n/a	n/a	n/a
308.2	2.2	pain	outcomerating	9	high_cue	low_stim	29.74	Strong	29.74	Strong	0.63	1.57	task-social/outcomerating/task-pain_scale.png	n/a	n/a	n/a	n/a	success	n/a	n/a	n/a
317.99	1.0	pain	cue	10	high_cue	n/a	n/a	n/a	n/a	n/a	n/a	n/a	task-social/cue/runtype-pain/sch/h006.png	n/a	n/a	n/a	n/a	n/a	n/a	n/a	n/a
320.59	3.23	pain	expectrating	10	high_cue	n/a	75.8	Very Strong	75.8	Very Strong	0.45	2.78	task-social/cue/runtype-pain/sch/h006.png	n/a	n/a	n/a	n/a	n/a	n/a	n/a	n/a
326.25	12.829999999999984	pain	stimulus	10	high_cue	high_stim	n/a	n/a	n/a	n/a	n/a	n/a	n/a	326.25	330.26	335.26	339.07	success	n/a	n/a	n/a
337.5	1.41	pain	outcomerating	10	high_cue	high_stim	94.82	Very Strong	94.82	Very Strong	0.45	0.96	task-social/outcomerating/task-pain_scale.png	n/a	n/a	n/a	n/a	success	n/a	n/a	n/a
343.9	1.0	pain	cue	11	high_cue	n/a	n/a	n/a	n/a	n/a	n/a	n/a	task-social/cue/runtype-pain/sch/h028.png	n/a	n/a	n/a	n/a	n/a	n/a	n/a	n/a
345.7	1.47	pain	expectrating	11	high_cue	n/a	79.59	Very Strong	79.59	Very Strong	0.45	1.02	task-social/cue/runtype-pain/sch/h028.png	n/a	n/a	n/a	n/a	n/a	n/a	n/a	n/a
355.81	12.360000000000014	pain	stimulus	11	high_cue	med_stim	n/a	n/a	n/a	n/a	n/a	n/a	n/a	355.81	359.57	364.57	368.18	success	n/a	n/a	n/a
366.69	1.63	pain	outcomerating	11	high_cue	med_stim	51.27	Strong	51.27	Strong	0.58	1.04	task-social/outcomerating/task-pain_scale.png	n/a	n/a	n/a	n/a	success	n/a	n/a	n/a
374.79	1.0	pain	cue	12	low_cue	n/a	n/a	n/a	n/a	n/a	n/a	n/a	task-social/cue/runtype-pain/scl/l052.png	n/a	n/a	n/a	n/a	n/a	n/a	n/a	n/a
376.69	1.66	pain	expectrating	12	low_cue	n/a	28.54	Moderate	28.54	Moderate	0.37	1.29	task-social/cue/runtype-pain/scl/l052.png	n/a	n/a	n/a	n/a	n/a	n/a	n/a	n/a
382.32	11.900000000000034	pain	stimulus	12	low_cue	low_stim	n/a	n/a	n/a	n/a	n/a	n/a	n/a	382.32	385.82	390.82	394.22	success	n/a	n/a	n/a
394.8	2.07	pain	outcomerating	12	low_cue	low_stim	47.12	Strong	47.12	Strong	0.35	1.72	task-social/outcomerating/task-pain_scale.png	n/a	n/a	n/a	n/a	success	n/a	n/a	n/a
