onset	duration	run_type	trial_type	trial_index	cue	stimulusintensity	rating_value	rating_glmslabel	rating_value_fillna	rating_glmslabel_fillna	rating_mouseonset	rating_mousedur	stim_file	pain_onset_ttl1	pain_onset_ttl2	pain_onset_ttl3	pain_onset_ttl4	pain_stimulus_delivery_success	cognitive_correct_response	cognitive_participant_response	cognitive_response_accuracy
5.69	0.99	cognitive	cue	1	low_cue	n/a	n/a	n/a	n/a	n/a	n/a	n/a	task-social/cue/runtype-cognitive/scl/l044.png	n/a	n/a	n/a	n/a	n/a	n/a	n/a	n/a
9.01	2.8	cognitive	expectrating	1	low_cue	n/a	45.0	Strong	45.0	Strong	0.05	2.75	task-social/cue/runtype-cognitive/scl/l044.png	n/a	n/a	n/a	n/a	n/a	n/a	n/a	n/a
19.41	5.0	cognitive	stimulus	1	low_cue	med_stim	n/a	n/a	n/a	n/a	n/a	n/a	task-social/stim/runtype-cognitive/22_100.jpg	n/a	n/a	n/a	n/a	n/a	same	n/a	False
28.1	n/a	cognitive	outcomerating	1	low_cue	med_stim	n/a	n/a	48.08	Strong	0.05	2.75	task-social/outcomerating/task-cognitive_scale.png	n/a	n/a	n/a	n/a	n/a	n/a	n/a	n/a
35.0	0.98	cognitive	cue	2	high_cue	n/a	n/a	n/a	n/a	n/a	n/a	n/a	task-social/cue/runtype-cognitive/sch/h034.png	n/a	n/a	n/a	n/a	n/a	n/a	n/a	n/a
37.7	3.28	cognitive	expectrating	2	high_cue	n/a	50.73	Strong	50.73	Strong	0.98	2.3	task-social/cue/runtype-cognitive/sch/h034.png	n/a	n/a	n/a	n/a	n/a	n/a	n/a	n/a
44.7	5.0	cognitive	stimulus	2	high_cue	low_stim	n/a	n/a	n/a	n/a	n/a	n/a	task-social/stim/runtype-cognitive/24_50.jpg	n/a	n/a	n/a	n/a	n/a	same	diff	False
58.19	3.19	cognitive	outcomerating	2	high_cue	low_stim	45.33	Strong	45.33	Strong	0.98	2.3	task-social/outcomerating/task-cognitive_scale.png	n/a	n/a	n/a	n/a	n/a	n/a	n/a	n/a
62.69	0.99	cognitive	cue	3	low_cue	n/a	n/a	n/a	n/a	n/a	n/a	n/a	task-social/cue/runtype-cognitive/scl/l050.png	n/a	n/a	n/a	n/a	n/a	n/a	n/a	n/a
65.89	3.96	cognitive	expectrating	3	low_cue	n/a	39.81	Strong	39.81	Strong	1.3	2.66	task-social/cue/runtype-cognitive/scl/l050.png	n/a	n/a	n/a	n/a	n/a	n/a	n/a	n/a
78.4	5.0	cognitive	stimulus	3	low_cue	high_stim	n/a	n/a	n/a	n/a	n/a	n/a	task-social/stim/runtype-cognitive/24_150_R.jpg	n/a	n/a	n/a	n/a	n/a	diff	n/a	False
91.6	3.1	cognitive	outcomerating	3	low_cue	high_stim	16.79	Moderate	16.79	Moderate	1.3	2.66	task-social/outcomerating/task-cognitive_scale.png	n/a	n/a	n/a	n/a	n/a	n/a	n/a	n/a
96.09	0.99	cognitive	cue	4	high_cue	n/a	n/a	n/a	n/a	n/a	n/a	n/a	task-social/cue/runtype-cognitive/sch/h003.png	n/a	n/a	n/a	n/a	n/a	n/a	n/a	n/a
98.41	n/a	cognitive	expectrating	4	high_cue	n/a	n/a	n/a	n/a	n/a	n/a	n/a	task-social/cue/runtype-cognitive/sch/h003.png	n/a	n/a	n/a	n/a	n/a	n/a	n/a	n/a
106.59	5.0	cognitive	stimulus	4	high_cue	med_stim	n/a	n/a	n/a	n/a	n/a	n/a	task-social/stim/runtype-cognitive/9_100_R.jpg	n/a	n/a	n/a	n/a	n/a	diff	diff	True
114.8	n/a	cognitive	outcomerating	4	high_cue	med_stim	n/a	n/a	34.71	Strong	n/a	n/a	task-social/outcomerating/task-cognitive_scale.png	n/a	n/a	n/a	n/a	n/a	n/a	n/a	n/a
131.6	0.98	cognitive	cue	5	low_cue	n/a	n/a	n/a	n/a	n/a	n/a	n/a	task-social/cue/runtype-cognitive/scl/l055.png	n/a	n/a	n/a	n/a	n/a	n/a	n/a	n/a
134.3	3.45	cognitive	expectrating	5	low_cue	n/a	31.34	Strong	31.34	Strong	0.8	2.65	task-social/cue/runtype-cognitive/scl/l055.png	n/a	n/a	n/a	n/a	n/a	n/a	n/a	n/a
143.0	5.0	cognitive	stimulus	5	low_cue	med_stim	n/a	n/a	n/a	n/a	n/a	n/a	task-social/stim/runtype-cognitive/23_100_R.jpg	n/a	n/a	n/a	n/a	n/a	diff	same	False
156.21	3.47	cognitive	outcomerating	5	low_cue	med_stim	31.08	Strong	31.08	Strong	0.8	2.65	task-social/outcomerating/task-cognitive_scale.png	n/a	n/a	n/a	n/a	n/a	n/a	n/a	n/a
163.4	0.99	cognitive	cue	6	low_cue	n/a	n/a	n/a	n/a	n/a	n/a	n/a	task-social/cue/runtype-cognitive/scl/l013.png	n/a	n/a	n/a	n/a	n/a	n/a	n/a	n/a
165.7	3.22	cognitive	expectrating	6	low_cue	n/a	29.55	Strong	29.55	Strong	0.83	2.39	task-social/cue/runtype-cognitive/scl/l013.png	n/a	n/a	n/a	n/a	n/a	n/a	n/a	n/a
180.8	5.0	cognitive	stimulus	6	low_cue	high_stim	n/a	n/a	n/a	n/a	n/a	n/a	task-social/stim/runtype-cognitive/43_150_R.jpg	n/a	n/a	n/a	n/a	n/a	diff	same	False
188.6	3.72	cognitive	outcomerating	6	low_cue	high_stim	21.67	Moderate	21.67	Moderate	0.83	2.39	task-social/outcomerating/task-cognitive_scale.png	n/a	n/a	n/a	n/a	n/a	n/a	n/a	n/a
193.39	0.99	cognitive	cue	7	high_cue	n/a	n/a	n/a	n/a	n/a	n/a	n/a	task-social/cue/runtype-cognitive/sch/h022.png	n/a	n/a	n/a	n/a	n/a	n/a	n/a	n/a
195.01	3.24	cognitive	expectrating	7	high_cue	n/a	34.88	Strong	34.88	Strong	1.27	1.97	task-social/cue/runtype-cognitive/sch/h022.png	n/a	n/a	n/a	n/a	n/a	n/a	n/a	n/a
203.19	5.0	cognitive	stimulus	7	high_cue	high_stim	n/a	n/a	n/a	n/a	n/a	n/a	task-social/stim/runtype-cognitive/10_150.jpg	n/a	n/a	n/a	n/a	n/a	same	same	True
227.9	3.3	cognitive	outcomerating	7	high_cue	high_stim	25.23	Moderate	25.23	Moderate	1.27	1.97	task-social/outcomerating/task-cognitive_scale.png	n/a	n/a	n/a	n/a	n/a	n/a	n/a	n/a
234.39	1.0	cognitive	cue	8	low_cue	n/a	n/a	n/a	n/a	n/a	n/a	n/a	task-social/cue/runtype-cognitive/scl/l030.png	n/a	n/a	n/a	n/a	n/a	n/a	n/a	n/a
236.0	n/a	cognitive	expectrating	8	low_cue	n/a	n/a	n/a	31.52	Strong	1.08	3.85	task-social/cue/runtype-cognitive/scl/l030.png	n/a	n/a	n/a	n/a	n/a	n/a	n/a	n/a
243.91	5.0	cognitive	stimulus	8	low_cue	low_stim	n/a	n/a	n/a	n/a	n/a	n/a	task-social/stim/runtype-cognitive/17_50.jpg	n/a	n/a	n/a	n/a	n/a	same	same	True
252.91	n/a	cognitive	outcomerating	8	low_cue	low_stim	n/a	n/a	29.97	Strong	1.08	3.85	task-social/outcomerating/task-cognitive_scale.png	n/a	n/a	n/a	n/a	n/a	n/a	n/a	n/a
259.1	0.99	cognitive	cue	9	low_cue	n/a	n/a	n/a	n/a	n/a	n/a	n/a	task-social/cue/runtype-cognitive/scl/l046.png	n/a	n/a	n/a	n/a	n/a	n/a	n/a	n/a
261.0	3.83	cognitive	expectrating	9	low_cue	n/a	35.03	Strong	35.03	Strong	0.98	2.85	task-social/cue/runtype-cognitive/scl/l046.png	n/a	n/a	n/a	n/a	n/a	n/a	n/a	n/a
276.1	5.0	cognitive	stimulus	9	low_cue	low_stim	n/a	n/a	n/a	n/a	n/a	n/a	task-social/stim/runtype-cognitive/34_50.jpg	n/a	n/a	n/a	n/a	n/a	same	same	True
291.01	3.82	cognitive	outcomerating	9	low_cue	low_stim	18.94	Moderate	18.94	Moderate	0.98	2.85	task-social/outcomerating/task-cognitive_scale.png	n/a	n/a	n/a	n/a	n/a	n/a	n/a	n/a
307.8	0.99	cognitive	cue	10	high_cue	n/a	n/a	n/a	n/a	n/a	n/a	n/a	task-social/cue/runtype-cognitive/sch/h040.png	n/a	n/a	n/a	n/a	n/a	n/a	n/a	n/a
311.0	3.53	cognitive	expectrating	10	high_cue	n/a	36.32	Strong	36.32	Strong	0.83	2.7	task-social/cue/runtype-cognitive/sch/h040.png	n/a	n/a	n/a	n/a	n/a	n/a	n/a	n/a
318.9	5.0	cognitive	stimulus	10	high_cue	low_stim	n/a	n/a	n/a	n/a	n/a	n/a	task-social/stim/runtype-cognitive/23_50.jpg	n/a	n/a	n/a	n/a	n/a	same	same	True
327.6	3.54	cognitive	outcomerating	10	high_cue	low_stim	24.6	Moderate	24.6	Moderate	0.83	2.7	task-social/outcomerating/task-cognitive_scale.png	n/a	n/a	n/a	n/a	n/a	n/a	n/a	n/a
340.69	0.99	cognitive	cue	11	high_cue	n/a	n/a	n/a	n/a	n/a	n/a	n/a	task-social/cue/runtype-cognitive/sch/h046.png	n/a	n/a	n/a	n/a	n/a	n/a	n/a	n/a
342.59	3.25	cognitive	expectrating	11	high_cue	n/a	47.11	Strong	47.11	Strong	0.95	2.3	task-social/cue/runtype-cognitive/sch/h046.png	n/a	n/a	n/a	n/a	n/a	n/a	n/a	n/a
355.3	5.0	cognitive	stimulus	11	high_cue	med_stim	n/a	n/a	n/a	n/a	n/a	n/a	task-social/stim/runtype-cognitive/17_100_R.jpg	n/a	n/a	n/a	n/a	n/a	diff	same	False
363.8	2.73	cognitive	outcomerating	11	high_cue	med_stim	19.89	Moderate	19.89	Moderate	0.95	2.3	task-social/outcomerating/task-cognitive_scale.png	n/a	n/a	n/a	n/a	n/a	n/a	n/a	n/a
371.5	0.98	cognitive	cue	12	high_cue	n/a	n/a	n/a	n/a	n/a	n/a	n/a	task-social/cue/runtype-cognitive/sch/h008.png	n/a	n/a	n/a	n/a	n/a	n/a	n/a	n/a
374.8	3.39	cognitive	expectrating	12	high_cue	n/a	49.87	Strong	49.87	Strong	1.05	2.34	task-social/cue/runtype-cognitive/sch/h008.png	n/a	n/a	n/a	n/a	n/a	n/a	n/a	n/a
387.29	5.0	cognitive	stimulus	12	high_cue	high_stim	n/a	n/a	n/a	n/a	n/a	n/a	task-social/stim/runtype-cognitive/34_150_R.jpg	n/a	n/a	n/a	n/a	n/a	diff	diff	True
395.09	3.58	cognitive	outcomerating	12	high_cue	high_stim	33.43	Strong	33.43	Strong	1.05	2.34	task-social/outcomerating/task-cognitive_scale.png	n/a	n/a	n/a	n/a	n/a	n/a	n/a	n/a
