onset	duration	run_type	trial_type	trial_index	cue	stimulusintensity	rating_value	rating_glmslabel	rating_value_fillna	rating_glmslabel_fillna	rating_mouseonset	rating_mousedur	stim_file	pain_onset_ttl1	pain_onset_ttl2	pain_onset_ttl3	pain_onset_ttl4	pain_stimulus_delivery_success	cognitive_correct_response	cognitive_participant_response	cognitive_response_accuracy
3.38	0.99	cognitive	cue	1	low_cue	n/a	n/a	n/a	n/a	n/a	n/a	n/a	task-social/cue/runtype-cognitive/scl/l019.png	n/a	n/a	n/a	n/a	n/a	n/a	n/a	n/a
6.09	2.18	cognitive	expectrating	1	low_cue	n/a	6.11	Weak	6.11	Weak	0.68	1.5	task-social/cue/runtype-cognitive/scl/l019.png	n/a	n/a	n/a	n/a	n/a	n/a	n/a	n/a
18.5	5.0	cognitive	stimulus	1	low_cue	high_stim	n/a	n/a	n/a	n/a	n/a	n/a	task-social/stim/runtype-cognitive/47_150.jpg	n/a	n/a	n/a	n/a	n/a	same	same	True
32.59	2.82	cognitive	outcomerating	1	low_cue	high_stim	12.87	Moderate	12.87	Moderate	0.68	1.5	task-social/outcomerating/task-cognitive_scale.png	n/a	n/a	n/a	n/a	n/a	n/a	n/a	n/a
41.59	0.98	cognitive	cue	2	high_cue	n/a	n/a	n/a	n/a	n/a	n/a	n/a	task-social/cue/runtype-cognitive/sch/h046.png	n/a	n/a	n/a	n/a	n/a	n/a	n/a	n/a
44.69	2.6	cognitive	expectrating	2	high_cue	n/a	80.99	Very-Strong	80.99	Very-Strong	0.77	1.83	task-social/cue/runtype-cognitive/sch/h046.png	n/a	n/a	n/a	n/a	n/a	n/a	n/a	n/a
55.18	5.0	cognitive	stimulus	2	high_cue	med_stim	n/a	n/a	n/a	n/a	n/a	n/a	task-social/stim/runtype-cognitive/44_100.jpg	n/a	n/a	n/a	n/a	n/a	same	same	True
69.28	2.88	cognitive	outcomerating	2	high_cue	med_stim	5.53	Weak	5.53	Weak	0.77	1.83	task-social/outcomerating/task-cognitive_scale.png	n/a	n/a	n/a	n/a	n/a	n/a	n/a	n/a
78.39	0.98	cognitive	cue	3	low_cue	n/a	n/a	n/a	n/a	n/a	n/a	n/a	task-social/cue/runtype-cognitive/scl/l022.png	n/a	n/a	n/a	n/a	n/a	n/a	n/a	n/a
81.49	1.95	cognitive	expectrating	3	low_cue	n/a	9.99	Weak	9.99	Weak	0.77	1.19	task-social/cue/runtype-cognitive/scl/l022.png	n/a	n/a	n/a	n/a	n/a	n/a	n/a	n/a
87.99	5.0	cognitive	stimulus	3	low_cue	low_stim	n/a	n/a	n/a	n/a	n/a	n/a	task-social/stim/runtype-cognitive/10_50.jpg	n/a	n/a	n/a	n/a	n/a	same	same	True
97.78	2.45	cognitive	outcomerating	3	low_cue	low_stim	6.75	Weak	6.75	Weak	0.77	1.19	task-social/outcomerating/task-cognitive_scale.png	n/a	n/a	n/a	n/a	n/a	n/a	n/a	n/a
105.88	0.99	cognitive	cue	4	low_cue	n/a	n/a	n/a	n/a	n/a	n/a	n/a	task-social/cue/runtype-cognitive/scl/l030.png	n/a	n/a	n/a	n/a	n/a	n/a	n/a	n/a
107.38	1.77	cognitive	expectrating	4	low_cue	n/a	0.0	n/a	0.0	n/a	0.72	1.05	task-social/cue/runtype-cognitive/scl/l030.png	n/a	n/a	n/a	n/a	n/a	n/a	n/a	n/a
114.18	5.0	cognitive	stimulus	4	low_cue	low_stim	n/a	n/a	n/a	n/a	n/a	n/a	task-social/stim/runtype-cognitive/5_50_R.jpg	n/a	n/a	n/a	n/a	n/a	diff	diff	True
127.99	3.24	cognitive	outcomerating	4	low_cue	low_stim	6.13	Weak	6.13	Weak	0.72	1.05	task-social/outcomerating/task-cognitive_scale.png	n/a	n/a	n/a	n/a	n/a	n/a	n/a	n/a
137.08	0.99	cognitive	cue	5	high_cue	n/a	n/a	n/a	n/a	n/a	n/a	n/a	task-social/cue/runtype-cognitive/sch/h055.png	n/a	n/a	n/a	n/a	n/a	n/a	n/a	n/a
140.19	1.97	cognitive	expectrating	5	high_cue	n/a	97.56	Very-Strong	97.56	Very-Strong	0.55	1.42	task-social/cue/runtype-cognitive/sch/h055.png	n/a	n/a	n/a	n/a	n/a	n/a	n/a	n/a
149.88	5.0	cognitive	stimulus	5	high_cue	low_stim	n/a	n/a	n/a	n/a	n/a	n/a	task-social/stim/runtype-cognitive/11_50_R.jpg	n/a	n/a	n/a	n/a	n/a	diff	diff	True
159.88	3.17	cognitive	outcomerating	5	high_cue	low_stim	37.29	Strong	37.29	Strong	0.55	1.42	task-social/outcomerating/task-cognitive_scale.png	n/a	n/a	n/a	n/a	n/a	n/a	n/a	n/a
168.99	0.98	cognitive	cue	6	high_cue	n/a	n/a	n/a	n/a	n/a	n/a	n/a	task-social/cue/runtype-cognitive/sch/h033.png	n/a	n/a	n/a	n/a	n/a	n/a	n/a	n/a
170.99	1.87	cognitive	expectrating	6	high_cue	n/a	109.92	Strongest-sensation-of-any-kind	109.92	Strongest-sensation-of-any-kind	0.47	1.4	task-social/cue/runtype-cognitive/sch/h033.png	n/a	n/a	n/a	n/a	n/a	n/a	n/a	n/a
177.49	5.0	cognitive	stimulus	6	high_cue	med_stim	n/a	n/a	n/a	n/a	n/a	n/a	task-social/stim/runtype-cognitive/10_100_R.jpg	n/a	n/a	n/a	n/a	n/a	diff	diff	True
187.28	3.02	cognitive	outcomerating	6	high_cue	med_stim	44.84	Strong	44.84	Strong	0.47	1.4	task-social/outcomerating/task-cognitive_scale.png	n/a	n/a	n/a	n/a	n/a	n/a	n/a	n/a
194.38	0.99	cognitive	cue	7	high_cue	n/a	n/a	n/a	n/a	n/a	n/a	n/a	task-social/cue/runtype-cognitive/sch/h018.png	n/a	n/a	n/a	n/a	n/a	n/a	n/a	n/a
196.38	1.71	cognitive	expectrating	7	high_cue	n/a	114.66	Strongest-sensation-of-any-kind	114.66	Strongest-sensation-of-any-kind	0.25	1.46	task-social/cue/runtype-cognitive/sch/h018.png	n/a	n/a	n/a	n/a	n/a	n/a	n/a	n/a
209.39	5.0	cognitive	stimulus	7	high_cue	low_stim	n/a	n/a	n/a	n/a	n/a	n/a	task-social/stim/runtype-cognitive/43_50_R.jpg	n/a	n/a	n/a	n/a	n/a	diff	diff	True
222.29	2.82	cognitive	outcomerating	7	high_cue	low_stim	58.99	Strong	58.99	Strong	0.25	1.46	task-social/outcomerating/task-cognitive_scale.png	n/a	n/a	n/a	n/a	n/a	n/a	n/a	n/a
234.78	0.99	cognitive	cue	8	low_cue	n/a	n/a	n/a	n/a	n/a	n/a	n/a	task-social/cue/runtype-cognitive/scl/l013.png	n/a	n/a	n/a	n/a	n/a	n/a	n/a	n/a
237.28	1.53	cognitive	expectrating	8	low_cue	n/a	14.93	Moderate	14.93	Moderate	0.53	1.0	task-social/cue/runtype-cognitive/scl/l013.png	n/a	n/a	n/a	n/a	n/a	n/a	n/a	n/a
251.29	5.0	cognitive	stimulus	8	low_cue	high_stim	n/a	n/a	n/a	n/a	n/a	n/a	task-social/stim/runtype-cognitive/35_150_R.jpg	n/a	n/a	n/a	n/a	n/a	diff	diff	True
262.69	1.5	cognitive	outcomerating	8	low_cue	high_stim	19.56	Moderate	19.56	Moderate	0.53	1.0	task-social/outcomerating/task-cognitive_scale.png	n/a	n/a	n/a	n/a	n/a	n/a	n/a	n/a
271.78	0.99	cognitive	cue	9	low_cue	n/a	n/a	n/a	n/a	n/a	n/a	n/a	task-social/cue/runtype-cognitive/scl/l029.png	n/a	n/a	n/a	n/a	n/a	n/a	n/a	n/a
274.89	1.73	cognitive	expectrating	9	low_cue	n/a	23.35	Moderate	23.35	Moderate	0.63	1.1	task-social/cue/runtype-cognitive/scl/l029.png	n/a	n/a	n/a	n/a	n/a	n/a	n/a	n/a
286.58	5.0	cognitive	stimulus	9	low_cue	med_stim	n/a	n/a	n/a	n/a	n/a	n/a	task-social/stim/runtype-cognitive/18_100.jpg	n/a	n/a	n/a	n/a	n/a	same	same	True
294.38	n/a	cognitive	outcomerating	9	low_cue	med_stim	n/a	n/a	38.48	Strong	0.63	1.1	task-social/outcomerating/task-cognitive_scale.png	n/a	n/a	n/a	n/a	n/a	n/a	n/a	n/a
299.89	0.98	cognitive	cue	10	low_cue	n/a	n/a	n/a	n/a	n/a	n/a	n/a	task-social/cue/runtype-cognitive/scl/l044.png	n/a	n/a	n/a	n/a	n/a	n/a	n/a	n/a
301.79	1.14	cognitive	expectrating	10	low_cue	n/a	28.43	Moderate	28.43	Moderate	0.03	1.1	task-social/cue/runtype-cognitive/scl/l044.png	n/a	n/a	n/a	n/a	n/a	n/a	n/a	n/a
315.49	5.0	cognitive	stimulus	10	low_cue	med_stim	n/a	n/a	n/a	n/a	n/a	n/a	task-social/stim/runtype-cognitive/29_100_R.jpg	n/a	n/a	n/a	n/a	n/a	diff	diff	True
326.08	1.87	cognitive	outcomerating	10	low_cue	med_stim	88.77	Very-Strong	88.77	Very-Strong	0.03	1.1	task-social/outcomerating/task-cognitive_scale.png	n/a	n/a	n/a	n/a	n/a	n/a	n/a	n/a
337.88	0.99	cognitive	cue	11	high_cue	n/a	n/a	n/a	n/a	n/a	n/a	n/a	task-social/cue/runtype-cognitive/sch/h039.png	n/a	n/a	n/a	n/a	n/a	n/a	n/a	n/a
340.59	2.12	cognitive	expectrating	11	high_cue	n/a	85.62	Very-Strong	85.62	Very-Strong	0.5	1.62	task-social/cue/runtype-cognitive/sch/h039.png	n/a	n/a	n/a	n/a	n/a	n/a	n/a	n/a
347.99	5.0	cognitive	stimulus	11	high_cue	high_stim	n/a	n/a	n/a	n/a	n/a	n/a	task-social/stim/runtype-cognitive/18_150_R.jpg	n/a	n/a	n/a	n/a	n/a	diff	diff	True
355.49	3.15	cognitive	outcomerating	11	high_cue	high_stim	11.4	Moderate	11.4	Moderate	0.5	1.62	task-social/outcomerating/task-cognitive_scale.png	n/a	n/a	n/a	n/a	n/a	n/a	n/a	n/a
362.58	0.99	cognitive	cue	12	high_cue	n/a	n/a	n/a	n/a	n/a	n/a	n/a	task-social/cue/runtype-cognitive/sch/h042.png	n/a	n/a	n/a	n/a	n/a	n/a	n/a	n/a
364.79	1.53	cognitive	expectrating	12	high_cue	n/a	19.45	Moderate	19.45	Moderate	0.45	1.08	task-social/cue/runtype-cognitive/sch/h042.png	n/a	n/a	n/a	n/a	n/a	n/a	n/a	n/a
378.48	5.0	cognitive	stimulus	12	high_cue	high_stim	n/a	n/a	n/a	n/a	n/a	n/a	task-social/stim/runtype-cognitive/29_150.jpg	n/a	n/a	n/a	n/a	n/a	same	same	True
394.59	2.87	cognitive	outcomerating	12	high_cue	high_stim	15.09	Moderate	15.09	Moderate	0.45	1.08	task-social/outcomerating/task-cognitive_scale.png	n/a	n/a	n/a	n/a	n/a	n/a	n/a	n/a
