onset	duration	run_type	trial_type	trial_index	cue	stimulusintensity	rating_value	rating_glmslabel	rating_value_fillna	rating_glmslabel_fillna	rating_mouseonset	rating_mousedur	stim_file	pain_onset_ttl1	pain_onset_ttl2	pain_onset_ttl3	pain_onset_ttl4	pain_stimulus_delivery_success	cognitive_correct_response	cognitive_participant_response	cognitive_response_accuracy
14.2	1.23	pain	cue	1	low_cue	n/a	n/a	n/a	n/a	n/a	n/a	n/a	task-social/cue/runtype-pain/scl/l011.png	n/a	n/a	n/a	n/a	n/a	n/a	n/a	n/a
16.05	2.85	pain	expectrating	1	low_cue	n/a	57.26	Strong	57.26	Strong	0.87	1.99	task-social/cue/runtype-pain/scl/l011.png	n/a	n/a	n/a	n/a	n/a	n/a	n/a	n/a
24.79	11.899999999999999	pain	stimulus	1	low_cue	low_stim	n/a	n/a	n/a	n/a	n/a	n/a	n/a	24.79	28.29	33.29	36.69	success	n/a	n/a	n/a
37.71	2.43	pain	outcomerating	1	low_cue	low_stim	66.46	Very-Strong	66.46	Very-Strong	0.87	1.99	task-social/outcomerating/task-pain_scale.png	n/a	n/a	n/a	n/a	success	n/a	n/a	n/a
43.8	1.0	pain	cue	2	low_cue	n/a	n/a	n/a	n/a	n/a	n/a	n/a	task-social/cue/runtype-pain/scl/l052.png	n/a	n/a	n/a	n/a	n/a	n/a	n/a	n/a
46.8	3.92	pain	expectrating	2	low_cue	n/a	23.59	Moderate	23.59	Moderate	1.13	2.79	task-social/cue/runtype-pain/scl/l052.png	n/a	n/a	n/a	n/a	n/a	n/a	n/a	n/a
55.53	12.370000000000005	pain	stimulus	2	low_cue	med_stim	n/a	n/a	n/a	n/a	n/a	n/a	n/a	55.53	59.29	64.29	67.9	success	n/a	n/a	n/a
69.31	2.15	pain	outcomerating	2	low_cue	med_stim	96.7	Very-Strong	96.7	Very-Strong	1.13	2.79	task-social/outcomerating/task-pain_scale.png	n/a	n/a	n/a	n/a	success	n/a	n/a	n/a
77.79	1.0	pain	cue	3	high_cue	n/a	n/a	n/a	n/a	n/a	n/a	n/a	task-social/cue/runtype-pain/sch/h049.png	n/a	n/a	n/a	n/a	n/a	n/a	n/a	n/a
80.81	2.09	pain	expectrating	3	high_cue	n/a	63.22	Strong	63.22	Strong	0.43	1.65	task-social/cue/runtype-pain/sch/h049.png	n/a	n/a	n/a	n/a	n/a	n/a	n/a	n/a
85.63	12.370000000000005	pain	stimulus	3	high_cue	med_stim	n/a	n/a	n/a	n/a	n/a	n/a	n/a	85.63	89.39	94.39	98.0	success	n/a	n/a	n/a
97.4	2.52	pain	outcomerating	3	high_cue	med_stim	95.0	Very-Strong	95.0	Very-Strong	0.43	1.65	task-social/outcomerating/task-pain_scale.png	n/a	n/a	n/a	n/a	success	n/a	n/a	n/a
110.5	1.0	pain	cue	4	low_cue	n/a	n/a	n/a	n/a	n/a	n/a	n/a	task-social/cue/runtype-pain/scl/l030.png	n/a	n/a	n/a	n/a	n/a	n/a	n/a	n/a
112.4	2.52	pain	expectrating	4	low_cue	n/a	60.0	Strong	60.0	Strong	0.1	2.42	task-social/cue/runtype-pain/scl/l030.png	n/a	n/a	n/a	n/a	n/a	n/a	n/a	n/a
123.93	12.819999999999993	pain	stimulus	4	low_cue	high_stim	n/a	n/a	n/a	n/a	n/a	n/a	n/a	123.93	127.94	132.94	136.75	success	n/a	n/a	n/a
136.11	2.37	pain	outcomerating	4	low_cue	high_stim	117.09	Strongest-sensation-of-any-kind	117.09	Strongest-sensation-of-any-kind	0.1	2.42	task-social/outcomerating/task-pain_scale.png	n/a	n/a	n/a	n/a	success	n/a	n/a	n/a
150.7	1.0	pain	cue	5	high_cue	n/a	n/a	n/a	n/a	n/a	n/a	n/a	task-social/cue/runtype-pain/sch/h030.png	n/a	n/a	n/a	n/a	n/a	n/a	n/a	n/a
152.4	1.97	pain	expectrating	5	high_cue	n/a	65.39	Very-Strong	65.39	Very-Strong	0.62	1.35	task-social/cue/runtype-pain/sch/h030.png	n/a	n/a	n/a	n/a	n/a	n/a	n/a	n/a
158.94	12.360000000000014	pain	stimulus	5	high_cue	med_stim	n/a	n/a	n/a	n/a	n/a	n/a	n/a	158.94	162.7	167.7	171.31	success	n/a	n/a	n/a
173.81	2.66	pain	outcomerating	5	high_cue	med_stim	73.32	Very-Strong	73.32	Very-Strong	0.62	1.35	task-social/outcomerating/task-pain_scale.png	n/a	n/a	n/a	n/a	success	n/a	n/a	n/a
178.7	1.0	pain	cue	6	low_cue	n/a	n/a	n/a	n/a	n/a	n/a	n/a	task-social/cue/runtype-pain/scl/l038.png	n/a	n/a	n/a	n/a	n/a	n/a	n/a	n/a
181.8	2.07	pain	expectrating	6	low_cue	n/a	32.31	Strong	32.31	Strong	0.63	1.44	task-social/cue/runtype-pain/scl/l038.png	n/a	n/a	n/a	n/a	n/a	n/a	n/a	n/a
188.03	12.819999999999993	pain	stimulus	6	low_cue	high_stim	n/a	n/a	n/a	n/a	n/a	n/a	n/a	188.03	192.04	197.04	200.85	success	n/a	n/a	n/a
200.1	1.67	pain	outcomerating	6	low_cue	high_stim	76.24	Very-Strong	76.24	Very-Strong	0.63	1.44	task-social/outcomerating/task-pain_scale.png	n/a	n/a	n/a	n/a	success	n/a	n/a	n/a
205.41	0.98	pain	cue	7	low_cue	n/a	n/a	n/a	n/a	n/a	n/a	n/a	task-social/cue/runtype-pain/scl/l042.png	n/a	n/a	n/a	n/a	n/a	n/a	n/a	n/a
208.41	2.92	pain	expectrating	7	low_cue	n/a	38.8	Strong	38.8	Strong	0.52	2.4	task-social/cue/runtype-pain/scl/l042.png	n/a	n/a	n/a	n/a	n/a	n/a	n/a	n/a
217.74	11.909999999999997	pain	stimulus	7	low_cue	low_stim	n/a	n/a	n/a	n/a	n/a	n/a	n/a	217.74	221.24	226.24	229.64	success	n/a	n/a	n/a
232.6	2.17	pain	outcomerating	7	low_cue	low_stim	22.14	Moderate	22.14	Moderate	0.52	2.4	task-social/outcomerating/task-pain_scale.png	n/a	n/a	n/a	n/a	success	n/a	n/a	n/a
237.5	1.0	pain	cue	8	high_cue	n/a	n/a	n/a	n/a	n/a	n/a	n/a	task-social/cue/runtype-pain/sch/h017.png	n/a	n/a	n/a	n/a	n/a	n/a	n/a	n/a
239.2	2.29	pain	expectrating	8	high_cue	n/a	88.85	Very-Strong	88.85	Very-Strong	0.75	1.54	task-social/cue/runtype-pain/sch/h017.png	n/a	n/a	n/a	n/a	n/a	n/a	n/a	n/a
244.05	12.819999999999993	pain	stimulus	8	high_cue	high_stim	n/a	n/a	n/a	n/a	n/a	n/a	n/a	244.05	248.06	253.06	256.87	success	n/a	n/a	n/a
257.91	2.2	pain	outcomerating	8	high_cue	high_stim	62.81	Strong	62.81	Strong	0.75	1.54	task-social/outcomerating/task-pain_scale.png	n/a	n/a	n/a	n/a	success	n/a	n/a	n/a
265.79	1.0	pain	cue	9	high_cue	n/a	n/a	n/a	n/a	n/a	n/a	n/a	task-social/cue/runtype-pain/sch/h023.png	n/a	n/a	n/a	n/a	n/a	n/a	n/a	n/a
268.8	2.26	pain	expectrating	9	high_cue	n/a	66.11	Very-Strong	66.11	Very-Strong	0.57	1.69	task-social/cue/runtype-pain/sch/h023.png	n/a	n/a	n/a	n/a	n/a	n/a	n/a	n/a
275.02	12.819999999999993	pain	stimulus	9	high_cue	high_stim	n/a	n/a	n/a	n/a	n/a	n/a	n/a	275.02	279.03	284.03	287.84	success	n/a	n/a	n/a
288.0	2.77	pain	outcomerating	9	high_cue	high_stim	69.61	Very-Strong	69.61	Very-Strong	0.57	1.69	task-social/outcomerating/task-pain_scale.png	n/a	n/a	n/a	n/a	success	n/a	n/a	n/a
296.69	1.0	pain	cue	10	high_cue	n/a	n/a	n/a	n/a	n/a	n/a	n/a	task-social/cue/runtype-pain/sch/h035.png	n/a	n/a	n/a	n/a	n/a	n/a	n/a	n/a
299.51	2.32	pain	expectrating	10	high_cue	n/a	63.74	Strong	63.74	Strong	0.67	1.65	task-social/cue/runtype-pain/sch/h035.png	n/a	n/a	n/a	n/a	n/a	n/a	n/a	n/a
314.13	11.899999999999977	pain	stimulus	10	high_cue	low_stim	n/a	n/a	n/a	n/a	n/a	n/a	n/a	314.13	317.63	322.63	326.03	success	n/a	n/a	n/a
327.0	3.42	pain	outcomerating	10	high_cue	low_stim	32.96	Strong	32.96	Strong	0.67	1.65	task-social/outcomerating/task-pain_scale.png	n/a	n/a	n/a	n/a	success	n/a	n/a	n/a
332.7	1.0	pain	cue	11	high_cue	n/a	n/a	n/a	n/a	n/a	n/a	n/a	task-social/cue/runtype-pain/sch/h039.png	n/a	n/a	n/a	n/a	n/a	n/a	n/a	n/a
335.6	1.95	pain	expectrating	11	high_cue	n/a	68.37	Very-Strong	68.37	Very-Strong	0.67	1.28	task-social/cue/runtype-pain/sch/h039.png	n/a	n/a	n/a	n/a	n/a	n/a	n/a	n/a
344.54	11.909999999999968	pain	stimulus	11	high_cue	low_stim	n/a	n/a	n/a	n/a	n/a	n/a	n/a	344.54	348.04	353.04	356.44	success	n/a	n/a	n/a
358.5	2.52	pain	outcomerating	11	high_cue	low_stim	34.67	Strong	34.67	Strong	0.67	1.28	task-social/outcomerating/task-pain_scale.png	n/a	n/a	n/a	n/a	success	n/a	n/a	n/a
365.3	1.0	pain	cue	12	low_cue	n/a	n/a	n/a	n/a	n/a	n/a	n/a	task-social/cue/runtype-pain/scl/l041.png	n/a	n/a	n/a	n/a	n/a	n/a	n/a	n/a
367.2	2.04	pain	expectrating	12	low_cue	n/a	32.29	Strong	32.29	Strong	0.47	1.57	task-social/cue/runtype-pain/scl/l041.png	n/a	n/a	n/a	n/a	n/a	n/a	n/a	n/a
378.84	12.370000000000005	pain	stimulus	12	low_cue	med_stim	n/a	n/a	n/a	n/a	n/a	n/a	n/a	378.84	382.6	387.6	391.21	success	n/a	n/a	n/a
394.49	1.85	pain	outcomerating	12	low_cue	med_stim	50.22	Strong	50.22	Strong	0.47	1.57	task-social/outcomerating/task-pain_scale.png	n/a	n/a	n/a	n/a	success	n/a	n/a	n/a
