onset	duration	run_type	trial_type	trial_index	cue	stimulusintensity	rating_value	rating_glmslabel	rating_value_fillna	rating_glmslabel_fillna	rating_mouseonset	rating_mousedur	stim_file	pain_onset_ttl1	pain_onset_ttl2	pain_onset_ttl3	pain_onset_ttl4	pain_stimulus_delivery_success	cognitive_correct_response	cognitive_participant_response	cognitive_response_accuracy
9.08	1.0	pain	cue	1	high_cue	n/a	n/a	n/a	n/a	n/a	n/a	n/a	task-social/cue/runtype-pain/sch/h002.png	n/a	n/a	n/a	n/a	n/a	n/a	n/a	n/a
10.73	2.83	pain	expectrating	1	high_cue	n/a	67.56	Very Strong	67.56	Very Strong	0.5	2.33	task-social/cue/runtype-pain/sch/h002.png	n/a	n/a	n/a	n/a	n/a	n/a	n/a	n/a
20.67	12.82	pain	stimulus	1	high_cue	high_stim	n/a	n/a	n/a	n/a	n/a	n/a	n/a	20.67	24.68	29.68	33.49	success	n/a	n/a	n/a
32.59	n/a	pain	outcomerating	1	high_cue	high_stim	n/a	n/a	79.92	Very Strong	0.5	2.33	task-social/outcomerating/task-pain_scale.png	n/a	n/a	n/a	n/a	success	n/a	n/a	n/a
45.49	1.0	pain	cue	2	low_cue	n/a	n/a	n/a	n/a	n/a	n/a	n/a	task-social/cue/runtype-pain/scl/l040.png	n/a	n/a	n/a	n/a	n/a	n/a	n/a	n/a
47.39	2.87	pain	expectrating	2	low_cue	n/a	31.4	Strong	31.4	Strong	0.12	2.75	task-social/cue/runtype-pain/scl/l040.png	n/a	n/a	n/a	n/a	n/a	n/a	n/a	n/a
58.76	11.899999999999999	pain	stimulus	2	low_cue	low_stim	n/a	n/a	n/a	n/a	n/a	n/a	n/a	58.76	62.26	67.26	70.66	success	n/a	n/a	n/a
75.49	3.57	pain	outcomerating	2	low_cue	low_stim	42.89	Strong	42.89	Strong	0.12	2.75	task-social/outcomerating/task-pain_scale.png	n/a	n/a	n/a	n/a	success	n/a	n/a	n/a
87.19	1.0	pain	cue	3	high_cue	n/a	n/a	n/a	n/a	n/a	n/a	n/a	task-social/cue/runtype-pain/sch/h033.png	n/a	n/a	n/a	n/a	n/a	n/a	n/a	n/a
89.49	3.02	pain	expectrating	3	high_cue	n/a	100.33	Strongest sensation of any kind	100.33	Strongest sensation of any kind	0.43	2.58	task-social/cue/runtype-pain/sch/h033.png	n/a	n/a	n/a	n/a	n/a	n/a	n/a	n/a
102.52	11.900000000000006	pain	stimulus	3	high_cue	low_stim	n/a	n/a	n/a	n/a	n/a	n/a	n/a	102.52	106.02	111.02	114.42	success	n/a	n/a	n/a
118.39	n/a	pain	outcomerating	3	high_cue	low_stim	n/a	n/a	28.32	Moderate	0.43	2.58	task-social/outcomerating/task-pain_scale.png	n/a	n/a	n/a	n/a	success	n/a	n/a	n/a
129.09	1.0	pain	cue	4	high_cue	n/a	n/a	n/a	n/a	n/a	n/a	n/a	task-social/cue/runtype-pain/sch/h020.png	n/a	n/a	n/a	n/a	n/a	n/a	n/a	n/a
130.99	2.12	pain	expectrating	4	high_cue	n/a	74.91	Very Strong	74.91	Very Strong	0.35	1.77	task-social/cue/runtype-pain/sch/h020.png	n/a	n/a	n/a	n/a	n/a	n/a	n/a	n/a
136.11	12.369999999999976	pain	stimulus	4	high_cue	med_stim	n/a	n/a	n/a	n/a	n/a	n/a	n/a	136.11	139.87	144.87	148.48	success	n/a	n/a	n/a
148.6	3.72	pain	outcomerating	4	high_cue	med_stim	70.76	Very Strong	70.76	Very Strong	0.35	1.77	task-social/outcomerating/task-pain_scale.png	n/a	n/a	n/a	n/a	success	n/a	n/a	n/a
155.39	1.0	pain	cue	5	low_cue	n/a	n/a	n/a	n/a	n/a	n/a	n/a	task-social/cue/runtype-pain/scl/l032.png	n/a	n/a	n/a	n/a	n/a	n/a	n/a	n/a
158.59	2.21	pain	expectrating	5	low_cue	n/a	15.32	Moderate	15.32	Moderate	0.07	2.14	task-social/cue/runtype-pain/scl/l032.png	n/a	n/a	n/a	n/a	n/a	n/a	n/a	n/a
168.51	11.909999999999997	pain	stimulus	5	low_cue	low_stim	n/a	n/a	n/a	n/a	n/a	n/a	n/a	168.51	172.01	177.01	180.41	success	n/a	n/a	n/a
184.3	2.57	pain	outcomerating	5	low_cue	low_stim	25.13	Moderate	25.13	Moderate	0.07	2.14	task-social/outcomerating/task-pain_scale.png	n/a	n/a	n/a	n/a	success	n/a	n/a	n/a
189.58	1.0	pain	cue	6	low_cue	n/a	n/a	n/a	n/a	n/a	n/a	n/a	task-social/cue/runtype-pain/scl/l031.png	n/a	n/a	n/a	n/a	n/a	n/a	n/a	n/a
192.3	2.73	pain	expectrating	6	low_cue	n/a	20.99	Moderate	20.99	Moderate	0.28	2.44	task-social/cue/runtype-pain/scl/l031.png	n/a	n/a	n/a	n/a	n/a	n/a	n/a	n/a
197.71	12.829999999999984	pain	stimulus	6	low_cue	high_stim	n/a	n/a	n/a	n/a	n/a	n/a	n/a	197.71	201.72	206.72	210.53	success	n/a	n/a	n/a
208.19	n/a	pain	outcomerating	6	low_cue	high_stim	n/a	n/a	65.59	Very Strong	0.28	2.44	task-social/outcomerating/task-pain_scale.png	n/a	n/a	n/a	n/a	success	n/a	n/a	n/a
214.09	1.0	pain	cue	7	low_cue	n/a	n/a	n/a	n/a	n/a	n/a	n/a	task-social/cue/runtype-pain/scl/l038.png	n/a	n/a	n/a	n/a	n/a	n/a	n/a	n/a
216.39	2.5	pain	expectrating	7	low_cue	n/a	25.64	Moderate	25.64	Moderate	0.42	2.08	task-social/cue/runtype-pain/scl/l038.png	n/a	n/a	n/a	n/a	n/a	n/a	n/a	n/a
222.12	12.359999999999985	pain	stimulus	7	low_cue	med_stim	n/a	n/a	n/a	n/a	n/a	n/a	n/a	222.12	225.88	230.88	234.49	success	n/a	n/a	n/a
232.7	2.28	pain	outcomerating	7	low_cue	med_stim	51.34	Strong	51.34	Strong	0.42	2.08	task-social/outcomerating/task-pain_scale.png	n/a	n/a	n/a	n/a	success	n/a	n/a	n/a
238.98	1.0	pain	cue	8	low_cue	n/a	n/a	n/a	n/a	n/a	n/a	n/a	task-social/cue/runtype-pain/scl/l044.png	n/a	n/a	n/a	n/a	n/a	n/a	n/a	n/a
241.38	3.47	pain	expectrating	8	low_cue	n/a	51.82	Strong	51.82	Strong	0.22	3.26	task-social/cue/runtype-pain/scl/l044.png	n/a	n/a	n/a	n/a	n/a	n/a	n/a	n/a
246.51	12.360000000000014	pain	stimulus	8	low_cue	med_stim	n/a	n/a	n/a	n/a	n/a	n/a	n/a	246.51	250.27	255.27	258.88	success	n/a	n/a	n/a
261.69	n/a	pain	outcomerating	8	low_cue	med_stim	n/a	n/a	51.34	Strong	0.22	3.26	task-social/outcomerating/task-pain_scale.png	n/a	n/a	n/a	n/a	success	n/a	n/a	n/a
267.99	0.98	pain	cue	9	low_cue	n/a	n/a	n/a	n/a	n/a	n/a	n/a	task-social/cue/runtype-pain/scl/l005.png	n/a	n/a	n/a	n/a	n/a	n/a	n/a	n/a
271.19	3.45	pain	expectrating	9	low_cue	n/a	43.14	Strong	43.14	Strong	0.57	2.88	task-social/cue/runtype-pain/scl/l005.png	n/a	n/a	n/a	n/a	n/a	n/a	n/a	n/a
279.73	12.819999999999993	pain	stimulus	9	low_cue	high_stim	n/a	n/a	n/a	n/a	n/a	n/a	n/a	279.73	283.74	288.74	292.55	success	n/a	n/a	n/a
294.89	3.04	pain	outcomerating	9	low_cue	high_stim	83.07	Very Strong	83.07	Very Strong	0.57	2.88	task-social/outcomerating/task-pain_scale.png	n/a	n/a	n/a	n/a	success	n/a	n/a	n/a
304.99	1.0	pain	cue	10	high_cue	n/a	n/a	n/a	n/a	n/a	n/a	n/a	task-social/cue/runtype-pain/sch/h001.png	n/a	n/a	n/a	n/a	n/a	n/a	n/a	n/a
308.09	2.15	pain	expectrating	10	high_cue	n/a	111.84	Strongest sensation of any kind	111.84	Strongest sensation of any kind	0.12	2.03	task-social/cue/runtype-pain/sch/h001.png	n/a	n/a	n/a	n/a	n/a	n/a	n/a	n/a
315.12	11.899999999999977	pain	stimulus	10	high_cue	low_stim	n/a	n/a	n/a	n/a	n/a	n/a	n/a	315.12	318.62	323.62	327.02	success	n/a	n/a	n/a
328.58	3.98	pain	outcomerating	10	high_cue	low_stim	37.33	Strong	37.33	Strong	0.12	2.03	task-social/outcomerating/task-pain_scale.png	n/a	n/a	n/a	n/a	success	n/a	n/a	n/a
339.19	1.0	pain	cue	11	high_cue	n/a	n/a	n/a	n/a	n/a	n/a	n/a	task-social/cue/runtype-pain/sch/h035.png	n/a	n/a	n/a	n/a	n/a	n/a	n/a	n/a
341.89	1.94	pain	expectrating	11	high_cue	n/a	106.26	Strongest sensation of any kind	106.26	Strongest sensation of any kind	0.05	1.89	task-social/cue/runtype-pain/sch/h035.png	n/a	n/a	n/a	n/a	n/a	n/a	n/a	n/a
350.42	12.370000000000005	pain	stimulus	11	high_cue	med_stim	n/a	n/a	n/a	n/a	n/a	n/a	n/a	350.42	354.18	359.18	362.79	success	n/a	n/a	n/a
364.9	3.67	pain	outcomerating	11	high_cue	med_stim	78.92	Very Strong	78.92	Very Strong	0.05	1.89	task-social/outcomerating/task-pain_scale.png	n/a	n/a	n/a	n/a	success	n/a	n/a	n/a
370.08	1.0	pain	cue	12	high_cue	n/a	n/a	n/a	n/a	n/a	n/a	n/a	task-social/cue/runtype-pain/sch/h056.png	n/a	n/a	n/a	n/a	n/a	n/a	n/a	n/a
372.78	2.1	pain	expectrating	12	high_cue	n/a	74.91	Very Strong	74.91	Very Strong	0.32	1.78	task-social/cue/runtype-pain/sch/h056.png	n/a	n/a	n/a	n/a	n/a	n/a	n/a	n/a
385.51	12.819999999999993	pain	stimulus	12	high_cue	high_stim	n/a	n/a	n/a	n/a	n/a	n/a	n/a	385.51	389.52	394.52	398.33	success	n/a	n/a	n/a
394.99	3.03	pain	outcomerating	12	high_cue	high_stim	91.61	Very Strong	91.61	Very Strong	0.32	1.78	task-social/outcomerating/task-pain_scale.png	n/a	n/a	n/a	n/a	success	n/a	n/a	n/a
