onset	duration	question	event_type	participant_response	normative_response	response_accuracy	stim_file
5.024280071258545	1.6354198455810547	reaching?	how_hand	yes	yes	correct	task-tomspunt/H_007.jpg
6.975009918212891	0.018130064010620117	reaching?	how_hand	yes	no	incorrect	task-tomspunt/H_532.jpg
7.308470010757446	0.9350600242614746	reaching?	how_hand	yes	yes	correct	task-tomspunt/H_474.jpg
8.558929920196533	1.4358601570129395	reaching?	how_hand	no	no	correct	task-tomspunt/H_438.jpg
10.309590101242065	0.019699811935424805	reaching?	how_hand	no	yes	incorrect	task-tomspunt/H_364.jpg
10.64303994178772	1.1848399639129639	reaching?	how_hand	yes	yes	correct	task-tomspunt/H_006.jpg
12.14359998703003	1.0014500617980957	reaching?	how_hand	yes	yes	correct	task-tomspunt/H_003.jpg
13.460760116577148	1.1848299503326416	reaching?	how_hand	yes	no	incorrect	task-tomspunt/H_132.jpg
22.54748010635376	1.8999199867248535	healthy?	why_hand	yes	yes	correct	task-tomspunt/H_627.jpg
24.598249912261963	0.017890214920043945	healthy?	why_hand	yes	yes	correct	task-tomspunt/H_438.jpg
24.931699991226196	1.6517200469970703	healthy?	why_hand	yes	yes	correct	task-tomspunt/H_364.jpg
26.899110078811646	1.3608999252319336	healthy?	why_hand	yes	no	incorrect	task-tomspunt/H_130.jpg
28.56639003753662	0.018140077590942383	healthy?	why_hand	yes	yes	correct	task-tomspunt/H_362.jpg
28.899850130081177	1.3769299983978271	healthy?	why_hand	no	no	correct	task-tomspunt/H_007.jpg
30.583810091018677	0.9422600269317627	healthy?	why_hand	yes	yes	correct	task-tomspunt/H_167.jpg
31.834280014038086	1.5755300521850586	healthy?	why_hand	no	no	correct	task-tomspunt/H_019.jpg
41.65460991859436	0.7719202041625977	admiring?	why_face	yes	yes	correct	task-tomspunt/F_779.jpg
42.73834991455078	0.9376101493835449	admiring?	why_face	yes	yes	correct	task-tomspunt/F_593.jpg
43.98881006240845	1.437809944152832	admiring?	why_face	no	no	correct	task-tomspunt/F_110.jpg
45.73945999145508	1.2367300987243652	admiring?	why_face	yes	yes	correct	task-tomspunt/F_590.jpg
47.290040016174316	1.1359200477600098	admiring?	why_face	no	no	correct	task-tomspunt/F_692.jpg
48.7405800819397	0.852409839630127	admiring?	why_face	yes	yes	correct	task-tomspunt/F_759.jpg
49.90768003463745	0.8020200729370117	admiring?	why_face	yes	yes	correct	task-tomspunt/F_648.jpg
51.0247700214386	0.8513400554656982	admiring?	why_face	no	no	correct	task-tomspunt/F_129.jpg
60.628350019454956	0.8012700080871582	smiling?	how_face	yes	yes	correct	task-tomspunt/F_139.jpg
61.74542999267578	0.018599987030029297	smiling?	how_face	yes	no	incorrect	task-tomspunt/F_712.jpg
62.07889008522034	n/a	smiling?	how_face	n/a	yes	incorrect	task-tomspunt/F_695.jpg
64.1129801273346	1.3688099384307861	smiling?	how_face	no	no	correct	task-tomspunt/F_758.jpg
65.7969400882721	0.7123398780822754	smiling?	how_face	yes	yes	correct	task-tomspunt/F_083.jpg
66.81399011611938	0.6625998020172119	smiling?	how_face	yes	yes	correct	task-tomspunt/F_759.jpg
67.78101992607117	0.9120700359344482	smiling?	how_face	no	no	correct	task-tomspunt/F_412.jpg
68.99814009666443	1.061959981918335	smiling?	how_face	yes	yes	correct	task-tomspunt/F_593.jpg
78.15155005455017	1.0418100357055664	lifting?	how_hand	no	yes	incorrect	task-tomspunt/H_136.jpg
79.50205993652344	1.7072701454162598	lifting?	how_hand	no	no	correct	task-tomspunt/H_038.jpg
81.51946997642517	1.1738500595092773	lifting?	how_hand	yes	yes	correct	task-tomspunt/H_189.jpg
83.00336003303528	1.0226099491119385	lifting?	how_hand	no	no	correct	task-tomspunt/H_077.jpg
84.33718991279602	1.1015100479125977	lifting?	how_hand	yes	yes	correct	task-tomspunt/H_443.jpg
85.754390001297	0.952009916305542	lifting?	how_hand	no	no	correct	task-tomspunt/H_012.jpg
87.02152991294861	0.9551701545715332	lifting?	how_hand	yes	yes	correct	task-tomspunt/H_362.jpg
88.2886700630188	0.9206500053405762	lifting?	how_hand	yes	yes	correct	task-tomspunt/H_170.jpg
100.64327001571655	1.0680301189422607	helping?	why_hand	yes	yes	correct	task-tomspunt/H_077.jpg
102.0271201133728	0.018069982528686523	helping?	why_hand	yes	yes	correct	task-tomspunt/H_349.jpg
102.36057996749878	1.751270055770874	helping?	why_hand	yes	yes	correct	task-tomspunt/H_474.jpg
104.39467000961304	1.0021600723266602	helping?	why_hand	no	yes	incorrect	task-tomspunt/H_024.jpg
105.71183013916016	0.964709997177124	helping?	why_hand	no	no	correct	task-tomspunt/H_012.jpg
106.97897005081177	1.1514599323272705	helping?	why_hand	no	no	correct	task-tomspunt/H_159.jpg
108.44618010520935	1.0514400005340576	helping?	why_hand	yes	yes	correct	task-tomspunt/H_111.jpg
109.81335997581482	1.4021501541137695	helping?	why_hand	no	no	correct	task-tomspunt/H_091.jpg
118.51660990715027	1.3602900505065918	proud?	why_face	yes	yes	correct	task-tomspunt/F_598.jpg
120.18389010429382	0.02611994743347168	proud?	why_face	yes	no	incorrect	task-tomspunt/F_760.jpg
120.5173499584198	1.5853300094604492	proud?	why_face	yes	yes	correct	task-tomspunt/F_582.jpg
122.4180600643158	0.8753800392150879	proud?	why_face	no	no	correct	task-tomspunt/F_412.jpg
123.60183000564575	1.0016300678253174	proud?	why_face	yes	yes	correct	task-tomspunt/F_083.jpg
124.91899013519287	1.3912298679351807	proud?	why_face	no	no	correct	task-tomspunt/F_776.jpg
126.6196300983429	1.034869909286499	proud?	why_face	yes	yes	correct	task-tomspunt/F_618.jpg
127.97012996673584	1.4893100261688232	proud?	why_face	yes	yes	correct	task-tomspunt/F_695.jpg
136.03980994224548	1.6697402000427246	looking to side?	how_face	yes	yes	correct	task-tomspunt/F_590.jpg
138.0238800048828	0.8023700714111328	looking to side?	how_face	yes	yes	correct	task-tomspunt/F_433.jpg
139.14095997810364	0.8017399311065674	looking to side?	how_face	yes	yes	correct	task-tomspunt/F_716.jpg
140.25804996490479	1.0354499816894531	looking to side?	how_face	yes	no	incorrect	task-tomspunt/F_779.jpg
141.6085500717163	1.284909963607788	looking to side?	how_face	yes	yes	correct	task-tomspunt/F_760.jpg
143.20915007591248	1.0683598518371582	looking to side?	how_face	no	no	correct	task-tomspunt/F_111.jpg
144.59299993515015	1.3853302001953125	looking to side?	how_face	no	yes	incorrect	task-tomspunt/F_110.jpg
146.29363012313843	1.0187299251556396	looking to side?	how_face	no	no	correct	task-tomspunt/F_798.jpg
155.14692997932434	1.2519400119781494	argument?	why_face	yes	yes	correct	task-tomspunt/F_716.jpg
156.71417999267578	1.2516200542449951	argument?	why_face	no	no	correct	task-tomspunt/F_139.jpg
158.28143000602722	0.8186700344085693	argument?	why_face	yes	yes	correct	task-tomspunt/F_712.jpg
159.41518998146057	0.794719934463501	argument?	why_face	no	no	correct	task-tomspunt/F_433.jpg
160.5155999660492	0.7515101432800293	argument?	why_face	yes	yes	correct	task-tomspunt/F_403.jpg
161.5826699733734	0.7441599369049072	argument?	why_face	yes	no	incorrect	task-tomspunt/F_844.jpg
162.6330599784851	0.726370096206665	argument?	why_face	yes	yes	correct	task-tomspunt/F_743.jpg
163.6667799949646	0.8847200870513916	argument?	why_face	yes	yes	correct	task-tomspunt/F_758.jpg
172.9869201183319	0.6223800182342529	open mouth?	how_face	yes	yes	correct	task-tomspunt/F_844.jpg
173.92059993743896	0.6053299903869629	open mouth?	how_face	yes	yes	correct	task-tomspunt/F_776.jpg
174.8376100063324	0.7556300163269043	open mouth?	how_face	no	no	correct	task-tomspunt/F_544.jpg
175.9046700000763	0.6347501277923584	open mouth?	how_face	yes	yes	correct	task-tomspunt/F_692.jpg
176.85503005981445	0.7881898880004883	open mouth?	how_face	no	no	correct	task-tomspunt/F_584.jpg
177.95544004440308	0.7350399494171143	open mouth?	how_face	yes	yes	correct	task-tomspunt/F_403.jpg
179.00583004951477	0.7541499137878418	open mouth?	how_face	yes	yes	correct	task-tomspunt/F_086.jpg
180.07289004325867	0.7364299297332764	open mouth?	how_face	no	no	correct	task-tomspunt/F_648.jpg
190.8769199848175	0.7681400775909424	pressing button?	how_hand	yes	yes	correct	task-tomspunt/H_019.jpg
191.96065998077393	0.01817011833190918	pressing button?	how_hand	yes	no	incorrect	task-tomspunt/H_024.jpg
192.29412007331848	1.0020999908447266	pressing button?	how_hand	no	no	correct	task-tomspunt/H_130.jpg
193.61127996444702	0.7521600723266602	pressing button?	how_hand	yes	yes	correct	task-tomspunt/H_502.jpg
194.67833995819092	0.8847701549530029	pressing button?	how_hand	no	no	correct	task-tomspunt/H_261.jpg
195.87879014015198	0.6013398170471191	pressing button?	how_hand	yes	yes	correct	task-tomspunt/H_332.jpg
196.79579997062683	0.6519801616668701	pressing button?	how_hand	yes	yes	correct	task-tomspunt/H_126.jpg
197.76282000541687	0.7346799373626709	pressing button?	how_hand	yes	yes	correct	task-tomspunt/H_483.jpg
208.66688990592957	1.1098101139068604	competing?	why_hand	yes	yes	correct	task-tomspunt/H_261.jpg
210.08408999443054	0.8919000625610352	competing?	why_hand	no	no	correct	task-tomspunt/H_483.jpg
211.2845299243927	0.7585701942443848	competing?	why_hand	yes	yes	correct	task-tomspunt/H_132.jpg
212.35159993171692	0.8417999744415283	competing?	why_hand	no	no	correct	task-tomspunt/H_126.jpg
213.50203013420105	0.7521798610687256	competing?	why_hand	yes	yes	correct	task-tomspunt/H_136.jpg
214.56909012794495	0.9181699752807617	competing?	why_hand	no	no	correct	task-tomspunt/H_502.jpg
215.80289006233215	0.7069499492645264	competing?	why_hand	yes	yes	correct	task-tomspunt/H_003.jpg
216.81993007659912	0.7188498973846436	competing?	why_hand	yes	yes	correct	task-tomspunt/H_170.jpg
226.74029994010925	1.2857999801635742	self-doubt?	why_face	yes	yes	correct	task-tomspunt/F_544.jpg
228.3408899307251	0.9019300937652588	self-doubt?	why_face	no	no	correct	task-tomspunt/F_086.jpg
229.55801010131836	0.717979907989502	self-doubt?	why_face	yes	yes	correct	task-tomspunt/F_798.jpg
230.59173011779785	0.7354300022125244	self-doubt?	why_face	yes	yes	correct	task-tomspunt/F_111.jpg
231.64213013648987	0.7518899440765381	self-doubt?	why_face	no	no	correct	task-tomspunt/F_774.jpg
232.70919013023376	0.868689775466919	self-doubt?	why_face	yes	yes	correct	task-tomspunt/F_754.jpg
233.89296007156372	0.9518799781799316	self-doubt?	why_face	no	no	correct	task-tomspunt/F_128.jpg
235.16009998321533	1.2188999652862549	self-doubt?	why_face	yes	yes	correct	task-tomspunt/F_584.jpg
245.79739999771118	1.1018400192260742	looking at camera?	how_face	yes	yes	correct	task-tomspunt/F_128.jpg
247.21460008621216	0.6012599468231201	looking at camera?	how_face	yes	yes	correct	task-tomspunt/F_618.jpg
248.131609916687	0.5947802066802979	looking at camera?	how_face	yes	yes	correct	task-tomspunt/F_598.jpg
249.03193998336792	0.6685500144958496	looking at camera?	how_face	no	no	correct	task-tomspunt/F_743.jpg
250.01564002037048	0.7107501029968262	looking at camera?	how_face	yes	yes	correct	task-tomspunt/F_774.jpg
251.03269004821777	0.7432999610900879	looking at camera?	how_face	yes	no	incorrect	task-tomspunt/F_582.jpg
252.08308005332947	0.9266800880432129	looking at camera?	how_face	no	no	correct	task-tomspunt/F_754.jpg
253.31687998771667	0.7591300010681152	looking at camera?	how_face	yes	yes	correct	task-tomspunt/F_129.jpg
264.587739944458	1.1382501125335693	both hands?	how_hand	yes	yes	correct	task-tomspunt/H_167.jpg
266.0382900238037	0.85440993309021	both hands?	how_hand	no	no	correct	task-tomspunt/H_091.jpg
267.20538997650146	0.8371601104736328	both hands?	how_hand	no	no	correct	task-tomspunt/H_627.jpg
268.355819940567	0.8036501407623291	both hands?	how_hand	yes	yes	correct	task-tomspunt/H_027.jpg
269.47289991378784	0.9869401454925537	both hands?	how_hand	yes	yes	correct	task-tomspunt/H_111.jpg
270.77338004112244	0.8526198863983154	both hands?	how_hand	no	no	correct	task-tomspunt/H_159.jpg
271.9404900074005	0.9355099201202393	both hands?	how_hand	yes	yes	correct	task-tomspunt/H_581.jpg
273.1909499168396	0.8187201023101807	both hands?	how_hand	yes	yes	correct	task-tomspunt/H_349.jpg
283.37808990478516	0.8350100517272949	self-protection?	why_hand	yes	yes	correct	task-tomspunt/H_443.jpg
284.52851009368896	1.0481998920440674	self-protection?	why_hand	no	no	correct	task-tomspunt/H_006.jpg
285.87901997566223	0.768010139465332	self-protection?	why_hand	yes	yes	correct	task-tomspunt/H_581.jpg
286.96275997161865	0.9180700778961182	self-protection?	why_hand	no	no	correct	task-tomspunt/H_532.jpg
288.1965501308441	1.1522200107574463	self-protection?	why_hand	yes	yes	correct	task-tomspunt/H_027.jpg
289.6637599468231	0.8680200576782227	self-protection?	why_hand	yes	yes	correct	task-tomspunt/H_038.jpg
290.847540140152	0.7346999645233154	self-protection?	why_hand	no	no	correct	task-tomspunt/H_332.jpg
291.8979299068451	1.3788201808929443	self-protection?	why_hand	yes	yes	correct	task-tomspunt/H_189.jpg
304.8527600765228	0.7400000095367432	smiling?	how_face	yes	yes	correct	task-tomspunt/F_759.jpg
305.9031500816345	0.7562999725341797	smiling?	how_face	no	no	correct	task-tomspunt/F_412.jpg
306.97022008895874	0.6895098686218262	smiling?	how_face	yes	yes	correct	task-tomspunt/F_593.jpg
307.9705901145935	0.022449970245361328	smiling?	how_face	yes	no	incorrect	task-tomspunt/F_712.jpg
308.3040499687195	1.085240125656128	smiling?	how_face	yes	yes	correct	task-tomspunt/F_695.jpg
309.70457005500793	0.9714498519897461	smiling?	how_face	yes	yes	correct	task-tomspunt/F_139.jpg
310.98837995529175	0.6550800800323486	smiling?	how_face	yes	yes	correct	task-tomspunt/F_083.jpg
311.9554100036621	0.7379801273345947	smiling?	how_face	no	no	correct	task-tomspunt/F_758.jpg
322.6427299976349	0.8180499076843262	admiring?	why_face	yes	yes	correct	task-tomspunt/F_593.jpg
323.7764799594879	1.1015300750732422	admiring?	why_face	no	no	correct	task-tomspunt/F_129.jpg
325.1936800479889	0.9522600173950195	admiring?	why_face	yes	yes	correct	task-tomspunt/F_759.jpg
326.4608199596405	0.9847500324249268	admiring?	why_face	no	no	correct	task-tomspunt/F_692.jpg
327.7613000869751	0.7018799781799316	admiring?	why_face	yes	yes	correct	task-tomspunt/F_779.jpg
328.7783501148224	0.7180600166320801	admiring?	why_face	yes	yes	correct	task-tomspunt/F_590.jpg
329.8120701313019	0.6977798938751221	admiring?	why_face	yes	yes	correct	task-tomspunt/F_648.jpg
330.81243991851807	0.7805800437927246	admiring?	why_face	no	no	correct	task-tomspunt/F_110.jpg
340.53273010253906	0.7770600318908691	competing?	why_hand	yes	yes	correct	task-tomspunt/H_261.jpg
341.6164700984955	0.6346800327301025	competing?	why_hand	yes	yes	correct	task-tomspunt/H_170.jpg
342.56681990623474	0.8098201751708984	competing?	why_hand	no	no	correct	task-tomspunt/H_483.jpg
343.68391013145447	0.026169776916503906	competing?	why_hand	no	yes	incorrect	task-tomspunt/H_132.jpg
344.01736998558044	1.3592400550842285	competing?	why_hand	yes	yes	correct	task-tomspunt/H_136.jpg
345.6846499443054	0.8580501079559326	competing?	why_hand	yes	yes	correct	task-tomspunt/H_003.jpg
346.8517599105835	1.240920066833496	competing?	why_hand	no	no	correct	task-tomspunt/H_126.jpg
348.4023299217224	0.9688100814819336	competing?	why_hand	no	no	correct	task-tomspunt/H_502.jpg
362.0074100494385	0.6686000823974609	reaching?	how_hand	yes	yes	correct	task-tomspunt/H_003.jpg
362.99111008644104	0.9185199737548828	reaching?	how_hand	yes	yes	correct	task-tomspunt/H_364.jpg
364.2249000072479	0.8513200283050537	reaching?	how_hand	no	no	correct	task-tomspunt/H_532.jpg
365.3919999599457	0.8014099597930908	reaching?	how_hand	yes	yes	correct	task-tomspunt/H_006.jpg
366.5090899467468	1.7231500148773193	reaching?	how_hand	no	no	correct	task-tomspunt/H_438.jpg
368.5431799888611	0.9181101322174072	reaching?	how_hand	yes	yes	correct	task-tomspunt/H_007.jpg
369.77696990966797	0.9520699977874756	reaching?	how_hand	yes	yes	correct	task-tomspunt/H_474.jpg
371.04411005973816	1.2022099494934082	reaching?	how_hand	no	no	correct	task-tomspunt/H_132.jpg
379.84739995002747	0.8788900375366211	open mouth?	how_face	yes	yes	correct	task-tomspunt/F_403.jpg
381.031170129776	0.8452198505401611	open mouth?	how_face	no	no	correct	task-tomspunt/F_648.jpg
382.18160009384155	0.6847398281097412	open mouth?	how_face	yes	yes	correct	task-tomspunt/F_776.jpg
383.1819701194763	1.0440399646759033	open mouth?	how_face	no	no	correct	task-tomspunt/F_584.jpg
384.5324800014496	0.7020199298858643	open mouth?	how_face	yes	yes	correct	task-tomspunt/F_844.jpg
385.54952001571655	0.8682000637054443	open mouth?	how_face	yes	yes	correct	task-tomspunt/F_692.jpg
386.73329997062683	0.8100900650024414	open mouth?	how_face	yes	yes	correct	task-tomspunt/F_086.jpg
387.85037994384766	0.8759901523590088	open mouth?	how_face	no	no	correct	task-tomspunt/F_544.jpg
398.52102994918823	1.1021499633789062	argument?	why_face	yes	yes	correct	task-tomspunt/F_403.jpg
399.9382200241089	0.021850109100341797	argument?	why_face	yes	no	incorrect	task-tomspunt/F_844.jpg
400.27168011665344	n/a	argument?	why_face	n/a	yes	incorrect	task-tomspunt/F_712.jpg
402.3057699203491	1.0207700729370117	argument?	why_face	yes	yes	correct	task-tomspunt/F_758.jpg
403.63960003852844	0.7846500873565674	argument?	why_face	no	no	correct	task-tomspunt/F_433.jpg
404.74001002311707	0.7696800231933594	argument?	why_face	no	yes	incorrect	task-tomspunt/F_716.jpg
405.8237500190735	1.1189699172973633	argument?	why_face	no	no	correct	task-tomspunt/F_139.jpg
407.25762009620667	0.7183399200439453	argument?	why_face	yes	yes	correct	task-tomspunt/F_743.jpg
416.7444899082184	n/a	helping?	why_hand	n/a	yes	incorrect	task-tomspunt/H_024.jpg
418.77857995033264	0.8848600387573242	helping?	why_hand	yes	yes	correct	task-tomspunt/H_349.jpg
419.9790301322937	0.9973499774932861	helping?	why_hand	yes	yes	correct	task-tomspunt/H_077.jpg
421.2795100212097	0.7966001033782959	helping?	why_hand	yes	yes	correct	task-tomspunt/H_474.jpg
422.37992000579834	0.8635199069976807	helping?	why_hand	no	no	correct	task-tomspunt/H_091.jpg
423.5470199584961	0.9124000072479248	helping?	why_hand	no	no	correct	task-tomspunt/H_159.jpg
424.76414012908936	0.8349997997283936	helping?	why_hand	yes	yes	correct	task-tomspunt/H_111.jpg
425.9145700931549	0.8853099346160889	helping?	why_hand	no	no	correct	task-tomspunt/H_012.jpg
434.81788992881775	0.7915999889373779	both hands?	how_hand	yes	yes	correct	task-tomspunt/H_111.jpg
435.9182999134064	0.641240119934082	both hands?	how_hand	yes	yes	correct	task-tomspunt/H_027.jpg
436.86865997314453	0.6913299560546875	both hands?	how_hand	no	no	correct	task-tomspunt/H_091.jpg
437.8690299987793	0.7409701347351074	both hands?	how_hand	yes	yes	correct	task-tomspunt/H_167.jpg
438.919420003891	0.7733299732208252	both hands?	how_hand	yes	yes	correct	task-tomspunt/H_581.jpg
440.0031599998474	0.7680001258850098	both hands?	how_hand	no	no	correct	task-tomspunt/H_159.jpg
441.08689999580383	0.7058401107788086	both hands?	how_hand	yes	yes	correct	task-tomspunt/H_349.jpg
442.1039400100708	0.7560200691223145	both hands?	how_hand	no	no	correct	task-tomspunt/H_627.jpg
452.3410999774933	0.819040060043335	healthy?	why_hand	yes	yes	correct	task-tomspunt/H_438.jpg
453.4748499393463	0.801800012588501	healthy?	why_hand	yes	yes	correct	task-tomspunt/H_364.jpg
454.59192991256714	0.9850702285766602	healthy?	why_hand	yes	yes	correct	task-tomspunt/H_362.jpg
455.89242005348206	0.9180600643157959	healthy?	why_hand	no	no	correct	task-tomspunt/H_019.jpg
457.12620997428894	0.8350801467895508	healthy?	why_hand	yes	yes	correct	task-tomspunt/H_167.jpg
458.2766399383545	0.951470136642456	healthy?	why_hand	no	no	correct	task-tomspunt/H_007.jpg
459.5437800884247	0.932960033416748	healthy?	why_hand	yes	yes	correct	task-tomspunt/H_627.jpg
460.77757000923157	0.8518199920654297	healthy?	why_hand	no	no	correct	task-tomspunt/H_130.jpg
471.3982000350952	0.8521599769592285	pressing button?	how_hand	yes	yes	correct	task-tomspunt/H_126.jpg
472.56529998779297	0.694810152053833	pressing button?	how_hand	no	no	correct	task-tomspunt/H_130.jpg
473.56568002700806	0.6851000785827637	pressing button?	how_hand	yes	yes	correct	task-tomspunt/H_483.jpg
474.5660500526428	0.6607398986816406	pressing button?	how_hand	no	no	correct	task-tomspunt/H_024.jpg
475.5330801010132	0.6429498195648193	pressing button?	how_hand	yes	yes	correct	task-tomspunt/H_332.jpg
476.48342990875244	0.6760802268981934	pressing button?	how_hand	yes	yes	correct	task-tomspunt/H_019.jpg
477.467129945755	0.7355201244354248	pressing button?	how_hand	no	no	correct	task-tomspunt/H_261.jpg
478.5175199508667	0.6347501277923584	pressing button?	how_hand	yes	yes	correct	task-tomspunt/H_502.jpg
488.92140007019043	0.7213699817657471	looking at camera?	how_face	yes	yes	correct	task-tomspunt/F_618.jpg
489.9551200866699	1.0375699996948242	looking at camera?	how_face	no	no	correct	task-tomspunt/F_754.jpg
491.3056299686432	0.6710100173950195	looking at camera?	how_face	yes	yes	correct	task-tomspunt/F_129.jpg
492.28933000564575	0.7038900852203369	looking at camera?	how_face	yes	yes	correct	task-tomspunt/F_598.jpg
493.3063700199127	0.8367099761962891	looking at camera?	how_face	yes	yes	correct	task-tomspunt/F_128.jpg
494.45679998397827	0.7192199230194092	looking at camera?	how_face	yes	no	incorrect	task-tomspunt/F_582.jpg
495.49052000045776	0.819580078125	looking at camera?	how_face	yes	yes	correct	task-tomspunt/F_774.jpg
496.6242799758911	0.8020899295806885	looking at camera?	how_face	no	no	correct	task-tomspunt/F_743.jpg
507.87846994400024	1.2848701477050781	self-doubt?	why_face	yes	yes	correct	task-tomspunt/F_798.jpg
509.4790699481964	1.1348299980163574	self-doubt?	why_face	yes	no	incorrect	task-tomspunt/F_086.jpg
510.9296100139618	1.0348598957061768	self-doubt?	why_face	yes	yes	correct	task-tomspunt/F_544.jpg
512.2801101207733	0.8021697998046875	self-doubt?	why_face	yes	yes	correct	task-tomspunt/F_754.jpg
513.3972001075745	0.9123799800872803	self-doubt?	why_face	yes	yes	correct	task-tomspunt/F_111.jpg
514.6143200397491	0.9118599891662598	self-doubt?	why_face	yes	yes	correct	task-tomspunt/F_584.jpg
515.8314399719238	0.901400089263916	self-doubt?	why_face	no	no	correct	task-tomspunt/F_128.jpg
517.0485601425171	0.801689863204956	self-doubt?	why_face	no	no	correct	task-tomspunt/F_774.jpg
525.4016699790955	0.6411499977111816	self-protection?	why_hand	yes	yes	correct	task-tomspunt/H_581.jpg
526.3520300388336	0.6073799133300781	self-protection?	why_hand	yes	yes	correct	task-tomspunt/H_443.jpg
527.269040107727	0.8683798313140869	self-protection?	why_hand	no	no	correct	task-tomspunt/H_332.jpg
528.452810049057	0.6236999034881592	self-protection?	why_hand	yes	yes	correct	task-tomspunt/H_027.jpg
529.3864901065826	0.8680899143218994	self-protection?	why_hand	no	no	correct	task-tomspunt/H_532.jpg
530.5702700614929	0.8013699054718018	self-protection?	why_hand	yes	yes	correct	task-tomspunt/H_189.jpg
531.6873500347137	0.9221599102020264	self-protection?	why_hand	no	no	correct	task-tomspunt/H_006.jpg
532.921149969101	0.7049000263214111	self-protection?	why_hand	yes	yes	correct	task-tomspunt/H_038.jpg
543.6251399517059	0.9179501533508301	lifting?	how_hand	yes	yes	correct	task-tomspunt/H_443.jpg
544.8589301109314	0.8684499263763428	lifting?	how_hand	no	no	correct	task-tomspunt/H_038.jpg
546.0427100658417	0.7512800693511963	lifting?	how_hand	yes	yes	correct	task-tomspunt/H_136.jpg
547.1097700595856	0.8350498676300049	lifting?	how_hand	no	no	correct	task-tomspunt/H_012.jpg
548.2602000236511	0.7179999351501465	lifting?	how_hand	yes	yes	correct	task-tomspunt/H_362.jpg
549.2939200401306	0.8184399604797363	lifting?	how_hand	yes	yes	correct	task-tomspunt/H_189.jpg
550.4276700019836	0.7178800106048584	lifting?	how_hand	yes	yes	correct	task-tomspunt/H_170.jpg
551.4613900184631	0.784869909286499	lifting?	how_hand	no	no	correct	task-tomspunt/H_077.jpg
561.4984700679779	0.6013000011444092	looking to side?	how_face	yes	yes	correct	task-tomspunt/F_716.jpg
562.4154801368713	0.9272599220275879	looking to side?	how_face	no	no	correct	task-tomspunt/F_798.jpg
563.6492700576782	0.8014600276947021	looking to side?	how_face	yes	yes	correct	task-tomspunt/F_760.jpg
564.7663600444794	1.0936999320983887	looking to side?	how_face	no	yes	incorrect	task-tomspunt/F_110.jpg
566.1668801307678	0.9430999755859375	looking to side?	how_face	yes	no	incorrect	task-tomspunt/F_779.jpg
567.4173400402069	1.4753599166870117	looking to side?	how_face	yes	yes	correct	task-tomspunt/F_590.jpg
569.2013399600983	0.8584301471710205	looking to side?	how_face	no	no	correct	task-tomspunt/F_111.jpg
570.368439912796	0.8075900077819824	looking to side?	how_face	yes	yes	correct	task-tomspunt/F_433.jpg
583.9735200405121	0.8357598781585693	proud?	why_face	yes	yes	correct	task-tomspunt/F_083.jpg
585.1239500045776	0.01882004737854004	proud?	why_face	yes	yes	correct	task-tomspunt/F_582.jpg
585.4574000835419	1.9592900276184082	proud?	why_face	yes	yes	correct	task-tomspunt/F_618.jpg
587.4914901256561	0.01854991912841797	proud?	why_face	yes	no	incorrect	task-tomspunt/F_776.jpg
587.8249499797821	1.3682000637054443	proud?	why_face	yes	yes	correct	task-tomspunt/F_598.jpg
589.5089199542999	1.051880121231079	proud?	why_face	no	no	correct	task-tomspunt/F_760.jpg
590.8760900497437	0.9015200138092041	proud?	why_face	no	no	correct	task-tomspunt/F_412.jpg
592.0932099819183	1.3352100849151611	proud?	why_face	yes	yes	correct	task-tomspunt/F_695.jpg
0.080137720108032	2.03409171104431	reaching?	block_question_presentation	n/a	n/a	n/a	n/a
0.080137720108032	0.3	reaching?	block_question_presentation	n/a	n/a	n/a	n/a
17.5366477870941	2.10078263282776	healthy?	block_question_presentation	n/a	n/a	n/a	n/a
17.5366477870941	0.3	healthy?	block_question_presentation	n/a	n/a	n/a	n/a
36.6437728309631	2.10078430175781	admiring?	block_question_presentation	n/a	n/a	n/a	n/a
36.6437728309631	0.3	admiring?	block_question_presentation	n/a	n/a	n/a	n/a
55.6175141239166	2.10078454017639	smiling?	block_question_presentation	n/a	n/a	n/a	n/a
55.6175141239166	0.3	smiling?	block_question_presentation	n/a	n/a	n/a	n/a
73.1407167816162	2.10078477859497	lifting?	block_question_presentation	n/a	n/a	n/a	n/a
73.1407167816162	0.3	lifting?	block_question_presentation	n/a	n/a	n/a	n/a
95.6324369812012	2.10078477859497	helping?	block_question_presentation	n/a	n/a	n/a	n/a
95.6324369812012	0.3	helping?	block_question_presentation	n/a	n/a	n/a	n/a
113.505769481659	2.10078358650208	proud?	block_question_presentation	n/a	n/a	n/a	n/a
113.505769481659	0.3	proud?	block_question_presentation	n/a	n/a	n/a	n/a
131.028970470428	2.10078430175781	looking to side?	block_question_presentation	n/a	n/a	n/a	n/a
131.028970470428	0.3	looking to side?	block_question_presentation	n/a	n/a	n/a	n/a
150.136096467972	2.10078430175781	argument?	block_question_presentation	n/a	n/a	n/a	n/a
150.136096467972	0.3	argument?	block_question_presentation	n/a	n/a	n/a	n/a
167.976083030701	2.10078382492065	open mouth?	block_question_presentation	n/a	n/a	n/a	n/a
167.976083030701	0.3	open mouth?	block_question_presentation	n/a	n/a	n/a	n/a
185.866088142395	2.10078382492065	pressing button?	block_question_presentation	n/a	n/a	n/a	n/a
185.866088142395	0.3	pressing button?	block_question_presentation	n/a	n/a	n/a	n/a
203.656055202484	2.10078382492065	competing?	block_question_presentation	n/a	n/a	n/a	n/a
203.656055202484	0.3	competing?	block_question_presentation	n/a	n/a	n/a	n/a
221.729461660385	2.10078430175781	self-doubt?	block_question_presentation	n/a	n/a	n/a	n/a
221.729461660385	0.3	self-doubt?	block_question_presentation	n/a	n/a	n/a	n/a
240.786568870544	2.10078430175781	looking at camera?	block_question_presentation	n/a	n/a	n/a	n/a
240.786568870544	0.3	looking at camera?	block_question_presentation	n/a	n/a	n/a	n/a
259.576909770966	2.10078287124634	both hands?	block_question_presentation	n/a	n/a	n/a	n/a
259.576909770966	0.3	both hands?	block_question_presentation	n/a	n/a	n/a	n/a
278.367249717712	2.10078430175781	self-protection?	block_question_presentation	n/a	n/a	n/a	n/a
278.367249717712	0.3	self-protection?	block_question_presentation	n/a	n/a	n/a	n/a
299.841926088333	2.1007821559906	smiling?	block_question_presentation	n/a	n/a	n/a	n/a
299.841926088333	0.3	smiling?	block_question_presentation	n/a	n/a	n/a	n/a
317.631892671585	2.10078382492065	admiring?	block_question_presentation	n/a	n/a	n/a	n/a
317.631892671585	0.3	admiring?	block_question_presentation	n/a	n/a	n/a	n/a
335.521897306442	2.10078310966492	competing?	block_question_presentation	n/a	n/a	n/a	n/a
335.521897306442	0.3	competing?	block_question_presentation	n/a	n/a	n/a	n/a
356.99657248497	2.10078406333923	reaching?	block_question_presentation	n/a	n/a	n/a	n/a
356.99657248497	0.3	reaching?	block_question_presentation	n/a	n/a	n/a	n/a
374.836558332443	2.10078454017639	open mouth?	block_question_presentation	n/a	n/a	n/a	n/a
374.836558332443	0.3	open mouth?	block_question_presentation	n/a	n/a	n/a	n/a
393.526862611771	2.08411049842834	argument?	block_question_presentation	n/a	n/a	n/a	n/a
393.526862611771	0.3	argument?	block_question_presentation	n/a	n/a	n/a	n/a
411.733652820587	2.10078263282776	helping?	block_question_presentation	n/a	n/a	n/a	n/a
411.733652820587	0.3	helping?	block_question_presentation	n/a	n/a	n/a	n/a
429.807059278488	2.10078358650208	both hands?	block_question_presentation	n/a	n/a	n/a	n/a
429.807059278488	0.3	both hands?	block_question_presentation	n/a	n/a	n/a	n/a
447.330260744095	2.10078358650208	healthy?	block_question_presentation	n/a	n/a	n/a	n/a
447.330260744095	0.3	healthy?	block_question_presentation	n/a	n/a	n/a	n/a
466.387367954254	2.08410954475403	pressing button?	block_question_presentation	n/a	n/a	n/a	n/a
466.387367954254	0.3	pressing button?	block_question_presentation	n/a	n/a	n/a	n/a
483.910568466187	2.10078310966492	looking at camera?	block_question_presentation	n/a	n/a	n/a	n/a
483.910568466187	0.3	looking at camera?	block_question_presentation	n/a	n/a	n/a	n/a
502.867637863159	2.10078406333923	self-doubt?	block_question_presentation	n/a	n/a	n/a	n/a
502.867637863159	0.3	self-doubt?	block_question_presentation	n/a	n/a	n/a	n/a
520.390839567184	2.10078406333923	self-protection?	block_question_presentation	n/a	n/a	n/a	n/a
520.390839567184	0.3	self-protection?	block_question_presentation	n/a	n/a	n/a	n/a
538.614303340912	2.1007821559906	lifting?	block_question_presentation	n/a	n/a	n/a	n/a
538.614303340912	0.3	lifting?	block_question_presentation	n/a	n/a	n/a	n/a
556.487634649277	2.10078358650208	looking to side?	block_question_presentation	n/a	n/a	n/a	n/a
556.487634649277	0.3	looking to side?	block_question_presentation	n/a	n/a	n/a	n/a
578.962682476044	2.1007833480835	proud?	block_question_presentation	n/a	n/a	n/a	n/a
578.962682476044	0.3	proud?	block_question_presentation	n/a	n/a	n/a	n/a
