onset	duration	run_type	trial_type	trial_index	cue	stimulusintensity	rating_value	rating_glmslabel	rating_value_fillna	rating_glmslabel_fillna	rating_mouseonset	rating_mousedur	stim_file	pain_onset_ttl1	pain_onset_ttl2	pain_onset_ttl3	pain_onset_ttl4	pain_stimulus_delivery_success	cognitive_correct_response	cognitive_participant_response	cognitive_response_accuracy
11.29	0.99	cognitive	cue	1	high_cue	n/a	n/a	n/a	n/a	n/a	n/a	n/a	n/a	n/a	n/a	n/a	n/a	n/a	n/a	n/a	n/a
14.21	1.72	cognitive	expectrating	1	high_cue	n/a	94.17	Very Strong	94.17	Very Strong	0.4	1.32	task-social/cue/runtype-cognitive/sch/h035.png	n/a	n/a	n/a	n/a	n/a	n/a	n/a	n/a
21.29	5.0	cognitive	stimulus	1	high_cue	high_stim	n/a	n/a	n/a	n/a	n/a	n/a	task-social/stim/runtype-cognitive/14_150.jpg	n/a	n/a	n/a	n/a	n/a	same	same	True
32.7	1.6	cognitive	outcomerating	1	high_cue	high_stim	79.25	Very Strong	79.25	Very Strong	0.5	1.1	task-social/outcomerating/task-cognitive_scale.png	n/a	n/a	n/a	n/a	n/a	n/a	n/a	n/a
44.29	1.0	cognitive	cue	2	low_cue	n/a	n/a	n/a	n/a	n/a	n/a	n/a	n/a	n/a	n/a	n/a	n/a	n/a	n/a	n/a	n/a
47.2	2.02	cognitive	expectrating	2	low_cue	n/a	31.09	Strong	31.09	Strong	0.42	1.6	task-social/cue/runtype-cognitive/scl/l047.png	n/a	n/a	n/a	n/a	n/a	n/a	n/a	n/a
61.39	5.0	cognitive	stimulus	2	low_cue	high_stim	n/a	n/a	n/a	n/a	n/a	n/a	task-social/stim/runtype-cognitive/14_150_R.jpg	n/a	n/a	n/a	n/a	n/a	diff	same	False
70.7	1.59	cognitive	outcomerating	2	low_cue	high_stim	37.01	Strong	37.01	Strong	0.42	1.17	task-social/outcomerating/task-cognitive_scale.png	n/a	n/a	n/a	n/a	n/a	n/a	n/a	n/a
80.7	0.98	cognitive	cue	3	high_cue	n/a	n/a	n/a	n/a	n/a	n/a	n/a	n/a	n/a	n/a	n/a	n/a	n/a	n/a	n/a	n/a
83.7	1.93	cognitive	expectrating	3	high_cue	n/a	51.04	Strong	51.04	Strong	0.58	1.35	task-social/cue/runtype-cognitive/sch/h010.png	n/a	n/a	n/a	n/a	n/a	n/a	n/a	n/a
92.0	5.0	cognitive	stimulus	3	high_cue	high_stim	n/a	n/a	n/a	n/a	n/a	n/a	task-social/stim/runtype-cognitive/35_150_R.jpg	n/a	n/a	n/a	n/a	n/a	diff	diff	True
100.59	1.74	cognitive	outcomerating	3	high_cue	high_stim	43.82	Strong	43.82	Strong	0.7	1.04	task-social/outcomerating/task-cognitive_scale.png	n/a	n/a	n/a	n/a	n/a	n/a	n/a	n/a
105.59	0.99	cognitive	cue	4	low_cue	n/a	n/a	n/a	n/a	n/a	n/a	n/a	n/a	n/a	n/a	n/a	n/a	n/a	n/a	n/a	n/a
107.39	1.82	cognitive	expectrating	4	low_cue	n/a	9.91	Weak	9.91	Weak	0.7	1.12	task-social/cue/runtype-cognitive/scl/l022.png	n/a	n/a	n/a	n/a	n/a	n/a	n/a	n/a
114.5	5.0	cognitive	stimulus	4	low_cue	med_stim	n/a	n/a	n/a	n/a	n/a	n/a	task-social/stim/runtype-cognitive/26_100_R.jpg	n/a	n/a	n/a	n/a	n/a	diff	same	False
126.1	3.03	cognitive	outcomerating	4	low_cue	med_stim	41.48	Strong	41.48	Strong	1.2	1.83	task-social/outcomerating/task-cognitive_scale.png	n/a	n/a	n/a	n/a	n/a	n/a	n/a	n/a
133.79	0.99	cognitive	cue	5	high_cue	n/a	n/a	n/a	n/a	n/a	n/a	n/a	n/a	n/a	n/a	n/a	n/a	n/a	n/a	n/a	n/a
135.6	1.45	cognitive	expectrating	5	high_cue	n/a	99.54	Strongest sensation of any kind	99.54	Strongest sensation of any kind	0.42	1.03	task-social/cue/runtype-cognitive/sch/h049.png	n/a	n/a	n/a	n/a	n/a	n/a	n/a	n/a
147.89	5.0	cognitive	stimulus	5	high_cue	low_stim	n/a	n/a	n/a	n/a	n/a	n/a	task-social/stim/runtype-cognitive/28_50.jpg	n/a	n/a	n/a	n/a	n/a	same	same	True
159.5	1.69	cognitive	outcomerating	5	high_cue	low_stim	23.38	Moderate	23.38	Moderate	0.45	1.24	task-social/outcomerating/task-cognitive_scale.png	n/a	n/a	n/a	n/a	n/a	n/a	n/a	n/a
169.5	0.98	cognitive	cue	6	high_cue	n/a	n/a	n/a	n/a	n/a	n/a	n/a	n/a	n/a	n/a	n/a	n/a	n/a	n/a	n/a	n/a
172.4	1.57	cognitive	expectrating	6	high_cue	n/a	85.87	Very Strong	85.87	Very Strong	0.4	1.17	task-social/cue/runtype-cognitive/sch/h034.png	n/a	n/a	n/a	n/a	n/a	n/a	n/a	n/a
186.89	5.0	cognitive	stimulus	6	high_cue	med_stim	n/a	n/a	n/a	n/a	n/a	n/a	task-social/stim/runtype-cognitive/22_100.jpg	n/a	n/a	n/a	n/a	n/a	same	n/a	False
196.69	1.54	cognitive	outcomerating	6	high_cue	med_stim	80.54	Very Strong	80.54	Very Strong	0.58	0.96	task-social/outcomerating/task-cognitive_scale.png	n/a	n/a	n/a	n/a	n/a	n/a	n/a	n/a
204.4	0.99	cognitive	cue	7	low_cue	n/a	n/a	n/a	n/a	n/a	n/a	n/a	n/a	n/a	n/a	n/a	n/a	n/a	n/a	n/a	n/a
207.3	2.25	cognitive	expectrating	7	low_cue	n/a	8.66	Weak	8.66	Weak	0.52	1.74	task-social/cue/runtype-cognitive/scl/l030.png	n/a	n/a	n/a	n/a	n/a	n/a	n/a	n/a
218.4	5.0	cognitive	stimulus	7	low_cue	high_stim	n/a	n/a	n/a	n/a	n/a	n/a	task-social/stim/runtype-cognitive/7_150.jpg	n/a	n/a	n/a	n/a	n/a	same	same	True
228.4	2.03	cognitive	outcomerating	7	low_cue	high_stim	26.67	Moderate	26.67	Moderate	1.03	1.0	task-social/outcomerating/task-cognitive_scale.png	n/a	n/a	n/a	n/a	n/a	n/a	n/a	n/a
234.29	0.99	cognitive	cue	8	high_cue	n/a	n/a	n/a	n/a	n/a	n/a	n/a	n/a	n/a	n/a	n/a	n/a	n/a	n/a	n/a	n/a
236.19	1.66	cognitive	expectrating	8	high_cue	n/a	85.87	Very Strong	85.87	Very Strong	0.53	1.12	task-social/cue/runtype-cognitive/sch/h045.png	n/a	n/a	n/a	n/a	n/a	n/a	n/a	n/a
244.89	5.0	cognitive	stimulus	8	high_cue	low_stim	n/a	n/a	n/a	n/a	n/a	n/a	task-social/stim/runtype-cognitive/22_50.jpg	n/a	n/a	n/a	n/a	n/a	same	same	True
255.7	2.17	cognitive	outcomerating	8	high_cue	low_stim	21.63	Moderate	21.63	Moderate	0.98	1.18	task-social/outcomerating/task-cognitive_scale.png	n/a	n/a	n/a	n/a	n/a	n/a	n/a	n/a
266.69	1.0	cognitive	cue	9	low_cue	n/a	n/a	n/a	n/a	n/a	n/a	n/a	n/a	n/a	n/a	n/a	n/a	n/a	n/a	n/a	n/a
268.5	1.57	cognitive	expectrating	9	low_cue	n/a	17.34	Moderate	17.34	Moderate	0.43	1.13	task-social/cue/runtype-cognitive/scl/l002.png	n/a	n/a	n/a	n/a	n/a	n/a	n/a	n/a
280.79	5.0	cognitive	stimulus	9	low_cue	low_stim	n/a	n/a	n/a	n/a	n/a	n/a	task-social/stim/runtype-cognitive/44_50.jpg	n/a	n/a	n/a	n/a	n/a	same	same	True
288.99	1.76	cognitive	outcomerating	9	low_cue	low_stim	12.69	Moderate	12.69	Moderate	0.73	1.02	task-social/outcomerating/task-cognitive_scale.png	n/a	n/a	n/a	n/a	n/a	n/a	n/a	n/a
294.8	0.98	cognitive	cue	10	high_cue	n/a	n/a	n/a	n/a	n/a	n/a	n/a	n/a	n/a	n/a	n/a	n/a	n/a	n/a	n/a	n/a
297.3	1.29	cognitive	expectrating	10	high_cue	n/a	100.65	Strongest sensation of any kind	100.65	Strongest sensation of any kind	0.38	0.9	task-social/cue/runtype-cognitive/sch/h008.png	n/a	n/a	n/a	n/a	n/a	n/a	n/a	n/a
307.9	5.0	cognitive	stimulus	10	high_cue	med_stim	n/a	n/a	n/a	n/a	n/a	n/a	task-social/stim/runtype-cognitive/7_100_R.jpg	n/a	n/a	n/a	n/a	n/a	diff	diff	True
317.2	1.93	cognitive	outcomerating	10	high_cue	med_stim	79.37	Very Strong	79.37	Very Strong	0.82	1.12	task-social/outcomerating/task-cognitive_scale.png	n/a	n/a	n/a	n/a	n/a	n/a	n/a	n/a
327.09	0.99	cognitive	cue	11	low_cue	n/a	n/a	n/a	n/a	n/a	n/a	n/a	n/a	n/a	n/a	n/a	n/a	n/a	n/a	n/a	n/a
329.99	1.46	cognitive	expectrating	11	low_cue	n/a	19.9	Moderate	19.9	Moderate	0.58	0.87	task-social/cue/runtype-cognitive/scl/l027.png	n/a	n/a	n/a	n/a	n/a	n/a	n/a	n/a
342.9	5.0	cognitive	stimulus	11	low_cue	med_stim	n/a	n/a	n/a	n/a	n/a	n/a	task-social/stim/runtype-cognitive/19_100.jpg	n/a	n/a	n/a	n/a	n/a	same	same	True
361.5	2.43	cognitive	outcomerating	11	low_cue	med_stim	21.37	Moderate	21.37	Moderate	0.43	2.0	task-social/outcomerating/task-cognitive_scale.png	n/a	n/a	n/a	n/a	n/a	n/a	n/a	n/a
366.49	0.99	cognitive	cue	12	low_cue	n/a	n/a	n/a	n/a	n/a	n/a	n/a	n/a	n/a	n/a	n/a	n/a	n/a	n/a	n/a	n/a
369.39	0.84	cognitive	expectrating	12	low_cue	n/a	10.14	Moderate	10.14	Moderate	0.17	0.68	task-social/cue/runtype-cognitive/scl/l014.png	n/a	n/a	n/a	n/a	n/a	n/a	n/a	n/a
376.19	5.0	cognitive	stimulus	12	low_cue	low_stim	n/a	n/a	n/a	n/a	n/a	n/a	task-social/stim/runtype-cognitive/28_50_R.jpg	n/a	n/a	n/a	n/a	n/a	diff	diff	True
394.8	2.45	cognitive	outcomerating	12	low_cue	low_stim	22.71	Moderate	22.71	Moderate	0.43	2.02	task-social/outcomerating/task-cognitive_scale.png	n/a	n/a	n/a	n/a	n/a	n/a	n/a	n/a
