onset	duration	subtask_type	question	event_type	participant_response	normative_response	response_accuracy	stim_file
5.024	1.635	tomspunt	reaching?	how_hand	yes	yes	correct	task-tomspunt/H_007.jpg
6.975	0.018	tomspunt	reaching?	how_hand	yes	no	incorrect	task-tomspunt/H_532.jpg
7.308	0.935	tomspunt	reaching?	how_hand	yes	yes	correct	task-tomspunt/H_474.jpg
8.559	1.436	tomspunt	reaching?	how_hand	no	no	correct	task-tomspunt/H_438.jpg
10.31	0.02	tomspunt	reaching?	how_hand	no	yes	incorrect	task-tomspunt/H_364.jpg
10.643	1.185	tomspunt	reaching?	how_hand	yes	yes	correct	task-tomspunt/H_006.jpg
12.144	1.001	tomspunt	reaching?	how_hand	yes	yes	correct	task-tomspunt/H_003.jpg
13.461	1.185	tomspunt	reaching?	how_hand	yes	no	incorrect	task-tomspunt/H_132.jpg
22.547	1.9	tomspunt	healthy?	why_hand	yes	yes	correct	task-tomspunt/H_627.jpg
24.598	0.018	tomspunt	healthy?	why_hand	yes	yes	correct	task-tomspunt/H_438.jpg
24.932	1.652	tomspunt	healthy?	why_hand	yes	yes	correct	task-tomspunt/H_364.jpg
26.899	1.361	tomspunt	healthy?	why_hand	yes	no	incorrect	task-tomspunt/H_130.jpg
28.566	0.018	tomspunt	healthy?	why_hand	yes	yes	correct	task-tomspunt/H_362.jpg
28.9	1.377	tomspunt	healthy?	why_hand	no	no	correct	task-tomspunt/H_007.jpg
30.584	0.942	tomspunt	healthy?	why_hand	yes	yes	correct	task-tomspunt/H_167.jpg
31.834	1.576	tomspunt	healthy?	why_hand	no	no	correct	task-tomspunt/H_019.jpg
41.655	0.772	tomspunt	admiring?	why_face	yes	yes	correct	task-tomspunt/F_779.jpg
42.738	0.938	tomspunt	admiring?	why_face	yes	yes	correct	task-tomspunt/F_593.jpg
43.989	1.438	tomspunt	admiring?	why_face	no	no	correct	task-tomspunt/F_110.jpg
45.739	1.237	tomspunt	admiring?	why_face	yes	yes	correct	task-tomspunt/F_590.jpg
47.29	1.136	tomspunt	admiring?	why_face	no	no	correct	task-tomspunt/F_692.jpg
48.741	0.852	tomspunt	admiring?	why_face	yes	yes	correct	task-tomspunt/F_759.jpg
49.908	0.802	tomspunt	admiring?	why_face	yes	yes	correct	task-tomspunt/F_648.jpg
51.025	0.851	tomspunt	admiring?	why_face	no	no	correct	task-tomspunt/F_129.jpg
60.628	0.801	tomspunt	smiling?	how_face	yes	yes	correct	task-tomspunt/F_139.jpg
61.745	0.019	tomspunt	smiling?	how_face	yes	no	incorrect	task-tomspunt/F_712.jpg
62.079	n/a	tomspunt	smiling?	how_face	n/a	yes	incorrect	task-tomspunt/F_695.jpg
64.113	1.369	tomspunt	smiling?	how_face	no	no	correct	task-tomspunt/F_758.jpg
65.797	0.712	tomspunt	smiling?	how_face	yes	yes	correct	task-tomspunt/F_083.jpg
66.814	0.663	tomspunt	smiling?	how_face	yes	yes	correct	task-tomspunt/F_759.jpg
67.781	0.912	tomspunt	smiling?	how_face	no	no	correct	task-tomspunt/F_412.jpg
68.998	1.062	tomspunt	smiling?	how_face	yes	yes	correct	task-tomspunt/F_593.jpg
78.152	1.042	tomspunt	lifting?	how_hand	no	yes	incorrect	task-tomspunt/H_136.jpg
79.502	1.707	tomspunt	lifting?	how_hand	no	no	correct	task-tomspunt/H_038.jpg
81.519	1.174	tomspunt	lifting?	how_hand	yes	yes	correct	task-tomspunt/H_189.jpg
83.003	1.023	tomspunt	lifting?	how_hand	no	no	correct	task-tomspunt/H_077.jpg
84.337	1.102	tomspunt	lifting?	how_hand	yes	yes	correct	task-tomspunt/H_443.jpg
85.754	0.952	tomspunt	lifting?	how_hand	no	no	correct	task-tomspunt/H_012.jpg
87.022	0.955	tomspunt	lifting?	how_hand	yes	yes	correct	task-tomspunt/H_362.jpg
88.289	0.921	tomspunt	lifting?	how_hand	yes	yes	correct	task-tomspunt/H_170.jpg
100.643	1.068	tomspunt	helping?	why_hand	yes	yes	correct	task-tomspunt/H_077.jpg
102.027	0.018	tomspunt	helping?	why_hand	yes	yes	correct	task-tomspunt/H_349.jpg
102.361	1.751	tomspunt	helping?	why_hand	yes	yes	correct	task-tomspunt/H_474.jpg
104.395	1.002	tomspunt	helping?	why_hand	no	yes	incorrect	task-tomspunt/H_024.jpg
105.712	0.965	tomspunt	helping?	why_hand	no	no	correct	task-tomspunt/H_012.jpg
106.979	1.151	tomspunt	helping?	why_hand	no	no	correct	task-tomspunt/H_159.jpg
108.446	1.051	tomspunt	helping?	why_hand	yes	yes	correct	task-tomspunt/H_111.jpg
109.813	1.402	tomspunt	helping?	why_hand	no	no	correct	task-tomspunt/H_091.jpg
118.517	1.36	tomspunt	proud?	why_face	yes	yes	correct	task-tomspunt/F_598.jpg
120.184	0.026	tomspunt	proud?	why_face	yes	no	incorrect	task-tomspunt/F_760.jpg
120.517	1.585	tomspunt	proud?	why_face	yes	yes	correct	task-tomspunt/F_582.jpg
122.418	0.875	tomspunt	proud?	why_face	no	no	correct	task-tomspunt/F_412.jpg
123.602	1.002	tomspunt	proud?	why_face	yes	yes	correct	task-tomspunt/F_083.jpg
124.919	1.391	tomspunt	proud?	why_face	no	no	correct	task-tomspunt/F_776.jpg
126.62	1.035	tomspunt	proud?	why_face	yes	yes	correct	task-tomspunt/F_618.jpg
127.97	1.489	tomspunt	proud?	why_face	yes	yes	correct	task-tomspunt/F_695.jpg
136.04	1.67	tomspunt	looking to side?	how_face	yes	yes	correct	task-tomspunt/F_590.jpg
138.024	0.802	tomspunt	looking to side?	how_face	yes	yes	correct	task-tomspunt/F_433.jpg
139.141	0.802	tomspunt	looking to side?	how_face	yes	yes	correct	task-tomspunt/F_716.jpg
140.258	1.035	tomspunt	looking to side?	how_face	yes	no	incorrect	task-tomspunt/F_779.jpg
141.609	1.285	tomspunt	looking to side?	how_face	yes	yes	correct	task-tomspunt/F_760.jpg
143.209	1.068	tomspunt	looking to side?	how_face	no	no	correct	task-tomspunt/F_111.jpg
144.593	1.385	tomspunt	looking to side?	how_face	no	yes	incorrect	task-tomspunt/F_110.jpg
146.294	1.019	tomspunt	looking to side?	how_face	no	no	correct	task-tomspunt/F_798.jpg
155.147	1.252	tomspunt	argument?	why_face	yes	yes	correct	task-tomspunt/F_716.jpg
156.714	1.252	tomspunt	argument?	why_face	no	no	correct	task-tomspunt/F_139.jpg
158.281	0.819	tomspunt	argument?	why_face	yes	yes	correct	task-tomspunt/F_712.jpg
159.415	0.795	tomspunt	argument?	why_face	no	no	correct	task-tomspunt/F_433.jpg
160.516	0.752	tomspunt	argument?	why_face	yes	yes	correct	task-tomspunt/F_403.jpg
161.583	0.744	tomspunt	argument?	why_face	yes	no	incorrect	task-tomspunt/F_844.jpg
162.633	0.726	tomspunt	argument?	why_face	yes	yes	correct	task-tomspunt/F_743.jpg
163.667	0.885	tomspunt	argument?	why_face	yes	yes	correct	task-tomspunt/F_758.jpg
172.987	0.622	tomspunt	open mouth?	how_face	yes	yes	correct	task-tomspunt/F_844.jpg
173.921	0.605	tomspunt	open mouth?	how_face	yes	yes	correct	task-tomspunt/F_776.jpg
174.838	0.756	tomspunt	open mouth?	how_face	no	no	correct	task-tomspunt/F_544.jpg
175.905	0.635	tomspunt	open mouth?	how_face	yes	yes	correct	task-tomspunt/F_692.jpg
176.855	0.788	tomspunt	open mouth?	how_face	no	no	correct	task-tomspunt/F_584.jpg
177.955	0.735	tomspunt	open mouth?	how_face	yes	yes	correct	task-tomspunt/F_403.jpg
179.006	0.754	tomspunt	open mouth?	how_face	yes	yes	correct	task-tomspunt/F_086.jpg
180.073	0.736	tomspunt	open mouth?	how_face	no	no	correct	task-tomspunt/F_648.jpg
190.877	0.768	tomspunt	pressing button?	how_hand	yes	yes	correct	task-tomspunt/H_019.jpg
191.961	0.018	tomspunt	pressing button?	how_hand	yes	no	incorrect	task-tomspunt/H_024.jpg
192.294	1.002	tomspunt	pressing button?	how_hand	no	no	correct	task-tomspunt/H_130.jpg
193.611	0.752	tomspunt	pressing button?	how_hand	yes	yes	correct	task-tomspunt/H_502.jpg
194.678	0.885	tomspunt	pressing button?	how_hand	no	no	correct	task-tomspunt/H_261.jpg
195.879	0.601	tomspunt	pressing button?	how_hand	yes	yes	correct	task-tomspunt/H_332.jpg
196.796	0.652	tomspunt	pressing button?	how_hand	yes	yes	correct	task-tomspunt/H_126.jpg
197.763	0.735	tomspunt	pressing button?	how_hand	yes	yes	correct	task-tomspunt/H_483.jpg
208.667	1.11	tomspunt	competing?	why_hand	yes	yes	correct	task-tomspunt/H_261.jpg
210.084	0.892	tomspunt	competing?	why_hand	no	no	correct	task-tomspunt/H_483.jpg
211.285	0.759	tomspunt	competing?	why_hand	yes	yes	correct	task-tomspunt/H_132.jpg
212.352	0.842	tomspunt	competing?	why_hand	no	no	correct	task-tomspunt/H_126.jpg
213.502	0.752	tomspunt	competing?	why_hand	yes	yes	correct	task-tomspunt/H_136.jpg
214.569	0.918	tomspunt	competing?	why_hand	no	no	correct	task-tomspunt/H_502.jpg
215.803	0.707	tomspunt	competing?	why_hand	yes	yes	correct	task-tomspunt/H_003.jpg
216.82	0.719	tomspunt	competing?	why_hand	yes	yes	correct	task-tomspunt/H_170.jpg
226.74	1.286	tomspunt	self-doubt?	why_face	yes	yes	correct	task-tomspunt/F_544.jpg
228.341	0.902	tomspunt	self-doubt?	why_face	no	no	correct	task-tomspunt/F_086.jpg
229.558	0.718	tomspunt	self-doubt?	why_face	yes	yes	correct	task-tomspunt/F_798.jpg
230.592	0.735	tomspunt	self-doubt?	why_face	yes	yes	correct	task-tomspunt/F_111.jpg
231.642	0.752	tomspunt	self-doubt?	why_face	no	no	correct	task-tomspunt/F_774.jpg
232.709	0.869	tomspunt	self-doubt?	why_face	yes	yes	correct	task-tomspunt/F_754.jpg
233.893	0.952	tomspunt	self-doubt?	why_face	no	no	correct	task-tomspunt/F_128.jpg
235.16	1.219	tomspunt	self-doubt?	why_face	yes	yes	correct	task-tomspunt/F_584.jpg
245.797	1.102	tomspunt	looking at camera?	how_face	yes	yes	correct	task-tomspunt/F_128.jpg
247.215	0.601	tomspunt	looking at camera?	how_face	yes	yes	correct	task-tomspunt/F_618.jpg
248.132	0.595	tomspunt	looking at camera?	how_face	yes	yes	correct	task-tomspunt/F_598.jpg
249.032	0.669	tomspunt	looking at camera?	how_face	no	no	correct	task-tomspunt/F_743.jpg
250.016	0.711	tomspunt	looking at camera?	how_face	yes	yes	correct	task-tomspunt/F_774.jpg
251.033	0.743	tomspunt	looking at camera?	how_face	yes	no	incorrect	task-tomspunt/F_582.jpg
252.083	0.927	tomspunt	looking at camera?	how_face	no	no	correct	task-tomspunt/F_754.jpg
253.317	0.759	tomspunt	looking at camera?	how_face	yes	yes	correct	task-tomspunt/F_129.jpg
264.588	1.138	tomspunt	both hands?	how_hand	yes	yes	correct	task-tomspunt/H_167.jpg
266.038	0.854	tomspunt	both hands?	how_hand	no	no	correct	task-tomspunt/H_091.jpg
267.205	0.837	tomspunt	both hands?	how_hand	no	no	correct	task-tomspunt/H_627.jpg
268.356	0.804	tomspunt	both hands?	how_hand	yes	yes	correct	task-tomspunt/H_027.jpg
269.473	0.987	tomspunt	both hands?	how_hand	yes	yes	correct	task-tomspunt/H_111.jpg
270.773	0.853	tomspunt	both hands?	how_hand	no	no	correct	task-tomspunt/H_159.jpg
271.94	0.936	tomspunt	both hands?	how_hand	yes	yes	correct	task-tomspunt/H_581.jpg
273.191	0.819	tomspunt	both hands?	how_hand	yes	yes	correct	task-tomspunt/H_349.jpg
283.378	0.835	tomspunt	self-protection?	why_hand	yes	yes	correct	task-tomspunt/H_443.jpg
284.529	1.048	tomspunt	self-protection?	why_hand	no	no	correct	task-tomspunt/H_006.jpg
285.879	0.768	tomspunt	self-protection?	why_hand	yes	yes	correct	task-tomspunt/H_581.jpg
286.963	0.918	tomspunt	self-protection?	why_hand	no	no	correct	task-tomspunt/H_532.jpg
288.197	1.152	tomspunt	self-protection?	why_hand	yes	yes	correct	task-tomspunt/H_027.jpg
289.664	0.868	tomspunt	self-protection?	why_hand	yes	yes	correct	task-tomspunt/H_038.jpg
290.848	0.735	tomspunt	self-protection?	why_hand	no	no	correct	task-tomspunt/H_332.jpg
291.898	1.379	tomspunt	self-protection?	why_hand	yes	yes	correct	task-tomspunt/H_189.jpg
304.853	0.74	tomspunt	smiling?	how_face	yes	yes	correct	task-tomspunt/F_759.jpg
305.903	0.756	tomspunt	smiling?	how_face	no	no	correct	task-tomspunt/F_412.jpg
306.97	0.69	tomspunt	smiling?	how_face	yes	yes	correct	task-tomspunt/F_593.jpg
307.971	0.022	tomspunt	smiling?	how_face	yes	no	incorrect	task-tomspunt/F_712.jpg
308.304	1.085	tomspunt	smiling?	how_face	yes	yes	correct	task-tomspunt/F_695.jpg
309.705	0.971	tomspunt	smiling?	how_face	yes	yes	correct	task-tomspunt/F_139.jpg
310.988	0.655	tomspunt	smiling?	how_face	yes	yes	correct	task-tomspunt/F_083.jpg
311.955	0.738	tomspunt	smiling?	how_face	no	no	correct	task-tomspunt/F_758.jpg
322.643	0.818	tomspunt	admiring?	why_face	yes	yes	correct	task-tomspunt/F_593.jpg
323.776	1.102	tomspunt	admiring?	why_face	no	no	correct	task-tomspunt/F_129.jpg
325.194	0.952	tomspunt	admiring?	why_face	yes	yes	correct	task-tomspunt/F_759.jpg
326.461	0.985	tomspunt	admiring?	why_face	no	no	correct	task-tomspunt/F_692.jpg
327.761	0.702	tomspunt	admiring?	why_face	yes	yes	correct	task-tomspunt/F_779.jpg
328.778	0.718	tomspunt	admiring?	why_face	yes	yes	correct	task-tomspunt/F_590.jpg
329.812	0.698	tomspunt	admiring?	why_face	yes	yes	correct	task-tomspunt/F_648.jpg
330.812	0.781	tomspunt	admiring?	why_face	no	no	correct	task-tomspunt/F_110.jpg
340.533	0.777	tomspunt	competing?	why_hand	yes	yes	correct	task-tomspunt/H_261.jpg
341.616	0.635	tomspunt	competing?	why_hand	yes	yes	correct	task-tomspunt/H_170.jpg
342.567	0.81	tomspunt	competing?	why_hand	no	no	correct	task-tomspunt/H_483.jpg
343.684	0.026	tomspunt	competing?	why_hand	no	yes	incorrect	task-tomspunt/H_132.jpg
344.017	1.359	tomspunt	competing?	why_hand	yes	yes	correct	task-tomspunt/H_136.jpg
345.685	0.858	tomspunt	competing?	why_hand	yes	yes	correct	task-tomspunt/H_003.jpg
346.852	1.241	tomspunt	competing?	why_hand	no	no	correct	task-tomspunt/H_126.jpg
348.402	0.969	tomspunt	competing?	why_hand	no	no	correct	task-tomspunt/H_502.jpg
362.007	0.669	tomspunt	reaching?	how_hand	yes	yes	correct	task-tomspunt/H_003.jpg
362.991	0.919	tomspunt	reaching?	how_hand	yes	yes	correct	task-tomspunt/H_364.jpg
364.225	0.851	tomspunt	reaching?	how_hand	no	no	correct	task-tomspunt/H_532.jpg
365.392	0.801	tomspunt	reaching?	how_hand	yes	yes	correct	task-tomspunt/H_006.jpg
366.509	1.723	tomspunt	reaching?	how_hand	no	no	correct	task-tomspunt/H_438.jpg
368.543	0.918	tomspunt	reaching?	how_hand	yes	yes	correct	task-tomspunt/H_007.jpg
369.777	0.952	tomspunt	reaching?	how_hand	yes	yes	correct	task-tomspunt/H_474.jpg
371.044	1.202	tomspunt	reaching?	how_hand	no	no	correct	task-tomspunt/H_132.jpg
379.847	0.879	tomspunt	open mouth?	how_face	yes	yes	correct	task-tomspunt/F_403.jpg
381.031	0.845	tomspunt	open mouth?	how_face	no	no	correct	task-tomspunt/F_648.jpg
382.182	0.685	tomspunt	open mouth?	how_face	yes	yes	correct	task-tomspunt/F_776.jpg
383.182	1.044	tomspunt	open mouth?	how_face	no	no	correct	task-tomspunt/F_584.jpg
384.532	0.702	tomspunt	open mouth?	how_face	yes	yes	correct	task-tomspunt/F_844.jpg
385.55	0.868	tomspunt	open mouth?	how_face	yes	yes	correct	task-tomspunt/F_692.jpg
386.733	0.81	tomspunt	open mouth?	how_face	yes	yes	correct	task-tomspunt/F_086.jpg
387.85	0.876	tomspunt	open mouth?	how_face	no	no	correct	task-tomspunt/F_544.jpg
398.521	1.102	tomspunt	argument?	why_face	yes	yes	correct	task-tomspunt/F_403.jpg
399.938	0.022	tomspunt	argument?	why_face	yes	no	incorrect	task-tomspunt/F_844.jpg
400.272	n/a	tomspunt	argument?	why_face	n/a	yes	incorrect	task-tomspunt/F_712.jpg
402.306	1.021	tomspunt	argument?	why_face	yes	yes	correct	task-tomspunt/F_758.jpg
403.64	0.785	tomspunt	argument?	why_face	no	no	correct	task-tomspunt/F_433.jpg
404.74	0.77	tomspunt	argument?	why_face	no	yes	incorrect	task-tomspunt/F_716.jpg
405.824	1.119	tomspunt	argument?	why_face	no	no	correct	task-tomspunt/F_139.jpg
407.258	0.718	tomspunt	argument?	why_face	yes	yes	correct	task-tomspunt/F_743.jpg
416.744	n/a	tomspunt	helping?	why_hand	n/a	yes	incorrect	task-tomspunt/H_024.jpg
418.779	0.885	tomspunt	helping?	why_hand	yes	yes	correct	task-tomspunt/H_349.jpg
419.979	0.997	tomspunt	helping?	why_hand	yes	yes	correct	task-tomspunt/H_077.jpg
421.28	0.797	tomspunt	helping?	why_hand	yes	yes	correct	task-tomspunt/H_474.jpg
422.38	0.864	tomspunt	helping?	why_hand	no	no	correct	task-tomspunt/H_091.jpg
423.547	0.912	tomspunt	helping?	why_hand	no	no	correct	task-tomspunt/H_159.jpg
424.764	0.835	tomspunt	helping?	why_hand	yes	yes	correct	task-tomspunt/H_111.jpg
425.915	0.885	tomspunt	helping?	why_hand	no	no	correct	task-tomspunt/H_012.jpg
434.818	0.792	tomspunt	both hands?	how_hand	yes	yes	correct	task-tomspunt/H_111.jpg
435.918	0.641	tomspunt	both hands?	how_hand	yes	yes	correct	task-tomspunt/H_027.jpg
436.869	0.691	tomspunt	both hands?	how_hand	no	no	correct	task-tomspunt/H_091.jpg
437.869	0.741	tomspunt	both hands?	how_hand	yes	yes	correct	task-tomspunt/H_167.jpg
438.919	0.773	tomspunt	both hands?	how_hand	yes	yes	correct	task-tomspunt/H_581.jpg
440.003	0.768	tomspunt	both hands?	how_hand	no	no	correct	task-tomspunt/H_159.jpg
441.087	0.706	tomspunt	both hands?	how_hand	yes	yes	correct	task-tomspunt/H_349.jpg
442.104	0.756	tomspunt	both hands?	how_hand	no	no	correct	task-tomspunt/H_627.jpg
452.341	0.819	tomspunt	healthy?	why_hand	yes	yes	correct	task-tomspunt/H_438.jpg
453.475	0.802	tomspunt	healthy?	why_hand	yes	yes	correct	task-tomspunt/H_364.jpg
454.592	0.985	tomspunt	healthy?	why_hand	yes	yes	correct	task-tomspunt/H_362.jpg
455.892	0.918	tomspunt	healthy?	why_hand	no	no	correct	task-tomspunt/H_019.jpg
457.126	0.835	tomspunt	healthy?	why_hand	yes	yes	correct	task-tomspunt/H_167.jpg
458.277	0.951	tomspunt	healthy?	why_hand	no	no	correct	task-tomspunt/H_007.jpg
459.544	0.933	tomspunt	healthy?	why_hand	yes	yes	correct	task-tomspunt/H_627.jpg
460.778	0.852	tomspunt	healthy?	why_hand	no	no	correct	task-tomspunt/H_130.jpg
471.398	0.852	tomspunt	pressing button?	how_hand	yes	yes	correct	task-tomspunt/H_126.jpg
472.565	0.695	tomspunt	pressing button?	how_hand	no	no	correct	task-tomspunt/H_130.jpg
473.566	0.685	tomspunt	pressing button?	how_hand	yes	yes	correct	task-tomspunt/H_483.jpg
474.566	0.661	tomspunt	pressing button?	how_hand	no	no	correct	task-tomspunt/H_024.jpg
475.533	0.643	tomspunt	pressing button?	how_hand	yes	yes	correct	task-tomspunt/H_332.jpg
476.483	0.676	tomspunt	pressing button?	how_hand	yes	yes	correct	task-tomspunt/H_019.jpg
477.467	0.736	tomspunt	pressing button?	how_hand	no	no	correct	task-tomspunt/H_261.jpg
478.518	0.635	tomspunt	pressing button?	how_hand	yes	yes	correct	task-tomspunt/H_502.jpg
488.921	0.721	tomspunt	looking at camera?	how_face	yes	yes	correct	task-tomspunt/F_618.jpg
489.955	1.038	tomspunt	looking at camera?	how_face	no	no	correct	task-tomspunt/F_754.jpg
491.306	0.671	tomspunt	looking at camera?	how_face	yes	yes	correct	task-tomspunt/F_129.jpg
492.289	0.704	tomspunt	looking at camera?	how_face	yes	yes	correct	task-tomspunt/F_598.jpg
493.306	0.837	tomspunt	looking at camera?	how_face	yes	yes	correct	task-tomspunt/F_128.jpg
494.457	0.719	tomspunt	looking at camera?	how_face	yes	no	incorrect	task-tomspunt/F_582.jpg
495.491	0.82	tomspunt	looking at camera?	how_face	yes	yes	correct	task-tomspunt/F_774.jpg
496.624	0.802	tomspunt	looking at camera?	how_face	no	no	correct	task-tomspunt/F_743.jpg
507.878	1.285	tomspunt	self-doubt?	why_face	yes	yes	correct	task-tomspunt/F_798.jpg
509.479	1.135	tomspunt	self-doubt?	why_face	yes	no	incorrect	task-tomspunt/F_086.jpg
510.93	1.035	tomspunt	self-doubt?	why_face	yes	yes	correct	task-tomspunt/F_544.jpg
512.28	0.802	tomspunt	self-doubt?	why_face	yes	yes	correct	task-tomspunt/F_754.jpg
513.397	0.912	tomspunt	self-doubt?	why_face	yes	yes	correct	task-tomspunt/F_111.jpg
514.614	0.912	tomspunt	self-doubt?	why_face	yes	yes	correct	task-tomspunt/F_584.jpg
515.831	0.901	tomspunt	self-doubt?	why_face	no	no	correct	task-tomspunt/F_128.jpg
517.049	0.802	tomspunt	self-doubt?	why_face	no	no	correct	task-tomspunt/F_774.jpg
525.402	0.641	tomspunt	self-protection?	why_hand	yes	yes	correct	task-tomspunt/H_581.jpg
526.352	0.607	tomspunt	self-protection?	why_hand	yes	yes	correct	task-tomspunt/H_443.jpg
527.269	0.868	tomspunt	self-protection?	why_hand	no	no	correct	task-tomspunt/H_332.jpg
528.453	0.624	tomspunt	self-protection?	why_hand	yes	yes	correct	task-tomspunt/H_027.jpg
529.386	0.868	tomspunt	self-protection?	why_hand	no	no	correct	task-tomspunt/H_532.jpg
530.57	0.801	tomspunt	self-protection?	why_hand	yes	yes	correct	task-tomspunt/H_189.jpg
531.687	0.922	tomspunt	self-protection?	why_hand	no	no	correct	task-tomspunt/H_006.jpg
532.921	0.705	tomspunt	self-protection?	why_hand	yes	yes	correct	task-tomspunt/H_038.jpg
543.625	0.918	tomspunt	lifting?	how_hand	yes	yes	correct	task-tomspunt/H_443.jpg
544.859	0.868	tomspunt	lifting?	how_hand	no	no	correct	task-tomspunt/H_038.jpg
546.043	0.751	tomspunt	lifting?	how_hand	yes	yes	correct	task-tomspunt/H_136.jpg
547.11	0.835	tomspunt	lifting?	how_hand	no	no	correct	task-tomspunt/H_012.jpg
548.26	0.718	tomspunt	lifting?	how_hand	yes	yes	correct	task-tomspunt/H_362.jpg
549.294	0.818	tomspunt	lifting?	how_hand	yes	yes	correct	task-tomspunt/H_189.jpg
550.428	0.718	tomspunt	lifting?	how_hand	yes	yes	correct	task-tomspunt/H_170.jpg
551.461	0.785	tomspunt	lifting?	how_hand	no	no	correct	task-tomspunt/H_077.jpg
561.498	0.601	tomspunt	looking to side?	how_face	yes	yes	correct	task-tomspunt/F_716.jpg
562.415	0.927	tomspunt	looking to side?	how_face	no	no	correct	task-tomspunt/F_798.jpg
563.649	0.801	tomspunt	looking to side?	how_face	yes	yes	correct	task-tomspunt/F_760.jpg
564.766	1.094	tomspunt	looking to side?	how_face	no	yes	incorrect	task-tomspunt/F_110.jpg
566.167	0.943	tomspunt	looking to side?	how_face	yes	no	incorrect	task-tomspunt/F_779.jpg
567.417	1.475	tomspunt	looking to side?	how_face	yes	yes	correct	task-tomspunt/F_590.jpg
569.201	0.858	tomspunt	looking to side?	how_face	no	no	correct	task-tomspunt/F_111.jpg
570.368	0.808	tomspunt	looking to side?	how_face	yes	yes	correct	task-tomspunt/F_433.jpg
583.974	0.836	tomspunt	proud?	why_face	yes	yes	correct	task-tomspunt/F_083.jpg
585.124	0.019	tomspunt	proud?	why_face	yes	yes	correct	task-tomspunt/F_582.jpg
585.457	1.959	tomspunt	proud?	why_face	yes	yes	correct	task-tomspunt/F_618.jpg
587.491	0.019	tomspunt	proud?	why_face	yes	no	incorrect	task-tomspunt/F_776.jpg
587.825	1.368	tomspunt	proud?	why_face	yes	yes	correct	task-tomspunt/F_598.jpg
589.509	1.052	tomspunt	proud?	why_face	no	no	correct	task-tomspunt/F_760.jpg
590.876	0.902	tomspunt	proud?	why_face	no	no	correct	task-tomspunt/F_412.jpg
592.093	1.335	tomspunt	proud?	why_face	yes	yes	correct	task-tomspunt/F_695.jpg
0.08	2.034	tomspunt	reaching?	block_question_presentation	n/a	n/a	n/a	n/a
0.08	0.3	tomspunt	reaching?	block_question_presentation	n/a	n/a	n/a	n/a
17.537	2.101	tomspunt	healthy?	block_question_presentation	n/a	n/a	n/a	n/a
17.537	0.3	tomspunt	healthy?	block_question_presentation	n/a	n/a	n/a	n/a
36.644	2.101	tomspunt	admiring?	block_question_presentation	n/a	n/a	n/a	n/a
36.644	0.3	tomspunt	admiring?	block_question_presentation	n/a	n/a	n/a	n/a
55.618	2.101	tomspunt	smiling?	block_question_presentation	n/a	n/a	n/a	n/a
55.618	0.3	tomspunt	smiling?	block_question_presentation	n/a	n/a	n/a	n/a
73.141	2.101	tomspunt	lifting?	block_question_presentation	n/a	n/a	n/a	n/a
73.141	0.3	tomspunt	lifting?	block_question_presentation	n/a	n/a	n/a	n/a
95.632	2.101	tomspunt	helping?	block_question_presentation	n/a	n/a	n/a	n/a
95.632	0.3	tomspunt	helping?	block_question_presentation	n/a	n/a	n/a	n/a
113.506	2.101	tomspunt	proud?	block_question_presentation	n/a	n/a	n/a	n/a
113.506	0.3	tomspunt	proud?	block_question_presentation	n/a	n/a	n/a	n/a
131.029	2.101	tomspunt	looking to side?	block_question_presentation	n/a	n/a	n/a	n/a
131.029	0.3	tomspunt	looking to side?	block_question_presentation	n/a	n/a	n/a	n/a
150.136	2.101	tomspunt	argument?	block_question_presentation	n/a	n/a	n/a	n/a
150.136	0.3	tomspunt	argument?	block_question_presentation	n/a	n/a	n/a	n/a
167.976	2.101	tomspunt	open mouth?	block_question_presentation	n/a	n/a	n/a	n/a
167.976	0.3	tomspunt	open mouth?	block_question_presentation	n/a	n/a	n/a	n/a
185.866	2.101	tomspunt	pressing button?	block_question_presentation	n/a	n/a	n/a	n/a
185.866	0.3	tomspunt	pressing button?	block_question_presentation	n/a	n/a	n/a	n/a
203.656	2.101	tomspunt	competing?	block_question_presentation	n/a	n/a	n/a	n/a
203.656	0.3	tomspunt	competing?	block_question_presentation	n/a	n/a	n/a	n/a
221.729	2.101	tomspunt	self-doubt?	block_question_presentation	n/a	n/a	n/a	n/a
221.729	0.3	tomspunt	self-doubt?	block_question_presentation	n/a	n/a	n/a	n/a
240.787	2.101	tomspunt	looking at camera?	block_question_presentation	n/a	n/a	n/a	n/a
240.787	0.3	tomspunt	looking at camera?	block_question_presentation	n/a	n/a	n/a	n/a
259.577	2.101	tomspunt	both hands?	block_question_presentation	n/a	n/a	n/a	n/a
259.577	0.3	tomspunt	both hands?	block_question_presentation	n/a	n/a	n/a	n/a
278.367	2.101	tomspunt	self-protection?	block_question_presentation	n/a	n/a	n/a	n/a
278.367	0.3	tomspunt	self-protection?	block_question_presentation	n/a	n/a	n/a	n/a
299.842	2.101	tomspunt	smiling?	block_question_presentation	n/a	n/a	n/a	n/a
299.842	0.3	tomspunt	smiling?	block_question_presentation	n/a	n/a	n/a	n/a
317.632	2.101	tomspunt	admiring?	block_question_presentation	n/a	n/a	n/a	n/a
317.632	0.3	tomspunt	admiring?	block_question_presentation	n/a	n/a	n/a	n/a
335.522	2.101	tomspunt	competing?	block_question_presentation	n/a	n/a	n/a	n/a
335.522	0.3	tomspunt	competing?	block_question_presentation	n/a	n/a	n/a	n/a
356.997	2.101	tomspunt	reaching?	block_question_presentation	n/a	n/a	n/a	n/a
356.997	0.3	tomspunt	reaching?	block_question_presentation	n/a	n/a	n/a	n/a
374.837	2.101	tomspunt	open mouth?	block_question_presentation	n/a	n/a	n/a	n/a
374.837	0.3	tomspunt	open mouth?	block_question_presentation	n/a	n/a	n/a	n/a
393.527	2.084	tomspunt	argument?	block_question_presentation	n/a	n/a	n/a	n/a
393.527	0.3	tomspunt	argument?	block_question_presentation	n/a	n/a	n/a	n/a
411.734	2.101	tomspunt	helping?	block_question_presentation	n/a	n/a	n/a	n/a
411.734	0.3	tomspunt	helping?	block_question_presentation	n/a	n/a	n/a	n/a
429.807	2.101	tomspunt	both hands?	block_question_presentation	n/a	n/a	n/a	n/a
429.807	0.3	tomspunt	both hands?	block_question_presentation	n/a	n/a	n/a	n/a
447.33	2.101	tomspunt	healthy?	block_question_presentation	n/a	n/a	n/a	n/a
447.33	0.3	tomspunt	healthy?	block_question_presentation	n/a	n/a	n/a	n/a
466.387	2.084	tomspunt	pressing button?	block_question_presentation	n/a	n/a	n/a	n/a
466.387	0.3	tomspunt	pressing button?	block_question_presentation	n/a	n/a	n/a	n/a
483.911	2.101	tomspunt	looking at camera?	block_question_presentation	n/a	n/a	n/a	n/a
483.911	0.3	tomspunt	looking at camera?	block_question_presentation	n/a	n/a	n/a	n/a
502.868	2.101	tomspunt	self-doubt?	block_question_presentation	n/a	n/a	n/a	n/a
502.868	0.3	tomspunt	self-doubt?	block_question_presentation	n/a	n/a	n/a	n/a
520.391	2.101	tomspunt	self-protection?	block_question_presentation	n/a	n/a	n/a	n/a
520.391	0.3	tomspunt	self-protection?	block_question_presentation	n/a	n/a	n/a	n/a
538.614	2.101	tomspunt	lifting?	block_question_presentation	n/a	n/a	n/a	n/a
538.614	0.3	tomspunt	lifting?	block_question_presentation	n/a	n/a	n/a	n/a
556.488	2.101	tomspunt	looking to side?	block_question_presentation	n/a	n/a	n/a	n/a
556.488	0.3	tomspunt	looking to side?	block_question_presentation	n/a	n/a	n/a	n/a
578.963	2.101	tomspunt	proud?	block_question_presentation	n/a	n/a	n/a	n/a
578.963	0.3	tomspunt	proud?	block_question_presentation	n/a	n/a	n/a	n/a
