onset	duration	trial_type	response_x	response_y	situation	context	modality	stim_file_TODO
7.836	15.341	narrative_presentation	n/a	n/a	Necessity of sacrificing loved ones	town	Audio	task-narratives/Narrative8Situation1.mp3
23.177	3.918	rating_feeling	733	467	Necessity of sacrificing loved ones	town	Audio	n/a
23.794	3.302	feeling_mouse_trajectory	733	467	Necessity of sacrificing loved ones	town	Audio	n/a
27.218	3.75	rating_expectation	663	474	Necessity of sacrificing loved ones	town	Audio	n/a
28.218	2.75	expectation_mouse_trajectory	663	474	Necessity of sacrificing loved ones	town	Audio	n/a
34.422	8.791	narrative_presentation	n/a	n/a	Abduction	town	Audio	task-narratives/Narrative8Situation2.mp3
43.213	3.183	rating_feeling	567	412	Abduction	town	Audio	n/a
43.613	2.783	feeling_mouse_trajectory	567	412	Abduction	town	Audio	n/a
47.242	0.026	rating_expectation	960	707	Abduction	town	Audio	n/a
47.575	-0.307	expectation_mouse_trajectory	960	707	Abduction	town	Audio	n/a
55.314	22.148	narrative_presentation	n/a	n/a	Adultery	town	Audio	task-narratives/Narrative8Situation3.mp3
77.462	3.085	rating_feeling	1095	512	Adultery	town	Audio	n/a
77.862	2.685	feeling_mouse_trajectory	1095	512	Adultery	town	Audio	n/a
81.488	1.984	rating_expectation	831	552	Adultery	town	Audio	n/a
82.022	1.451	expectation_mouse_trajectory	831	552	Adultery	town	Audio	n/a
88.56	12.617	narrative_presentation	n/a	n/a	Obtaining	city	Audio	task-narratives/Narrative8Situation4.mp3
101.178	3.989	rating_feeling	1186	485	Obtaining	city	Audio	n/a
101.644	3.523	feeling_mouse_trajectory	1186	485	Obtaining	city	Audio	n/a
105.2	0.021	rating_expectation	960	707	Obtaining	city	Audio	n/a
105.25	-0.029	expectation_mouse_trajectory	960	707	Obtaining	city	Audio	n/a
111.274	6.625	narrative_presentation	n/a	n/a	Supplication	city	Audio	task-narratives/Narrative8Situation5.mp3
117.899	3.4	rating_feeling	1215	481	Supplication	city	Audio	n/a
118.732	2.567	feeling_mouse_trajectory	1215	481	Supplication	city	Audio	n/a
121.921	2.1	rating_expectation	1182	520	Supplication	city	Audio	n/a
122.755	1.267	expectation_mouse_trajectory	1182	520	Supplication	city	Audio	n/a
128.007	5.989	narrative_presentation	n/a	n/a	Rivalry of kin	city	Audio	task-narratives/Narrative8Situation6.mp3
133.996	3.2	rating_feeling	1170	559	Rivalry of kin	city	Audio	n/a
134.996	2.2	feeling_mouse_trajectory	1170	559	Rivalry of kin	city	Audio	n/a
138.034	2.85	rating_expectation	1083	487	Rivalry of kin	city	Audio	n/a
139.034	1.85	expectation_mouse_trajectory	1083	487	Rivalry of kin	city	Audio	n/a
145.113	10.779	narrative_presentation	n/a	n/a	Recovery of a lost one	beach	Audio	task-narratives/Narrative8Situation7.mp3
155.893	3.917	rating_feeling	705	441	Recovery of a lost one	beach	Audio	n/a
156.426	3.383	feeling_mouse_trajectory	705	441	Recovery of a lost one	beach	Audio	n/a
159.917	2.967	rating_expectation	714	471	Recovery of a lost one	beach	Audio	n/a
160.483	2.4	expectation_mouse_trajectory	714	471	Recovery of a lost one	beach	Audio	n/a
166.972	11.277	narrative_presentation	n/a	n/a	Rivalry of superior versus inferior	beach	Audio	task-narratives/Narrative8Situation8.mp3
178.249	3.55	rating_feeling	642	417	Rivalry of superior versus inferior	beach	Audio	n/a
178.616	3.183	feeling_mouse_trajectory	642	417	Rivalry of superior versus inferior	beach	Audio	n/a
182.284	3.833	rating_expectation	599	366	Rivalry of superior versus inferior	beach	Audio	n/a
182.317	3.8	expectation_mouse_trajectory	599	366	Rivalry of superior versus inferior	beach	Audio	n/a
189.364	10.112	narrative_presentation	n/a	n/a	Slaying of kin unrecognized	beach	Audio	task-narratives/Narrative8Situation9.mp3
199.476	3.5	rating_feeling	1239	469	Slaying of kin unrecognized	beach	Audio	n/a
199.809	3.167	feeling_mouse_trajectory	1239	469	Slaying of kin unrecognized	beach	Audio	n/a
203.5	2.05	rating_expectation	1270	404	Slaying of kin unrecognized	beach	Audio	n/a
204.084	1.467	expectation_mouse_trajectory	1270	404	Slaying of kin unrecognized	beach	Audio	n/a
209.571	54.277	narrative_presentation	n/a	n/a	Deliverance	prison	Audio	task-narratives/Narrative7Situation1.mp3
263.847	3.867	rating_feeling	679	469	Deliverance	prison	Audio	n/a
264.664	3.05	feeling_mouse_trajectory	679	469	Deliverance	prison	Audio	n/a
267.89	2.8	rating_expectation	1075	511	Deliverance	prison	Audio	n/a
267.923	2.767	expectation_mouse_trajectory	1075	511	Deliverance	prison	Audio	n/a
274.945	5.948	narrative_presentation	n/a	n/a	Adultery	prison	Audio	task-narratives/Narrative7Situation2.mp3
280.893	3.4	rating_feeling	1111	515	Adultery	prison	Audio	n/a
281.226	3.067	feeling_mouse_trajectory	1111	515	Adultery	prison	Audio	n/a
284.934	3.983	rating_expectation	1073	524	Adultery	prison	Audio	n/a
285.617	3.3	expectation_mouse_trajectory	1073	524	Adultery	prison	Audio	n/a
297.004	7.442	narrative_presentation	n/a	n/a	Pursuit	prison	Audio	task-narratives/Narrative7Situation3.mp3
304.446	3.333	rating_feeling	800	598	Pursuit	prison	Audio	n/a
305.163	2.617	feeling_mouse_trajectory	800	598	Pursuit	prison	Audio	n/a
308.472	3.167	rating_expectation	719	522	Pursuit	prison	Audio	n/a
309.122	2.517	expectation_mouse_trajectory	719	522	Pursuit	prison	Audio	n/a
315.527	11.483	narrative_presentation	n/a	n/a	Conflict with a god	park	Audio	task-narratives/Narrative7Situation4.mp3
327.01	3.967	rating_feeling	829	569	Conflict with a god	park	Audio	n/a
328.71	2.267	feeling_mouse_trajectory	829	569	Conflict with a god	park	Audio	n/a
331.05	3.95	rating_expectation	1114	553	Conflict with a god	park	Audio	n/a
331.117	3.883	expectation_mouse_trajectory	1114	553	Conflict with a god	park	Audio	n/a
340.104	7.978	narrative_presentation	n/a	n/a	Recovery of a lost one	park	Audio	task-narratives/Narrative7Situation5.mp3
348.081	3.45	rating_feeling	1142	566	Recovery of a lost one	park	Audio	n/a
349.498	2.033	feeling_mouse_trajectory	1142	566	Recovery of a lost one	park	Audio	n/a
352.105	3.883	rating_expectation	1060	591	Recovery of a lost one	park	Audio	n/a
352.388	3.6	expectation_mouse_trajectory	1060	591	Recovery of a lost one	park	Audio	n/a
359.16	8.791	narrative_presentation	n/a	n/a	Supplication	park	Audio	task-narratives/Narrative7Situation6.mp3
367.951	3.983	rating_feeling	924	532	Supplication	park	Audio	n/a
369.634	2.3	feeling_mouse_trajectory	924	532	Supplication	park	Audio	n/a
371.984	3.967	rating_expectation	777	563	Supplication	park	Audio	n/a
372.051	3.9	expectation_mouse_trajectory	777	563	Supplication	park	Audio	n/a
381.053	16.661	narrative_presentation	n/a	n/a	Involuntary crimes of love	hospital	Audio	task-narratives/Narrative7Situation7.mp3
397.713	3.717	rating_feeling	671	483	Involuntary crimes of love	hospital	Audio	n/a
397.98	3.45	feeling_mouse_trajectory	671	483	Involuntary crimes of love	hospital	Audio	n/a
401.74	3.1	rating_expectation	813	593	Involuntary crimes of love	hospital	Audio	n/a
402.306	2.533	expectation_mouse_trajectory	813	593	Involuntary crimes of love	hospital	Audio	n/a
407.795	8.784	narrative_presentation	n/a	n/a	An enemy loved	hospital	Audio	task-narratives/Narrative7Situation8.mp3
416.579	3.933	rating_feeling	807	598	An enemy loved	hospital	Audio	n/a
417.562	2.95	feeling_mouse_trajectory	807	598	An enemy loved	hospital	Audio	n/a
420.6	3.1	rating_expectation	719	519	An enemy loved	hospital	Audio	n/a
421.517	2.183	expectation_mouse_trajectory	719	519	An enemy loved	hospital	Audio	n/a
426.652	7.977	narrative_presentation	n/a	n/a	Ambition	hospital	Audio	task-narratives/Narrative7Situation9.mp3
434.629	3.3	rating_feeling	824	594	Ambition	hospital	Audio	n/a
436.213	1.717	feeling_mouse_trajectory	824	594	Ambition	hospital	Audio	n/a
438.654	2.667	rating_expectation	1107	528	Ambition	hospital	Audio	n/a
439.12	2.2	expectation_mouse_trajectory	1107	528	Ambition	hospital	Audio	n/a
