onset	duration	trial_type	response_x	response_y	situation	context	modality	stim_file
11.827	22.129	narrative_presentation	n/a	n/a	An enemy loved	forest	Text	task-narratives/Narrative2Situation1.txt
33.955	2.005	rating_feeling	795	544	An enemy loved	forest	Text	n/a
35.322	0.639	feeling_mouse_trajectory	795	544	An enemy loved	forest	Text	n/a
38.009	2.07	rating_expectation	800	538	An enemy loved	forest	Text	n/a
39.159	0.92	expectation_mouse_trajectory	800	538	An enemy loved	forest	Text	n/a
44.089	36.183	narrative_presentation	n/a	n/a	Enmity of kin	forest	Text	task-narratives/Narrative2Situation2.txt
80.272	1.921	rating_feeling	795	544	Enmity of kin	forest	Text	n/a
81.238	0.955	feeling_mouse_trajectory	795	544	Enmity of kin	forest	Text	n/a
84.292	2.02	rating_expectation	800	538	Enmity of kin	forest	Text	n/a
84.825	1.487	expectation_mouse_trajectory	800	538	Enmity of kin	forest	Text	n/a
92.357	9.373	narrative_presentation	n/a	n/a	Necessity of sacrificing loved ones	forest	Text	task-narratives/Narrative2Situation3.txt
101.73	2.051	rating_feeling	795	544	Necessity of sacrificing loved ones	forest	Text	n/a
102.596	1.184	feeling_mouse_trajectory	795	544	Necessity of sacrificing loved ones	forest	Text	n/a
105.747	1.667	rating_expectation	800	538	Necessity of sacrificing loved ones	forest	Text	n/a
106.447	0.967	expectation_mouse_trajectory	800	538	Necessity of sacrificing loved ones	forest	Text	n/a
112.814	18.43	narrative_presentation	n/a	n/a	Murderous adultury	town	Text	task-narratives/Narrative2Situation4.txt
131.244	2.486	rating_feeling	795	544	Murderous adultury	town	Text	n/a
131.927	1.802	feeling_mouse_trajectory	795	544	Murderous adultury	town	Text	n/a
135.259	2.018	rating_expectation	800	538	Murderous adultury	town	Text	n/a
135.859	1.418	expectation_mouse_trajectory	800	538	Murderous adultury	town	Text	n/a
142.325	16.742	narrative_presentation	n/a	n/a	Daring Enterprise	town	Text	task-narratives/Narrative2Situation5.txt
159.067	2.618	rating_feeling	795	544	Daring Enterprise	town	Text	n/a
159.901	1.784	feeling_mouse_trajectory	795	544	Daring Enterprise	town	Text	n/a
163.102	2.124	rating_expectation	800	538	Daring Enterprise	town	Text	n/a
163.885	1.34	expectation_mouse_trajectory	800	538	Daring Enterprise	town	Text	n/a
169.185	5.692	narrative_presentation	n/a	n/a	Ambition	town	Text	task-narratives/Narrative2Situation6.txt
174.877	1.803	rating_feeling	795	544	Ambition	town	Text	n/a
175.377	1.303	feeling_mouse_trajectory	795	544	Ambition	town	Text	n/a
178.892	1.618	rating_expectation	800	538	Ambition	town	Text	n/a
179.442	1.068	expectation_mouse_trajectory	800	538	Ambition	town	Text	n/a
183.957	19.094	narrative_presentation	n/a	n/a	Mistaken jealousy	hospital	Text	task-narratives/Narrative2Situation7.txt
203.051	1.426	rating_feeling	795	544	Mistaken jealousy	hospital	Text	n/a
203.401	1.076	feeling_mouse_trajectory	795	544	Mistaken jealousy	hospital	Text	n/a
207.068	2.791	rating_expectation	800	538	Mistaken jealousy	hospital	Text	n/a
208.268	1.591	expectation_mouse_trajectory	800	538	Mistaken jealousy	hospital	Text	n/a
214.135	18.094	narrative_presentation	n/a	n/a	Discovery of dishonour of loved one	hospital	Text	task-narratives/Narrative2Situation8.txt
232.229	3.018	rating_feeling	795	544	Discovery of dishonour of loved one	hospital	Text	n/a
233.479	1.768	feeling_mouse_trajectory	795	544	Discovery of dishonour of loved one	hospital	Text	n/a
236.246	2.851	rating_expectation	800	538	Discovery of dishonour of loved one	hospital	Text	n/a
236.662	2.435	expectation_mouse_trajectory	800	538	Discovery of dishonour of loved one	hospital	Text	n/a
243.313	15.408	narrative_presentation	n/a	n/a	Self-sacrifice for an ideal	hospital	Text	task-narratives/Narrative2Situation9.txt
258.721	2.488	rating_feeling	795	544	Self-sacrifice for an ideal	hospital	Text	n/a
259.088	2.121	feeling_mouse_trajectory	795	544	Self-sacrifice for an ideal	hospital	Text	n/a
262.742	2.553	rating_expectation	800	538	Self-sacrifice for an ideal	hospital	Text	n/a
263.192	2.103	expectation_mouse_trajectory	800	538	Self-sacrifice for an ideal	hospital	Text	n/a
269.823	10.391	narrative_presentation	n/a	n/a	Supplication	hospital	Text	task-narratives/Narrative1Situation1.txt
280.214	1.884	rating_feeling	795	544	Supplication	hospital	Text	n/a
281.181	0.918	feeling_mouse_trajectory	795	544	Supplication	hospital	Text	n/a
284.231	2.001	rating_expectation	800	538	Supplication	hospital	Text	n/a
285.114	1.118	expectation_mouse_trajectory	800	538	Supplication	hospital	Text	n/a
290.297	14.413	narrative_presentation	n/a	n/a	Madness	hospital	Text	task-narratives/Narrative1Situation2.txt
304.71	2.388	rating_feeling	795	544	Madness	hospital	Text	n/a
305.794	1.304	feeling_mouse_trajectory	795	544	Madness	hospital	Text	n/a
308.742	1.319	rating_expectation	800	538	Madness	hospital	Text	n/a
309.092	0.969	expectation_mouse_trajectory	800	538	Madness	hospital	Text	n/a
313.806	20.778	narrative_presentation	n/a	n/a	Murderous adultury	hospital	Text	task-narratives/Narrative1Situation3.txt
334.584	1.793	rating_feeling	795	544	Murderous adultury	hospital	Text	n/a
335.134	1.243	feeling_mouse_trajectory	795	544	Murderous adultury	hospital	Text	n/a
338.601	1.508	rating_expectation	800	538	Murderous adultury	hospital	Text	n/a
339.167	0.942	expectation_mouse_trajectory	800	538	Murderous adultury	hospital	Text	n/a
345.668	18.426	narrative_presentation	n/a	n/a	Recovery of a lost one	town	Text	task-narratives/Narrative1Situation4.txt
364.094	2.051	rating_feeling	795	544	Recovery of a lost one	town	Text	n/a
365.011	1.134	feeling_mouse_trajectory	795	544	Recovery of a lost one	town	Text	n/a
368.112	1.968	rating_expectation	800	538	Recovery of a lost one	town	Text	n/a
368.512	1.568	expectation_mouse_trajectory	800	538	Recovery of a lost one	town	Text	n/a
375.179	11.058	narrative_presentation	n/a	n/a	Slaying of kin unrecognized	town	Text	task-narratives/Narrative1Situation5.txt
386.237	1.841	rating_feeling	795	544	Slaying of kin unrecognized	town	Text	n/a
387.12	0.957	feeling_mouse_trajectory	795	544	Slaying of kin unrecognized	town	Text	n/a
390.258	1.822	rating_expectation	800	538	Slaying of kin unrecognized	town	Text	n/a
391.125	0.956	expectation_mouse_trajectory	800	538	Slaying of kin unrecognized	town	Text	n/a
395.353	25.129	narrative_presentation	n/a	n/a	An enemy loved	town	Text	task-narratives/Narrative1Situation6.txt
420.482	1.894	rating_feeling	795	544	An enemy loved	town	Text	n/a
421.382	0.994	feeling_mouse_trajectory	795	544	An enemy loved	town	Text	n/a
424.499	1.593	rating_expectation	800	538	An enemy loved	town	Text	n/a
425.083	1.01	expectation_mouse_trajectory	800	538	An enemy loved	town	Text	n/a
431.566	22.111	narrative_presentation	n/a	n/a	Fatal imprudence	prison	Text	task-narratives/Narrative1Situation7.txt
453.678	2.951	rating_feeling	795	544	Fatal imprudence	prison	Text	n/a
454.561	2.068	feeling_mouse_trajectory	795	544	Fatal imprudence	prison	Text	n/a
457.695	2.084	rating_expectation	800	538	Fatal imprudence	prison	Text	n/a
458.862	0.918	expectation_mouse_trajectory	800	538	Fatal imprudence	prison	Text	n/a
462.761	12.391	narrative_presentation	n/a	n/a	Discovery of dishonour of loved one	prison	Text	task-narratives/Narrative1Situation8.txt
475.153	1.641	rating_feeling	795	544	Discovery of dishonour of loved one	prison	Text	n/a
476.153	0.641	feeling_mouse_trajectory	795	544	Discovery of dishonour of loved one	prison	Text	n/a
479.17	1.639	rating_expectation	800	538	Discovery of dishonour of loved one	prison	Text	n/a
480.086	0.723	expectation_mouse_trajectory	800	538	Discovery of dishonour of loved one	prison	Text	n/a
491.255	29.48	narrative_presentation	n/a	n/a	Abduction	prison	Text	task-narratives/Narrative1Situation9.txt
520.735	1.924	rating_feeling	795	544	Abduction	prison	Text	n/a
521.102	1.557	feeling_mouse_trajectory	795	544	Abduction	prison	Text	n/a
524.759	1.639	rating_expectation	800	538	Abduction	prison	Text	n/a
525.059	1.339	expectation_mouse_trajectory	800	538	Abduction	prison	Text	n/a
