onset	duration	subtask_type	event_type	value	response_accuracy	stim_file	participant_response	reaction_time
7.965	1.017	memory	dummy	study_dummy	n/a	task-fractional/runtype-memory/obj016banjo.png	n/a	n/a
10.016	1.017	memory	dummy	study_dummy	n/a	task-fractional/runtype-memory/obj076cup.png	n/a	n/a
12.067	1.017	memory	dummy	study_dummy	n/a	task-fractional/runtype-memory/obj123goat.png	n/a	n/a
14.101	1.017	memory	study	study	n/a	task-fractional/runtype-memory/obj257saw.png	n/a	n/a
16.135	1.017	memory	study	study	n/a	task-fractional/runtype-memory/obj234queen.png	n/a	n/a
18.186	1.017	memory	study	study	n/a	task-fractional/runtype-memory/obj280sofa.png	n/a	n/a
20.22	1.017	memory	study	study	n/a	task-fractional/runtype-memory/obj070cow.png	n/a	n/a
22.254	1.017	memory	study	study	n/a	task-fractional/runtype-memory/obj258saxophone.png	n/a	n/a
24.288	1.017	memory	study	study	n/a	task-fractional/runtype-memory/obj095envelope.png	n/a	n/a
26.322	1.017	memory	study	study	n/a	task-fractional/runtype-memory/obj121globe.png	n/a	n/a
28.356	1.017	memory	study	study	n/a	task-fractional/runtype-memory/obj040butterfly.png	n/a	n/a
30.39	1.017	memory	study	study	n/a	task-fractional/runtype-memory/obj343witch.png	n/a	n/a
32.424	1.017	memory	study	study	n/a	task-fractional/runtype-memory/obj235rabbit.png	n/a	n/a
34.459	1.017	memory	study	study	n/a	task-fractional/runtype-memory/obj249rooster.png	n/a	n/a
36.493	1.017	memory	study	study	n/a	task-fractional/runtype-memory/obj232purse.png	n/a	n/a
38.527	1.034	memory	study	study	n/a	task-fractional/runtype-memory/obj085donkey.png	n/a	n/a
40.577	1.034	memory	study	study	n/a	task-fractional/runtype-memory/obj102finger.png	n/a	n/a
42.628	1.034	memory	study	study	n/a	task-fractional/runtype-memory/obj034bowl.png	n/a	n/a
44.679	1.017	memory	study	study	n/a	task-fractional/runtype-memory/obj042cactus.png	n/a	n/a
46.713	1.017	memory	study	study	n/a	task-fractional/runtype-memory/obj229potato.png	n/a	n/a
48.764	1.017	memory	study	study	n/a	task-fractional/runtype-memory/obj168lion.png	n/a	n/a
50.815	1.017	memory	study	study	n/a	task-fractional/runtype-memory/obj179match.png	n/a	n/a
52.865	1.017	memory	study	study	n/a	task-fractional/runtype-memory/obj244rock.png	n/a	n/a
54.916	1.017	memory	dummy	study_dummy	n/a	task-fractional/runtype-memory/obj147iron.png	n/a	n/a
56.95	1.017	memory	dummy	study_dummy	n/a	task-fractional/runtype-memory/obj218pig.png	n/a	n/a
58.984	1.017	memory	dummy	study_dummy	n/a	task-fractional/runtype-memory/obj315trumpet.png	n/a	n/a
71.072	25.0	memory	distraction_math	math	n/a	n/a	n/a	n/a
99.133	25.0	memory	distraction_math	math	n/a	n/a	n/a	n/a
127.193	25.0	memory	distraction_math	math	n/a	n/a	n/a	n/a
155.254	25.0	memory	distraction_math	math	n/a	n/a	n/a	n/a
188.849	1.383	memory	test	test_new	correct	task-fractional/runtype-memory/obj008ashtray.png	new	n/a
191.567	0.952	memory	test	test_old	correct	task-fractional/runtype-memory/obj244rock.png	old	n/a
194.435	0.767	memory	test	test_new	correct	task-fractional/runtype-memory/obj289submarine.png	new	n/a
197.253	0.764	memory	test	test_new	correct	task-fractional/runtype-memory/obj015bandaid.png	new	n/a
200.22	0.755	memory	test	test_old	correct	task-fractional/runtype-memory/obj234queen.png	old	n/a
202.888	0.757	memory	test	test_old	correct	task-fractional/runtype-memory/obj042cactus.png	old	n/a
205.489	0.797	memory	test	test_old	correct	task-fractional/runtype-memory/obj343witch.png	old	n/a
208.19	0.751	memory	test	test_old	correct	task-fractional/runtype-memory/obj235rabbit.png	old	n/a
210.924	0.72	memory	test	test_new	correct	task-fractional/runtype-memory/obj122glove.png	new	n/a
213.875	0.721	memory	test	test_new	correct	task-fractional/runtype-memory/obj149jacket.png	new	n/a
216.86	0.658	memory	test	test_new	correct	task-fractional/runtype-memory/obj156kite.png	new	n/a
219.428	0.884	memory	test	test_new	correct	task-fractional/runtype-memory/obj319typewriter.png	new	n/a
222.245	0.682	memory	test	test_old	correct	task-fractional/runtype-memory/obj121globe.png	old	n/a
225.18	0.669	memory	test	test_new	correct	task-fractional/runtype-memory/obj190mousetrap.png	new	n/a
227.964	0.886	memory	test	test_new	correct	task-fractional/runtype-memory/obj193needle.png	new	n/a
230.732	0.592	memory	test	test_old	correct	task-fractional/runtype-memory/obj258saxophone.png	old	n/a
233.433	0.681	memory	test	test_new	correct	task-fractional/runtype-memory/obj341window.png	new	n/a
236.35	0.684	memory	test	test_new	correct	task-fractional/runtype-memory/obj030bone.png	new	n/a
239.302	0.667	memory	test	test_old	correct	task-fractional/runtype-memory/obj040butterfly.png	old	n/a
242.286	0.656	memory	test	test_old	correct	task-fractional/runtype-memory/obj034bowl.png	old	n/a
245.137	1.179	memory	test	test_old	correct	task-fractional/runtype-memory/obj232purse.png	old	n/a
247.855	0.92	memory	test	test_new	correct	task-fractional/runtype-memory/obj066dime.png	new	n/a
250.572	0.743	memory	test	test_new	correct	task-fractional/runtype-memory/obj344worm.png	new	n/a
253.223	0.546	memory	test	test_old	correct	task-fractional/runtype-memory/obj249rooster.png	old	n/a
255.891	0.579	memory	test	test_old	correct	task-fractional/runtype-memory/obj085donkey.png	old	n/a
258.909	0.584	memory	test	test_old	correct	task-fractional/runtype-memory/obj168lion.png	old	n/a
261.71	0.574	memory	test	test_old	correct	task-fractional/runtype-memory/obj229potato.png	old	n/a
264.461	0.687	memory	test	test_old	correct	task-fractional/runtype-memory/obj102finger.png	old	n/a
267.445	0.844	memory	test	test_new	correct	task-fractional/runtype-memory/obj057cherry.png	new	n/a
270.463	0.649	memory	test	test_old	correct	task-fractional/runtype-memory/obj179match.png	old	n/a
273.264	0.671	memory	test	test_old	correct	task-fractional/runtype-memory/obj095envelope.png	old	n/a
276.115	0.628	memory	test	test_new	correct	task-fractional/runtype-memory/obj061church.png	new	n/a
279.083	0.775	memory	test	test_new	correct	task-fractional/runtype-memory/obj158knight.png	new	n/a
281.817	1.268	memory	test	test_old	correct	task-fractional/runtype-memory/obj070cow.png	old	n/a
284.652	0.684	memory	test	test_new	correct	task-fractional/runtype-memory/obj208paper.png	new	n/a
287.653	0.596	memory	test	test_old	correct	task-fractional/runtype-memory/obj280sofa.png	old	n/a
290.354	0.782	memory	test	test_old	correct	task-fractional/runtype-memory/obj257saw.png	old	n/a
293.272	0.785	memory	test	test_new	correct	task-fractional/runtype-memory/obj134hat.png	new	n/a
296.039	0.777	memory	test	test_new	correct	task-fractional/runtype-memory/obj088drawer.png	new	n/a
298.624	0.66	memory	test	test_new	correct	task-fractional/runtype-memory/obj276snail.png	new	n/a
308.227	1.017	memory	dummy	study_dummy	n/a	task-fractional/runtype-memory/obj014banana.png	n/a	n/a
310.261	1.034	memory	dummy	study_dummy	n/a	task-fractional/runtype-memory/obj018barrel.png	n/a	n/a
312.312	1.034	memory	dummy	study_dummy	n/a	task-fractional/runtype-memory/obj032boot.png	n/a	n/a
314.363	1.017	memory	study	study	n/a	task-fractional/runtype-memory/obj322unicycle.png	n/a	n/a
316.414	1.017	memory	study	study	n/a	task-fractional/runtype-memory/obj286stethoscope.png	n/a	n/a
318.448	1.017	memory	study	study	n/a	task-fractional/runtype-memory/obj189mouse.png	n/a	n/a
320.499	1.017	memory	study	study	n/a	task-fractional/runtype-memory/obj241ring.png	n/a	n/a
322.533	1.017	memory	study	study	n/a	task-fractional/runtype-memory/obj254safe.png	n/a	n/a
324.567	1.017	memory	study	study	n/a	task-fractional/runtype-memory/obj182microscope.png	n/a	n/a
326.601	1.017	memory	study	study	n/a	task-fractional/runtype-memory/obj342wing.png	n/a	n/a
328.635	1.017	memory	study	study	n/a	task-fractional/runtype-memory/obj302tie.png	n/a	n/a
330.669	1.017	memory	study	study	n/a	task-fractional/runtype-memory/obj094elephant.png	n/a	n/a
332.703	1.017	memory	study	study	n/a	task-fractional/runtype-memory/obj161lamp.png	n/a	n/a
334.737	1.017	memory	study	study	n/a	task-fractional/runtype-memory/obj138helmet.png	n/a	n/a
336.771	1.017	memory	study	study	n/a	task-fractional/runtype-memory/obj096eskimo.png	n/a	n/a
338.805	1.017	memory	study	study	n/a	task-fractional/runtype-memory/obj213pen.png	n/a	n/a
340.839	1.017	memory	study	study	n/a	task-fractional/runtype-memory/obj316turkey.png	n/a	n/a
342.874	1.017	memory	study	study	n/a	task-fractional/runtype-memory/obj345wrench.png	n/a	n/a
344.908	1.017	memory	study	study	n/a	task-fractional/runtype-memory/obj221pinecone.png	n/a	n/a
346.942	1.017	memory	study	study	n/a	task-fractional/runtype-memory/obj039bus.png	n/a	n/a
348.976	1.017	memory	study	study	n/a	task-fractional/runtype-memory/obj006apple.png	n/a	n/a
351.01	1.017	memory	study	study	n/a	task-fractional/runtype-memory/obj002acorn.png	n/a	n/a
353.044	1.034	memory	study	study	n/a	task-fractional/runtype-memory/obj240razor.png	n/a	n/a
355.095	1.034	memory	dummy	study_dummy	n/a	task-fractional/runtype-memory/obj082doctor.png	n/a	n/a
357.146	1.017	memory	dummy	study_dummy	n/a	task-fractional/runtype-memory/obj299tent.png	n/a	n/a
359.18	1.017	memory	dummy	study_dummy	n/a	task-fractional/runtype-memory/obj329walrus.png	n/a	n/a
371.334	25.0	memory	distraction_math	math	n/a	n/a	n/a	n/a
399.395	25.0	memory	distraction_math	math	n/a	n/a	n/a	n/a
427.455	25.0	memory	distraction_math	math	n/a	n/a	n/a	n/a
455.516	25.0	memory	distraction_math	math	n/a	n/a	n/a	n/a
489.078	0.885	memory	test	test_old	correct	task-fractional/runtype-memory/obj342wing.png	old	n/a
492.029	0.69	memory	test	test_old	correct	task-fractional/runtype-memory/obj161lamp.png	old	n/a
494.764	0.68	memory	test	test_old	correct	task-fractional/runtype-memory/obj182microscope.png	old	n/a
497.381	0.56	memory	test	test_new	correct	task-fractional/runtype-memory/obj135heart.png	new	n/a
500.299	0.745	memory	test	test_new	correct	task-fractional/runtype-memory/obj173lock.png	new	n/a
502.917	0.713	memory	test	test_new	correct	task-fractional/runtype-memory/obj201owl.png	new	n/a
505.701	0.778	memory	test	test_new	correct	task-fractional/runtype-memory/obj323vacuum.png	new	n/a
508.402	0.667	memory	test	test_old	correct	task-fractional/runtype-memory/obj345wrench.png	old	n/a
511.12	0.609	memory	test	test_new	correct	task-fractional/runtype-memory/obj007arrow.png	new	n/a
513.821	0.707	memory	test	test_new	correct	task-fractional/runtype-memory/obj100feather.png	new	n/a
516.505	0.673	memory	test	test_new	correct	task-fractional/runtype-memory/obj265shoe.png	new	n/a
519.423	0.665	memory	test	test_old	correct	task-fractional/runtype-memory/obj286stethoscope.png	old	n/a
522.457	0.672	memory	test	test_old	correct	task-fractional/runtype-memory/obj189mouse.png	old	n/a
525.475	0.712	memory	test	test_new	correct	task-fractional/runtype-memory/obj087dragon.png	new	n/a
528.126	0.654	memory	test	test_new	correct	task-fractional/runtype-memory/obj272skunk.png	new	n/a
531.077	0.629	memory	test	test_old	correct	task-fractional/runtype-memory/obj094elephant.png	old	n/a
533.728	0.657	memory	test	test_old	correct	task-fractional/runtype-memory/obj241ring.png	old	n/a
536.713	0.739	memory	test	test_old	correct	task-fractional/runtype-memory/obj254safe.png	old	n/a
539.514	0.593	memory	test	test_old	correct	task-fractional/runtype-memory/obj302tie.png	old	n/a
542.148	0.709	memory	test	test_new	correct	task-fractional/runtype-memory/obj271skis.png	new	n/a
544.715	0.69	memory	test	test_old	correct	task-fractional/runtype-memory/obj322unicycle.png	old	n/a
547.683	0.623	memory	test	test_old	correct	task-fractional/runtype-memory/obj316turkey.png	old	n/a
550.434	0.755	memory	test	test_old	correct	task-fractional/runtype-memory/obj240razor.png	old	n/a
553.202	0.756	memory	test	test_new	correct	task-fractional/runtype-memory/obj324vase.png	new	n/a
555.903	0.605	memory	test	test_old	correct	task-fractional/runtype-memory/obj002acorn.png	old	n/a
558.537	0.896	memory	test	test_new	correct	task-fractional/runtype-memory/obj255sailor.png	new	n/a
561.455	0.769	memory	test	test_new	correct	task-fractional/runtype-memory/obj242road.png	new	n/a
564.356	0.761	memory	test	test_new	correct	task-fractional/runtype-memory/obj314truck.png	new	n/a
567.274	0.782	memory	test	test_old	correct	task-fractional/runtype-memory/obj138helmet.png	old	n/a
569.858	0.761	memory	test	test_new	correct	task-fractional/runtype-memory/obj051car.png	new	n/a
572.459	0.843	memory	test	test_old	correct	task-fractional/runtype-memory/obj221pinecone.png	old	n/a
575.41	0.647	memory	test	test_new	correct	task-fractional/runtype-memory/obj191mushroom.png	new	n/a
577.945	0.66	memory	test	test_new	correct	task-fractional/runtype-memory/obj231pumpkin.png	new	n/a
580.546	0.875	memory	test	test_new	correct	task-fractional/runtype-memory/obj332well.png	new	n/a
583.28	0.779	memory	test	test_old	correct	task-fractional/runtype-memory/obj006apple.png	old	n/a
586.098	0.656	memory	test	test_new	correct	task-fractional/runtype-memory/obj209paperclip.png	new	n/a
588.849	0.714	memory	test	test_old	correct	task-fractional/runtype-memory/obj039bus.png	old	n/a
591.516	0.809	memory	test	test_old	correct	task-fractional/runtype-memory/obj096eskimo.png	old	n/a
594.084	0.93	memory	test	test_new	correct	task-fractional/runtype-memory/obj326violin.png	new	n/a
596.985	0.98	memory	test	test_old	correct	task-fractional/runtype-memory/obj213pen.png	old	n/a
