onset	duration	run_type	trial_type	trial_index	cue	stimulusintensity	rating_value	rating_glmslabel	rating_value_fillna	rating_glmslabel_fillna	rating_mouseonset	rating_mousedur	stim_file	pain_onset_ttl1	pain_onset_ttl2	pain_onset_ttl3	pain_onset_ttl4	pain_stimulus_delivery_success	cognitive_correct_response	cognitive_participant_response	cognitive_response_accuracy
8.11	1.03	pain	cue	1	high_cue	n/a	n/a	n/a	n/a	n/a	n/a	n/a	task-social/cue/runtype-pain/sch/h044.png	n/a	n/a	n/a	n/a	n/a	n/a	n/a	n/a
10.04	1.78	pain	expectrating	1	high_cue	n/a	81.48	Very-Strong	81.48	Very-Strong	0.57	1.22	task-social/cue/runtype-pain/sch/h044.png	n/a	n/a	n/a	n/a	n/a	n/a	n/a	n/a
21.36	11.910000000000004	pain	stimulus	1	high_cue	low_stim	n/a	n/a	n/a	n/a	n/a	n/a	n/a	21.36	24.86	29.86	33.26	success	n/a	n/a	n/a
39.6	2.7	pain	outcomerating	1	high_cue	low_stim	83.33	Very-Strong	83.33	Very-Strong	0.57	1.22	task-social/outcomerating/task-pain_scale.png	n/a	n/a	n/a	n/a	success	n/a	n/a	n/a
52.41	1.0	pain	cue	2	low_cue	n/a	n/a	n/a	n/a	n/a	n/a	n/a	task-social/cue/runtype-pain/scl/l015.png	n/a	n/a	n/a	n/a	n/a	n/a	n/a	n/a
55.01	2.02	pain	expectrating	2	low_cue	n/a	30.06	Strong	30.06	Strong	0.45	1.57	task-social/cue/runtype-pain/scl/l015.png	n/a	n/a	n/a	n/a	n/a	n/a	n/a	n/a
67.03	12.370000000000005	pain	stimulus	2	low_cue	med_stim	n/a	n/a	n/a	n/a	n/a	n/a	n/a	67.03	70.79	75.79	79.4	success	n/a	n/a	n/a
83.9	n/a	pain	outcomerating	2	low_cue	med_stim	n/a	n/a	47.6	Strong	0.45	1.57	task-social/outcomerating/task-pain_scale.png	n/a	n/a	n/a	n/a	success	n/a	n/a	n/a
93.21	1.0	pain	cue	3	high_cue	n/a	n/a	n/a	n/a	n/a	n/a	n/a	task-social/cue/runtype-pain/sch/h032.png	n/a	n/a	n/a	n/a	n/a	n/a	n/a	n/a
96.11	n/a	pain	expectrating	3	high_cue	n/a	n/a	n/a	70.04	Very-Strong	0.42	3.52	task-social/cue/runtype-pain/sch/h032.png	n/a	n/a	n/a	n/a	n/a	n/a	n/a	n/a
103.63	12.820000000000007	pain	stimulus	3	high_cue	high_stim	n/a	n/a	n/a	n/a	n/a	n/a	n/a	103.63	107.64	112.64	116.45	success	n/a	n/a	n/a
116.42	3.17	pain	outcomerating	3	high_cue	high_stim	89.31	Very-Strong	89.31	Very-Strong	0.42	3.52	task-social/outcomerating/task-pain_scale.png	n/a	n/a	n/a	n/a	success	n/a	n/a	n/a
123.4	1.0	pain	cue	4	low_cue	n/a	n/a	n/a	n/a	n/a	n/a	n/a	task-social/cue/runtype-pain/scl/l021.png	n/a	n/a	n/a	n/a	n/a	n/a	n/a	n/a
126.7	3.44	pain	expectrating	4	low_cue	n/a	45.65	Strong	45.65	Strong	0.53	2.9	task-social/cue/runtype-pain/scl/l021.png	n/a	n/a	n/a	n/a	n/a	n/a	n/a	n/a
132.72	12.830000000000013	pain	stimulus	4	low_cue	high_stim	n/a	n/a	n/a	n/a	n/a	n/a	n/a	132.72	136.73	141.73	145.54	success	n/a	n/a	n/a
143.01	n/a	pain	outcomerating	4	low_cue	high_stim	n/a	n/a	73.23	Very-Strong	0.53	2.9	task-social/outcomerating/task-pain_scale.png	n/a	n/a	n/a	n/a	success	n/a	n/a	n/a
151.31	0.98	pain	cue	5	high_cue	n/a	n/a	n/a	n/a	n/a	n/a	n/a	task-social/cue/runtype-pain/sch/h010.png	n/a	n/a	n/a	n/a	n/a	n/a	n/a	n/a
153.11	1.55	pain	expectrating	5	high_cue	n/a	83.25	Very-Strong	83.25	Very-Strong	0.45	1.1	task-social/cue/runtype-pain/sch/h010.png	n/a	n/a	n/a	n/a	n/a	n/a	n/a	n/a
165.15	11.900000000000006	pain	stimulus	5	high_cue	low_stim	n/a	n/a	n/a	n/a	n/a	n/a	n/a	165.15	168.65	173.65	177.05	success	n/a	n/a	n/a
177.7	3.09	pain	outcomerating	5	high_cue	low_stim	36.78	Strong	36.78	Strong	0.45	1.1	task-social/outcomerating/task-pain_scale.png	n/a	n/a	n/a	n/a	success	n/a	n/a	n/a
188.39	1.0	pain	cue	6	high_cue	n/a	n/a	n/a	n/a	n/a	n/a	n/a	task-social/cue/runtype-pain/sch/h004.png	n/a	n/a	n/a	n/a	n/a	n/a	n/a	n/a
190.51	2.0	pain	expectrating	6	high_cue	n/a	51.52	Strong	51.52	Strong	0.38	1.62	task-social/cue/runtype-pain/sch/h004.png	n/a	n/a	n/a	n/a	n/a	n/a	n/a	n/a
196.53	12.370000000000005	pain	stimulus	6	high_cue	med_stim	n/a	n/a	n/a	n/a	n/a	n/a	n/a	196.53	200.29	205.29	208.9	success	n/a	n/a	n/a
207.5	3.41	pain	outcomerating	6	high_cue	med_stim	42.89	Strong	42.89	Strong	0.38	1.62	task-social/outcomerating/task-pain_scale.png	n/a	n/a	n/a	n/a	success	n/a	n/a	n/a
218.2	1.0	pain	cue	7	low_cue	n/a	n/a	n/a	n/a	n/a	n/a	n/a	task-social/cue/runtype-pain/scl/l044.png	n/a	n/a	n/a	n/a	n/a	n/a	n/a	n/a
220.3	2.0	pain	expectrating	7	low_cue	n/a	29.57	Strong	29.57	Strong	0.47	1.54	task-social/cue/runtype-pain/scl/l044.png	n/a	n/a	n/a	n/a	n/a	n/a	n/a	n/a
228.26	12.820000000000022	pain	stimulus	7	low_cue	high_stim	n/a	n/a	n/a	n/a	n/a	n/a	n/a	228.26	232.27	237.27	241.08	success	n/a	n/a	n/a
239.19	3.13	pain	outcomerating	7	low_cue	high_stim	65.13	Very-Strong	65.13	Very-Strong	0.47	1.54	task-social/outcomerating/task-pain_scale.png	n/a	n/a	n/a	n/a	success	n/a	n/a	n/a
277.59	1.0	pain	cue	9	low_cue	n/a	n/a	n/a	n/a	n/a	n/a	n/a	task-social/cue/runtype-pain/scl/l056.png	n/a	n/a	n/a	n/a	n/a	n/a	n/a	n/a
280.71	3.37	pain	expectrating	9	low_cue	n/a	27.29	Moderate	27.29	Moderate	0.73	2.63	task-social/cue/runtype-pain/scl/l056.png	n/a	n/a	n/a	n/a	n/a	n/a	n/a	n/a
290.57	11.900000000000034	pain	stimulus	9	low_cue	low_stim	n/a	n/a	n/a	n/a	n/a	n/a	n/a	290.57	294.07	299.07	302.47	success	n/a	n/a	n/a
305.2	3.34	pain	outcomerating	9	low_cue	low_stim	9.73	Weak	9.73	Weak	0.73	2.63	task-social/outcomerating/task-pain_scale.png	n/a	n/a	n/a	n/a	success	n/a	n/a	n/a
309.7	1.0	pain	cue	10	low_cue	n/a	n/a	n/a	n/a	n/a	n/a	n/a	task-social/cue/runtype-pain/scl/l001.png	n/a	n/a	n/a	n/a	n/a	n/a	n/a	n/a
312.0	2.29	pain	expectrating	10	low_cue	n/a	22.92	Moderate	22.92	Moderate	0.5	1.79	task-social/cue/runtype-pain/scl/l001.png	n/a	n/a	n/a	n/a	n/a	n/a	n/a	n/a
318.02	11.900000000000034	pain	stimulus	10	low_cue	low_stim	n/a	n/a	n/a	n/a	n/a	n/a	n/a	318.02	321.52	326.52	329.92	success	n/a	n/a	n/a
330.8	3.27	pain	outcomerating	10	low_cue	low_stim	12.48	Moderate	12.48	Moderate	0.5	1.79	task-social/outcomerating/task-pain_scale.png	n/a	n/a	n/a	n/a	success	n/a	n/a	n/a
339.2	1.0	pain	cue	11	high_cue	n/a	n/a	n/a	n/a	n/a	n/a	n/a	task-social/cue/runtype-pain/sch/h022.png	n/a	n/a	n/a	n/a	n/a	n/a	n/a	n/a
342.3	1.96	pain	expectrating	11	high_cue	n/a	107.1	Strongest-sensation-of-any-kind	107.1	Strongest-sensation-of-any-kind	0.45	1.51	task-social/cue/runtype-pain/sch/h022.png	n/a	n/a	n/a	n/a	n/a	n/a	n/a	n/a
352.64	12.819999999999993	pain	stimulus	11	high_cue	high_stim	n/a	n/a	n/a	n/a	n/a	n/a	n/a	352.64	356.65	361.65	365.46	success	n/a	n/a	n/a
366.91	3.4	pain	outcomerating	11	high_cue	high_stim	50.19	Strong	50.19	Strong	0.45	1.51	task-social/outcomerating/task-pain_scale.png	n/a	n/a	n/a	n/a	success	n/a	n/a	n/a
371.69	1.0	pain	cue	12	low_cue	n/a	n/a	n/a	n/a	n/a	n/a	n/a	task-social/cue/runtype-pain/scl/l033.png	n/a	n/a	n/a	n/a	n/a	n/a	n/a	n/a
373.99	2.4	pain	expectrating	12	low_cue	n/a	10.95	Moderate	10.95	Moderate	0.32	2.08	task-social/cue/runtype-pain/scl/l033.png	n/a	n/a	n/a	n/a	n/a	n/a	n/a	n/a
380.03	12.360000000000014	pain	stimulus	12	low_cue	med_stim	n/a	n/a	n/a	n/a	n/a	n/a	n/a	380.03	383.79	388.79	392.4	success	n/a	n/a	n/a
394.8	3.37	pain	outcomerating	12	low_cue	med_stim	14.15	Moderate	14.15	Moderate	0.32	2.08	task-social/outcomerating/task-pain_scale.png	n/a	n/a	n/a	n/a	success	n/a	n/a	n/a
