onset	duration	subtask_type	question	event_type	participant_response	normative_response	response_accuracy	stim_file
5.022	1.086	tomspunt	reaching?	how_hand	yes	yes	correct	task-tomspunt/H_007.jpg
6.423	0.902	tomspunt	reaching?	how_hand	no	no	correct	task-tomspunt/H_532.jpg
7.64	0.775	tomspunt	reaching?	how_hand	yes	yes	correct	task-tomspunt/H_474.jpg
8.724	0.925	tomspunt	reaching?	how_hand	no	no	correct	task-tomspunt/H_438.jpg
9.958	0.692	tomspunt	reaching?	how_hand	yes	yes	correct	task-tomspunt/H_364.jpg
10.958	0.84	tomspunt	reaching?	how_hand	yes	yes	correct	task-tomspunt/H_006.jpg
12.108	0.839	tomspunt	reaching?	how_hand	no	yes	incorrect	task-tomspunt/H_003.jpg
13.259	0.756	tomspunt	reaching?	how_hand	yes	no	incorrect	task-tomspunt/H_132.jpg
22.546	1.252	tomspunt	healthy?	why_hand	yes	yes	correct	task-tomspunt/H_627.jpg
24.113	1.285	tomspunt	healthy?	why_hand	no	yes	incorrect	task-tomspunt/H_438.jpg
25.713	1.001	tomspunt	healthy?	why_hand	yes	yes	correct	task-tomspunt/H_364.jpg
27.031	0.735	tomspunt	healthy?	why_hand	no	no	correct	task-tomspunt/H_130.jpg
28.081	1.018	tomspunt	healthy?	why_hand	yes	yes	correct	task-tomspunt/H_362.jpg
29.415	0.7	tomspunt	healthy?	why_hand	no	no	correct	task-tomspunt/H_007.jpg
30.415	0.685	tomspunt	healthy?	why_hand	yes	yes	correct	task-tomspunt/H_167.jpg
31.416	0.649	tomspunt	healthy?	why_hand	no	no	correct	task-tomspunt/H_019.jpg
41.653	0.762	tomspunt	admiring?	why_face	yes	yes	correct	task-tomspunt/F_779.jpg
42.72	0.744	tomspunt	admiring?	why_face	yes	yes	correct	task-tomspunt/F_593.jpg
43.77	0.735	tomspunt	admiring?	why_face	no	no	correct	task-tomspunt/F_110.jpg
44.821	0.544	tomspunt	admiring?	why_face	yes	yes	correct	task-tomspunt/F_590.jpg
45.671	0.852	tomspunt	admiring?	why_face	no	no	correct	task-tomspunt/F_692.jpg
46.838	0.685	tomspunt	admiring?	why_face	yes	yes	correct	task-tomspunt/F_759.jpg
47.838	0.701	tomspunt	admiring?	why_face	yes	yes	correct	task-tomspunt/F_648.jpg
48.855	0.643	tomspunt	admiring?	why_face	no	no	correct	task-tomspunt/F_129.jpg
60.626	0.571	tomspunt	smiling?	how_face	yes	yes	correct	task-tomspunt/F_139.jpg
61.51	0.487	tomspunt	smiling?	how_face	no	no	correct	task-tomspunt/F_712.jpg
62.31	0.518	tomspunt	smiling?	how_face	yes	yes	correct	task-tomspunt/F_695.jpg
63.144	0.603	tomspunt	smiling?	how_face	no	no	correct	task-tomspunt/F_758.jpg
64.061	0.435	tomspunt	smiling?	how_face	yes	yes	correct	task-tomspunt/F_083.jpg
64.811	0.603	tomspunt	smiling?	how_face	yes	yes	correct	task-tomspunt/F_759.jpg
65.728	0.569	tomspunt	smiling?	how_face	no	no	correct	task-tomspunt/F_412.jpg
66.612	0.485	tomspunt	smiling?	how_face	yes	yes	correct	task-tomspunt/F_593.jpg
78.15	0.869	tomspunt	lifting?	how_hand	yes	yes	correct	task-tomspunt/H_136.jpg
79.333	0.668	tomspunt	lifting?	how_hand	no	no	correct	task-tomspunt/H_038.jpg
80.317	1.002	tomspunt	lifting?	how_hand	yes	yes	correct	task-tomspunt/H_189.jpg
81.634	0.019	tomspunt	lifting?	how_hand	yes	no	incorrect	task-tomspunt/H_077.jpg
81.968	0.902	tomspunt	lifting?	how_hand	no	yes	incorrect	task-tomspunt/H_443.jpg
83.185	0.751	tomspunt	lifting?	how_hand	yes	no	incorrect	task-tomspunt/H_012.jpg
84.252	0.729	tomspunt	lifting?	how_hand	yes	yes	correct	task-tomspunt/H_362.jpg
85.286	0.835	tomspunt	lifting?	how_hand	no	yes	incorrect	task-tomspunt/H_170.jpg
100.641	0.74	tomspunt	helping?	why_hand	yes	yes	correct	task-tomspunt/H_077.jpg
101.692	0.822	tomspunt	helping?	why_hand	yes	yes	correct	task-tomspunt/H_349.jpg
102.825	0.856	tomspunt	helping?	why_hand	yes	yes	correct	task-tomspunt/H_474.jpg
103.993	1.122	tomspunt	helping?	why_hand	yes	yes	correct	task-tomspunt/H_024.jpg
105.426	0.904	tomspunt	helping?	why_hand	no	no	correct	task-tomspunt/H_012.jpg
106.644	0.901	tomspunt	helping?	why_hand	no	no	correct	task-tomspunt/H_159.jpg
107.861	0.871	tomspunt	helping?	why_hand	yes	yes	correct	task-tomspunt/H_111.jpg
109.044	0.887	tomspunt	helping?	why_hand	no	no	correct	task-tomspunt/H_091.jpg
118.515	1.035	tomspunt	proud?	why_face	yes	yes	correct	task-tomspunt/F_598.jpg
119.865	0.652	tomspunt	proud?	why_face	no	no	correct	task-tomspunt/F_760.jpg
120.832	0.685	tomspunt	proud?	why_face	yes	yes	correct	task-tomspunt/F_582.jpg
121.833	0.681	tomspunt	proud?	why_face	no	no	correct	task-tomspunt/F_412.jpg
122.816	1.248	tomspunt	proud?	why_face	yes	yes	correct	task-tomspunt/F_083.jpg
124.367	0.718	tomspunt	proud?	why_face	no	no	correct	task-tomspunt/F_776.jpg
125.401	0.835	tomspunt	proud?	why_face	yes	yes	correct	task-tomspunt/F_618.jpg
126.551	0.968	tomspunt	proud?	why_face	yes	yes	correct	task-tomspunt/F_695.jpg
136.038	0.693	tomspunt	looking to side?	how_face	yes	yes	correct	task-tomspunt/F_590.jpg
137.038	0.569	tomspunt	looking to side?	how_face	yes	yes	correct	task-tomspunt/F_433.jpg
137.922	0.576	tomspunt	looking to side?	how_face	yes	yes	correct	task-tomspunt/F_716.jpg
138.806	0.585	tomspunt	looking to side?	how_face	yes	no	incorrect	task-tomspunt/F_779.jpg
139.706	0.642	tomspunt	looking to side?	how_face	yes	yes	correct	task-tomspunt/F_760.jpg
140.656	0.675	tomspunt	looking to side?	how_face	yes	no	incorrect	task-tomspunt/F_111.jpg
141.64	0.718	tomspunt	looking to side?	how_face	yes	yes	correct	task-tomspunt/F_110.jpg
142.674	0.641	tomspunt	looking to side?	how_face	no	no	correct	task-tomspunt/F_798.jpg
155.145	0.936	tomspunt	argument?	why_face	yes	yes	correct	task-tomspunt/F_716.jpg
156.395	0.602	tomspunt	argument?	why_face	no	no	correct	task-tomspunt/F_139.jpg
157.312	0.836	tomspunt	argument?	why_face	yes	yes	correct	task-tomspunt/F_712.jpg
158.463	0.785	tomspunt	argument?	why_face	no	no	correct	task-tomspunt/F_433.jpg
159.563	0.585	tomspunt	argument?	why_face	yes	yes	correct	task-tomspunt/F_403.jpg
160.464	0.018	tomspunt	argument?	why_face	yes	no	incorrect	task-tomspunt/F_844.jpg
160.797	0.818	tomspunt	argument?	why_face	yes	yes	correct	task-tomspunt/F_743.jpg
161.931	1.001	tomspunt	argument?	why_face	yes	yes	correct	task-tomspunt/F_758.jpg
172.985	0.635	tomspunt	open mouth?	how_face	yes	yes	correct	task-tomspunt/F_844.jpg
173.935	0.519	tomspunt	open mouth?	how_face	yes	yes	correct	task-tomspunt/F_776.jpg
174.769	0.668	tomspunt	open mouth?	how_face	no	no	correct	task-tomspunt/F_544.jpg
175.753	0.535	tomspunt	open mouth?	how_face	yes	yes	correct	task-tomspunt/F_692.jpg
176.603	0.568	tomspunt	open mouth?	how_face	no	no	correct	task-tomspunt/F_584.jpg
177.487	0.494	tomspunt	open mouth?	how_face	yes	yes	correct	task-tomspunt/F_403.jpg
178.287	0.652	tomspunt	open mouth?	how_face	yes	yes	correct	task-tomspunt/F_086.jpg
179.254	0.601	tomspunt	open mouth?	how_face	no	no	correct	task-tomspunt/F_648.jpg
190.875	0.74	tomspunt	pressing button?	how_hand	yes	yes	correct	task-tomspunt/H_019.jpg
191.925	0.739	tomspunt	pressing button?	how_hand	no	no	correct	task-tomspunt/H_024.jpg
192.976	0.656	tomspunt	pressing button?	how_hand	no	no	correct	task-tomspunt/H_130.jpg
193.943	0.605	tomspunt	pressing button?	how_hand	yes	yes	correct	task-tomspunt/H_502.jpg
194.86	0.671	tomspunt	pressing button?	how_hand	no	no	correct	task-tomspunt/H_261.jpg
195.844	0.604	tomspunt	pressing button?	how_hand	yes	yes	correct	task-tomspunt/H_332.jpg
196.761	0.637	tomspunt	pressing button?	how_hand	yes	yes	correct	task-tomspunt/H_126.jpg
197.711	0.736	tomspunt	pressing button?	how_hand	yes	yes	correct	task-tomspunt/H_483.jpg
208.665	0.601	tomspunt	competing?	why_hand	yes	yes	correct	task-tomspunt/H_261.jpg
209.582	0.568	tomspunt	competing?	why_hand	no	no	correct	task-tomspunt/H_483.jpg
210.466	0.585	tomspunt	competing?	why_hand	yes	yes	correct	task-tomspunt/H_132.jpg
211.366	0.551	tomspunt	competing?	why_hand	no	no	correct	task-tomspunt/H_126.jpg
212.233	0.618	tomspunt	competing?	why_hand	yes	yes	correct	task-tomspunt/H_136.jpg
213.167	1.218	tomspunt	competing?	why_hand	no	no	correct	task-tomspunt/H_502.jpg
214.701	0.635	tomspunt	competing?	why_hand	yes	yes	correct	task-tomspunt/H_003.jpg
215.651	0.635	tomspunt	competing?	why_hand	yes	yes	correct	task-tomspunt/H_170.jpg
226.738	0.926	tomspunt	self-doubt?	why_face	yes	yes	correct	task-tomspunt/F_544.jpg
227.972	0.826	tomspunt	self-doubt?	why_face	no	no	correct	task-tomspunt/F_086.jpg
229.106	0.742	tomspunt	self-doubt?	why_face	yes	yes	correct	task-tomspunt/F_798.jpg
230.156	0.685	tomspunt	self-doubt?	why_face	yes	yes	correct	task-tomspunt/F_111.jpg
231.157	0.574	tomspunt	self-doubt?	why_face	no	no	correct	task-tomspunt/F_774.jpg
232.04	0.691	tomspunt	self-doubt?	why_face	yes	yes	correct	task-tomspunt/F_754.jpg
233.041	1.007	tomspunt	self-doubt?	why_face	yes	no	incorrect	task-tomspunt/F_128.jpg
234.358	0.024	tomspunt	self-doubt?	why_face	yes	yes	correct	task-tomspunt/F_584.jpg
245.795	0.685	tomspunt	looking at camera?	how_face	yes	yes	correct	task-tomspunt/F_128.jpg
246.796	0.585	tomspunt	looking at camera?	how_face	yes	yes	correct	task-tomspunt/F_618.jpg
247.696	0.569	tomspunt	looking at camera?	how_face	yes	yes	correct	task-tomspunt/F_598.jpg
248.58	0.585	tomspunt	looking at camera?	how_face	no	no	correct	task-tomspunt/F_743.jpg
249.48	0.585	tomspunt	looking at camera?	how_face	yes	yes	correct	task-tomspunt/F_774.jpg
250.381	0.735	tomspunt	looking at camera?	how_face	no	no	correct	task-tomspunt/F_582.jpg
251.431	0.785	tomspunt	looking at camera?	how_face	no	no	correct	task-tomspunt/F_754.jpg
252.531	0.685	tomspunt	looking at camera?	how_face	yes	yes	correct	task-tomspunt/F_129.jpg
264.586	0.701	tomspunt	both hands?	how_hand	yes	yes	correct	task-tomspunt/H_167.jpg
265.603	0.551	tomspunt	both hands?	how_hand	no	no	correct	task-tomspunt/H_091.jpg
266.47	0.701	tomspunt	both hands?	how_hand	yes	no	incorrect	task-tomspunt/H_627.jpg
267.487	0.018	tomspunt	both hands?	how_hand	no	yes	incorrect	task-tomspunt/H_027.jpg
267.82	0.811	tomspunt	both hands?	how_hand	yes	yes	correct	task-tomspunt/H_111.jpg
268.937	0.761	tomspunt	both hands?	how_hand	no	no	correct	task-tomspunt/H_159.jpg
270.005	1.077	tomspunt	both hands?	how_hand	no	yes	incorrect	task-tomspunt/H_581.jpg
271.388	0.701	tomspunt	both hands?	how_hand	yes	yes	correct	task-tomspunt/H_349.jpg
283.376	0.938	tomspunt	self-protection?	why_hand	yes	yes	correct	task-tomspunt/H_443.jpg
284.627	0.755	tomspunt	self-protection?	why_hand	no	no	correct	task-tomspunt/H_006.jpg
285.694	0.82	tomspunt	self-protection?	why_hand	yes	yes	correct	task-tomspunt/H_581.jpg
286.827	0.735	tomspunt	self-protection?	why_hand	no	no	correct	task-tomspunt/H_532.jpg
287.878	0.786	tomspunt	self-protection?	why_hand	yes	yes	correct	task-tomspunt/H_027.jpg
288.978	0.636	tomspunt	self-protection?	why_hand	no	yes	incorrect	task-tomspunt/H_038.jpg
289.929	0.936	tomspunt	self-protection?	why_hand	no	no	correct	task-tomspunt/H_332.jpg
291.179	0.602	tomspunt	self-protection?	why_hand	yes	yes	correct	task-tomspunt/H_189.jpg
304.851	0.568	tomspunt	smiling?	how_face	yes	yes	correct	task-tomspunt/F_759.jpg
305.734	0.618	tomspunt	smiling?	how_face	no	no	correct	task-tomspunt/F_412.jpg
306.668	0.502	tomspunt	smiling?	how_face	yes	yes	correct	task-tomspunt/F_593.jpg
307.485	0.602	tomspunt	smiling?	how_face	no	no	correct	task-tomspunt/F_712.jpg
308.402	0.562	tomspunt	smiling?	how_face	yes	yes	correct	task-tomspunt/F_695.jpg
309.269	0.662	tomspunt	smiling?	how_face	yes	yes	correct	task-tomspunt/F_139.jpg
310.236	0.602	tomspunt	smiling?	how_face	yes	yes	correct	task-tomspunt/F_083.jpg
311.153	0.618	tomspunt	smiling?	how_face	no	no	correct	task-tomspunt/F_758.jpg
322.641	0.79	tomspunt	admiring?	why_face	yes	yes	correct	task-tomspunt/F_593.jpg
323.741	0.623	tomspunt	admiring?	why_face	yes	no	incorrect	task-tomspunt/F_129.jpg
324.675	0.54	tomspunt	admiring?	why_face	yes	yes	correct	task-tomspunt/F_759.jpg
325.525	0.889	tomspunt	admiring?	why_face	no	no	correct	task-tomspunt/F_692.jpg
326.726	0.555	tomspunt	admiring?	why_face	yes	yes	correct	task-tomspunt/F_779.jpg
327.593	0.672	tomspunt	admiring?	why_face	yes	yes	correct	task-tomspunt/F_590.jpg
328.576	0.754	tomspunt	admiring?	why_face	yes	yes	correct	task-tomspunt/F_648.jpg
329.643	0.621	tomspunt	admiring?	why_face	no	no	correct	task-tomspunt/F_110.jpg
340.531	0.651	tomspunt	competing?	why_hand	yes	yes	correct	task-tomspunt/H_261.jpg
341.498	0.585	tomspunt	competing?	why_hand	yes	yes	correct	task-tomspunt/H_170.jpg
342.398	0.635	tomspunt	competing?	why_hand	no	no	correct	task-tomspunt/H_483.jpg
343.349	0.585	tomspunt	competing?	why_hand	yes	yes	correct	task-tomspunt/H_132.jpg
344.249	0.701	tomspunt	competing?	why_hand	yes	yes	correct	task-tomspunt/H_136.jpg
345.266	0.018	tomspunt	competing?	why_hand	yes	yes	correct	task-tomspunt/H_003.jpg
345.599	0.885	tomspunt	competing?	why_hand	no	no	correct	task-tomspunt/H_126.jpg
346.8	0.718	tomspunt	competing?	why_hand	no	no	correct	task-tomspunt/H_502.jpg
362.005	0.702	tomspunt	reaching?	how_hand	yes	yes	correct	task-tomspunt/H_003.jpg
363.023	0.642	tomspunt	reaching?	how_hand	yes	yes	correct	task-tomspunt/H_364.jpg
363.973	0.675	tomspunt	reaching?	how_hand	no	no	correct	task-tomspunt/H_532.jpg
364.957	0.658	tomspunt	reaching?	how_hand	yes	yes	correct	task-tomspunt/H_006.jpg
365.924	0.735	tomspunt	reaching?	how_hand	no	no	correct	task-tomspunt/H_438.jpg
366.974	0.518	tomspunt	reaching?	how_hand	yes	yes	correct	task-tomspunt/H_007.jpg
367.808	0.674	tomspunt	reaching?	how_hand	no	yes	incorrect	task-tomspunt/H_474.jpg
368.791	0.569	tomspunt	reaching?	how_hand	yes	no	incorrect	task-tomspunt/H_132.jpg
379.845	0.769	tomspunt	open mouth?	how_face	yes	yes	correct	task-tomspunt/F_403.jpg
380.929	0.019	tomspunt	open mouth?	how_face	yes	no	incorrect	task-tomspunt/F_648.jpg
381.263	0.668	tomspunt	open mouth?	how_face	yes	yes	correct	task-tomspunt/F_776.jpg
382.246	0.601	tomspunt	open mouth?	how_face	no	no	correct	task-tomspunt/F_584.jpg
383.163	0.552	tomspunt	open mouth?	how_face	yes	yes	correct	task-tomspunt/F_844.jpg
384.03	0.618	tomspunt	open mouth?	how_face	yes	yes	correct	task-tomspunt/F_692.jpg
384.964	0.585	tomspunt	open mouth?	how_face	yes	yes	correct	task-tomspunt/F_086.jpg
385.864	0.585	tomspunt	open mouth?	how_face	no	no	correct	task-tomspunt/F_544.jpg
398.536	0.652	tomspunt	argument?	why_face	yes	yes	correct	task-tomspunt/F_403.jpg
399.503	0.635	tomspunt	argument?	why_face	no	no	correct	task-tomspunt/F_844.jpg
400.453	0.819	tomspunt	argument?	why_face	yes	yes	correct	task-tomspunt/F_712.jpg
401.587	0.777	tomspunt	argument?	why_face	yes	yes	correct	task-tomspunt/F_758.jpg
402.671	0.635	tomspunt	argument?	why_face	no	no	correct	task-tomspunt/F_433.jpg
403.621	0.66	tomspunt	argument?	why_face	yes	yes	correct	task-tomspunt/F_716.jpg
404.588	0.693	tomspunt	argument?	why_face	no	no	correct	task-tomspunt/F_139.jpg
405.588	0.493	tomspunt	argument?	why_face	yes	yes	correct	task-tomspunt/F_743.jpg
416.743	1.101	tomspunt	helping?	why_hand	yes	yes	correct	task-tomspunt/H_024.jpg
418.16	0.588	tomspunt	helping?	why_hand	yes	yes	correct	task-tomspunt/H_349.jpg
419.06	0.671	tomspunt	helping?	why_hand	yes	yes	correct	task-tomspunt/H_077.jpg
420.044	0.804	tomspunt	helping?	why_hand	yes	yes	correct	task-tomspunt/H_474.jpg
421.161	0.687	tomspunt	helping?	why_hand	no	no	correct	task-tomspunt/H_091.jpg
422.161	0.703	tomspunt	helping?	why_hand	no	no	correct	task-tomspunt/H_159.jpg
423.178	0.603	tomspunt	helping?	why_hand	yes	yes	correct	task-tomspunt/H_111.jpg
424.095	0.818	tomspunt	helping?	why_hand	no	no	correct	task-tomspunt/H_012.jpg
434.816	0.685	tomspunt	both hands?	how_hand	yes	yes	correct	task-tomspunt/H_111.jpg
435.816	0.868	tomspunt	both hands?	how_hand	yes	yes	correct	task-tomspunt/H_027.jpg
437.0	0.614	tomspunt	both hands?	how_hand	no	no	correct	task-tomspunt/H_091.jpg
437.917	0.551	tomspunt	both hands?	how_hand	yes	yes	correct	task-tomspunt/H_167.jpg
438.784	0.735	tomspunt	both hands?	how_hand	yes	yes	correct	task-tomspunt/H_581.jpg
439.835	0.651	tomspunt	both hands?	how_hand	no	no	correct	task-tomspunt/H_159.jpg
440.802	0.53	tomspunt	both hands?	how_hand	yes	yes	correct	task-tomspunt/H_349.jpg
441.635	0.635	tomspunt	both hands?	how_hand	no	no	correct	task-tomspunt/H_627.jpg
452.339	0.992	tomspunt	healthy?	why_hand	yes	yes	correct	task-tomspunt/H_438.jpg
453.64	0.735	tomspunt	healthy?	why_hand	yes	yes	correct	task-tomspunt/H_364.jpg
454.69	0.585	tomspunt	healthy?	why_hand	yes	yes	correct	task-tomspunt/H_362.jpg
455.59	0.741	tomspunt	healthy?	why_hand	no	no	correct	task-tomspunt/H_019.jpg
456.641	0.519	tomspunt	healthy?	why_hand	yes	yes	correct	task-tomspunt/H_167.jpg
457.474	0.557	tomspunt	healthy?	why_hand	no	no	correct	task-tomspunt/H_007.jpg
458.341	0.657	tomspunt	healthy?	why_hand	yes	yes	correct	task-tomspunt/H_627.jpg
459.308	0.685	tomspunt	healthy?	why_hand	no	no	correct	task-tomspunt/H_130.jpg
471.396	0.535	tomspunt	pressing button?	how_hand	yes	yes	correct	task-tomspunt/H_126.jpg
472.247	0.618	tomspunt	pressing button?	how_hand	no	no	correct	task-tomspunt/H_130.jpg
473.18	0.551	tomspunt	pressing button?	how_hand	yes	yes	correct	task-tomspunt/H_483.jpg
474.047	0.635	tomspunt	pressing button?	how_hand	no	no	correct	task-tomspunt/H_024.jpg
474.998	0.551	tomspunt	pressing button?	how_hand	yes	yes	correct	task-tomspunt/H_332.jpg
475.865	0.652	tomspunt	pressing button?	how_hand	yes	yes	correct	task-tomspunt/H_019.jpg
476.832	0.618	tomspunt	pressing button?	how_hand	no	no	correct	task-tomspunt/H_261.jpg
477.765	0.602	tomspunt	pressing button?	how_hand	yes	yes	correct	task-tomspunt/H_502.jpg
488.919	0.752	tomspunt	looking at camera?	how_face	yes	yes	correct	task-tomspunt/F_618.jpg
489.987	0.612	tomspunt	looking at camera?	how_face	no	no	correct	task-tomspunt/F_754.jpg
490.904	0.594	tomspunt	looking at camera?	how_face	yes	yes	correct	task-tomspunt/F_129.jpg
491.804	0.669	tomspunt	looking at camera?	how_face	yes	yes	correct	task-tomspunt/F_598.jpg
492.788	0.701	tomspunt	looking at camera?	how_face	yes	yes	correct	task-tomspunt/F_128.jpg
493.805	0.793	tomspunt	looking at camera?	how_face	no	no	correct	task-tomspunt/F_582.jpg
494.905	0.585	tomspunt	looking at camera?	how_face	yes	yes	correct	task-tomspunt/F_774.jpg
495.805	0.659	tomspunt	looking at camera?	how_face	no	no	correct	task-tomspunt/F_743.jpg
507.877	0.621	tomspunt	self-doubt?	why_face	yes	yes	correct	task-tomspunt/F_798.jpg
508.81	0.571	tomspunt	self-doubt?	why_face	no	no	correct	task-tomspunt/F_086.jpg
509.694	0.754	tomspunt	self-doubt?	why_face	yes	yes	correct	task-tomspunt/F_544.jpg
510.761	0.903	tomspunt	self-doubt?	why_face	no	yes	incorrect	task-tomspunt/F_754.jpg
511.978	0.936	tomspunt	self-doubt?	why_face	yes	yes	correct	task-tomspunt/F_111.jpg
513.229	0.701	tomspunt	self-doubt?	why_face	yes	yes	correct	task-tomspunt/F_584.jpg
514.246	0.852	tomspunt	self-doubt?	why_face	yes	no	incorrect	task-tomspunt/F_128.jpg
515.413	0.668	tomspunt	self-doubt?	why_face	no	no	correct	task-tomspunt/F_774.jpg
525.4	1.018	tomspunt	self-protection?	why_hand	yes	yes	correct	task-tomspunt/H_581.jpg
526.734	0.685	tomspunt	self-protection?	why_hand	yes	yes	correct	task-tomspunt/H_443.jpg
527.734	0.635	tomspunt	self-protection?	why_hand	no	no	correct	task-tomspunt/H_332.jpg
528.684	0.835	tomspunt	self-protection?	why_hand	yes	yes	correct	task-tomspunt/H_027.jpg
529.835	0.685	tomspunt	self-protection?	why_hand	no	no	correct	task-tomspunt/H_532.jpg
530.835	0.819	tomspunt	self-protection?	why_hand	yes	yes	correct	task-tomspunt/H_189.jpg
531.969	0.785	tomspunt	self-protection?	why_hand	no	no	correct	task-tomspunt/H_006.jpg
533.069	0.628	tomspunt	self-protection?	why_hand	yes	yes	correct	task-tomspunt/H_038.jpg
543.623	0.919	tomspunt	lifting?	how_hand	yes	yes	correct	task-tomspunt/H_443.jpg
544.857	0.024	tomspunt	lifting?	how_hand	yes	no	incorrect	task-tomspunt/H_038.jpg
545.19	0.919	tomspunt	lifting?	how_hand	no	yes	incorrect	task-tomspunt/H_136.jpg
546.424	0.907	tomspunt	lifting?	how_hand	no	no	correct	task-tomspunt/H_012.jpg
547.641	0.539	tomspunt	lifting?	how_hand	yes	yes	correct	task-tomspunt/H_362.jpg
548.492	0.723	tomspunt	lifting?	how_hand	yes	yes	correct	task-tomspunt/H_189.jpg
549.525	0.022	tomspunt	lifting?	how_hand	yes	yes	correct	task-tomspunt/H_170.jpg
549.859	1.139	tomspunt	lifting?	how_hand	yes	no	incorrect	task-tomspunt/H_077.jpg
561.497	0.851	tomspunt	looking to side?	how_face	yes	yes	correct	task-tomspunt/F_716.jpg
562.664	0.685	tomspunt	looking to side?	how_face	no	no	correct	task-tomspunt/F_798.jpg
563.664	0.785	tomspunt	looking to side?	how_face	yes	yes	correct	task-tomspunt/F_760.jpg
564.764	0.718	tomspunt	looking to side?	how_face	yes	yes	correct	task-tomspunt/F_110.jpg
565.798	0.783	tomspunt	looking to side?	how_face	yes	no	incorrect	task-tomspunt/F_779.jpg
566.882	0.685	tomspunt	looking to side?	how_face	yes	yes	correct	task-tomspunt/F_590.jpg
567.882	0.719	tomspunt	looking to side?	how_face	no	no	correct	task-tomspunt/F_111.jpg
568.916	0.765	tomspunt	looking to side?	how_face	yes	yes	correct	task-tomspunt/F_433.jpg
583.972	0.768	tomspunt	proud?	why_face	yes	yes	correct	task-tomspunt/F_083.jpg
585.055	0.659	tomspunt	proud?	why_face	yes	yes	correct	task-tomspunt/F_582.jpg
586.022	0.568	tomspunt	proud?	why_face	yes	yes	correct	task-tomspunt/F_618.jpg
586.906	0.701	tomspunt	proud?	why_face	no	no	correct	task-tomspunt/F_776.jpg
587.923	0.658	tomspunt	proud?	why_face	yes	yes	correct	task-tomspunt/F_598.jpg
588.89	0.025	tomspunt	proud?	why_face	yes	no	incorrect	task-tomspunt/F_760.jpg
589.224	1.158	tomspunt	proud?	why_face	no	no	correct	task-tomspunt/F_412.jpg
590.691	0.685	tomspunt	proud?	why_face	yes	yes	correct	task-tomspunt/F_695.jpg
0.112	2.001	tomspunt	reaching?	block_question_presentation	n/a	n/a	n/a	n/a
0.112	0.3	tomspunt	reaching?	block_question_presentation	n/a	n/a	n/a	n/a
17.535	2.101	tomspunt	healthy?	block_question_presentation	n/a	n/a	n/a	n/a
17.535	0.3	tomspunt	healthy?	block_question_presentation	n/a	n/a	n/a	n/a
36.659	2.084	tomspunt	admiring?	block_question_presentation	n/a	n/a	n/a	n/a
36.659	0.3	tomspunt	admiring?	block_question_presentation	n/a	n/a	n/a	n/a
55.616	2.101	tomspunt	smiling?	block_question_presentation	n/a	n/a	n/a	n/a
55.616	0.3	tomspunt	smiling?	block_question_presentation	n/a	n/a	n/a	n/a
73.139	2.101	tomspunt	lifting?	block_question_presentation	n/a	n/a	n/a	n/a
73.139	0.3	tomspunt	lifting?	block_question_presentation	n/a	n/a	n/a	n/a
95.631	2.101	tomspunt	helping?	block_question_presentation	n/a	n/a	n/a	n/a
95.631	0.3	tomspunt	helping?	block_question_presentation	n/a	n/a	n/a	n/a
113.504	2.101	tomspunt	proud?	block_question_presentation	n/a	n/a	n/a	n/a
113.504	0.3	tomspunt	proud?	block_question_presentation	n/a	n/a	n/a	n/a
131.027	2.101	tomspunt	looking to side?	block_question_presentation	n/a	n/a	n/a	n/a
131.027	0.3	tomspunt	looking to side?	block_question_presentation	n/a	n/a	n/a	n/a
150.134	2.101	tomspunt	argument?	block_question_presentation	n/a	n/a	n/a	n/a
150.134	0.3	tomspunt	argument?	block_question_presentation	n/a	n/a	n/a	n/a
167.974	2.101	tomspunt	open mouth?	block_question_presentation	n/a	n/a	n/a	n/a
167.974	0.3	tomspunt	open mouth?	block_question_presentation	n/a	n/a	n/a	n/a
185.864	2.101	tomspunt	pressing button?	block_question_presentation	n/a	n/a	n/a	n/a
185.864	0.3	tomspunt	pressing button?	block_question_presentation	n/a	n/a	n/a	n/a
203.654	2.101	tomspunt	competing?	block_question_presentation	n/a	n/a	n/a	n/a
203.654	0.3	tomspunt	competing?	block_question_presentation	n/a	n/a	n/a	n/a
221.728	2.101	tomspunt	self-doubt?	block_question_presentation	n/a	n/a	n/a	n/a
221.728	0.3	tomspunt	self-doubt?	block_question_presentation	n/a	n/a	n/a	n/a
240.785	2.101	tomspunt	looking at camera?	block_question_presentation	n/a	n/a	n/a	n/a
240.785	0.3	tomspunt	looking at camera?	block_question_presentation	n/a	n/a	n/a	n/a
259.575	2.101	tomspunt	both hands?	block_question_presentation	n/a	n/a	n/a	n/a
259.575	0.3	tomspunt	both hands?	block_question_presentation	n/a	n/a	n/a	n/a
278.365	2.101	tomspunt	self-protection?	block_question_presentation	n/a	n/a	n/a	n/a
278.365	0.3	tomspunt	self-protection?	block_question_presentation	n/a	n/a	n/a	n/a
299.84	2.101	tomspunt	smiling?	block_question_presentation	n/a	n/a	n/a	n/a
299.84	0.3	tomspunt	smiling?	block_question_presentation	n/a	n/a	n/a	n/a
317.63	2.101	tomspunt	admiring?	block_question_presentation	n/a	n/a	n/a	n/a
317.63	0.3	tomspunt	admiring?	block_question_presentation	n/a	n/a	n/a	n/a
335.52	2.101	tomspunt	competing?	block_question_presentation	n/a	n/a	n/a	n/a
335.52	0.3	tomspunt	competing?	block_question_presentation	n/a	n/a	n/a	n/a
357.011	2.084	tomspunt	reaching?	block_question_presentation	n/a	n/a	n/a	n/a
357.011	0.3	tomspunt	reaching?	block_question_presentation	n/a	n/a	n/a	n/a
374.851	2.084	tomspunt	open mouth?	block_question_presentation	n/a	n/a	n/a	n/a
374.851	0.3	tomspunt	open mouth?	block_question_presentation	n/a	n/a	n/a	n/a
393.525	2.101	tomspunt	argument?	block_question_presentation	n/a	n/a	n/a	n/a
393.525	0.3	tomspunt	argument?	block_question_presentation	n/a	n/a	n/a	n/a
411.732	2.101	tomspunt	helping?	block_question_presentation	n/a	n/a	n/a	n/a
411.732	0.3	tomspunt	helping?	block_question_presentation	n/a	n/a	n/a	n/a
429.805	2.101	tomspunt	both hands?	block_question_presentation	n/a	n/a	n/a	n/a
429.805	0.3	tomspunt	both hands?	block_question_presentation	n/a	n/a	n/a	n/a
447.328	2.101	tomspunt	healthy?	block_question_presentation	n/a	n/a	n/a	n/a
447.328	0.3	tomspunt	healthy?	block_question_presentation	n/a	n/a	n/a	n/a
466.385	2.101	tomspunt	pressing button?	block_question_presentation	n/a	n/a	n/a	n/a
466.385	0.3	tomspunt	pressing button?	block_question_presentation	n/a	n/a	n/a	n/a
483.909	2.101	tomspunt	looking at camera?	block_question_presentation	n/a	n/a	n/a	n/a
483.909	0.3	tomspunt	looking at camera?	block_question_presentation	n/a	n/a	n/a	n/a
502.882	2.084	tomspunt	self-doubt?	block_question_presentation	n/a	n/a	n/a	n/a
502.882	0.3	tomspunt	self-doubt?	block_question_presentation	n/a	n/a	n/a	n/a
520.389	2.101	tomspunt	self-protection?	block_question_presentation	n/a	n/a	n/a	n/a
520.389	0.3	tomspunt	self-protection?	block_question_presentation	n/a	n/a	n/a	n/a
538.612	2.101	tomspunt	lifting?	block_question_presentation	n/a	n/a	n/a	n/a
538.612	0.3	tomspunt	lifting?	block_question_presentation	n/a	n/a	n/a	n/a
556.486	2.101	tomspunt	looking to side?	block_question_presentation	n/a	n/a	n/a	n/a
556.486	0.3	tomspunt	looking to side?	block_question_presentation	n/a	n/a	n/a	n/a
578.961	2.101	tomspunt	proud?	block_question_presentation	n/a	n/a	n/a	n/a
578.961	0.3	tomspunt	proud?	block_question_presentation	n/a	n/a	n/a	n/a
