onset	duration	run_type	trial_type	trial_index	cue	stimulusintensity	rating_value	rating_glmslabel	rating_value_fillna	rating_glmslabel_fillna	rating_mouseonset	rating_mousedur	stim_file_TODO	pain_onset_ttl1	pain_onset_ttl2	pain_onset_ttl3	pain_onset_ttl4	pain_stimulus_delivery_success	cognitive_correct_response	cognitive_participant_response	cognitive_response_accuracy
13.39	0.99	vicarious	cue	1	low_cue	n/a	n/a	n/a	n/a	n/a	n/a	n/a	task-social/cue/runtype-vicarious/scl/l053.png	n/a	n/a	n/a	n/a	n/a	n/a	n/a	n/a
15.24	1.54	vicarious	expectrating	1	low_cue	n/a	3.77	Weak	3.77	Weak	0.5	1.04	task-social/cue/runtype-vicarious/scl/l053.png	n/a	n/a	n/a	n/a	n/a	n/a	n/a	n/a
25.89	5.0	vicarious	stimulus	1	low_cue	low_stim	n/a	n/a	n/a	n/a	n/a	n/a	task-social/stim/runtype-vicarious/gf097t2aiunaff_L.mp4	n/a	n/a	n/a	n/a	n/a	n/a	n/a	n/a
36.9	2.27	vicarious	outcomerating	1	low_cue	low_stim	0.0	n/a	0.0	n/a	0.5	1.04	task-social/outcomerating/task-vicarious_scale.png	n/a	n/a	n/a	n/a	n/a	n/a	n/a	n/a
43.0	0.98	vicarious	cue	2	low_cue	n/a	n/a	n/a	n/a	n/a	n/a	n/a	task-social/cue/runtype-vicarious/scl/l048.png	n/a	n/a	n/a	n/a	n/a	n/a	n/a	n/a
46.0	2.37	vicarious	expectrating	2	low_cue	n/a	5.36	Weak	5.36	Weak	0.35	2.02	task-social/cue/runtype-vicarious/scl/l048.png	n/a	n/a	n/a	n/a	n/a	n/a	n/a	n/a
56.69	5.0	vicarious	stimulus	2	low_cue	med_stim	n/a	n/a	n/a	n/a	n/a	n/a	task-social/stim/runtype-vicarious/hs107t2aaaff_M.mp4	n/a	n/a	n/a	n/a	n/a	n/a	n/a	n/a
70.21	2.12	vicarious	outcomerating	2	low_cue	med_stim	22.88	Moderate	22.88	Moderate	0.35	2.02	task-social/outcomerating/task-vicarious_scale.png	n/a	n/a	n/a	n/a	n/a	n/a	n/a	n/a
78.7	0.99	vicarious	cue	3	high_cue	n/a	n/a	n/a	n/a	n/a	n/a	n/a	task-social/cue/runtype-vicarious/sch/h042.png	n/a	n/a	n/a	n/a	n/a	n/a	n/a	n/a
81.72	2.82	vicarious	expectrating	3	high_cue	n/a	48.42	Strong	48.42	Strong	0.62	2.2	task-social/cue/runtype-vicarious/sch/h042.png	n/a	n/a	n/a	n/a	n/a	n/a	n/a	n/a
88.49	5.0	vicarious	stimulus	3	high_cue	med_stim	n/a	n/a	n/a	n/a	n/a	n/a	task-social/stim/runtype-vicarious/bn080t1aeaff_M.mp4	n/a	n/a	n/a	n/a	n/a	n/a	n/a	n/a
100.01	3.19	vicarious	outcomerating	3	high_cue	med_stim	57.58	Strong	57.58	Strong	0.62	2.2	task-social/outcomerating/task-vicarious_scale.png	n/a	n/a	n/a	n/a	n/a	n/a	n/a	n/a
113.9	0.99	vicarious	cue	4	low_cue	n/a	n/a	n/a	n/a	n/a	n/a	n/a	task-social/cue/runtype-vicarious/scl/l036.png	n/a	n/a	n/a	n/a	n/a	n/a	n/a	n/a
115.8	3.46	vicarious	expectrating	4	low_cue	n/a	16.61	Moderate	16.61	Moderate	0.98	2.47	task-social/cue/runtype-vicarious/scl/l036.png	n/a	n/a	n/a	n/a	n/a	n/a	n/a	n/a
125.19	5.0	vicarious	stimulus	4	low_cue	high_stim	n/a	n/a	n/a	n/a	n/a	n/a	task-social/stim/runtype-vicarious/gf097t2aaunaff_H.mp4	n/a	n/a	n/a	n/a	n/a	n/a	n/a	n/a
137.1	2.92	vicarious	outcomerating	4	low_cue	high_stim	6.01	Weak	6.01	Weak	0.98	2.47	task-social/outcomerating/task-vicarious_scale.png	n/a	n/a	n/a	n/a	n/a	n/a	n/a	n/a
151.69	0.99	vicarious	cue	5	high_cue	n/a	n/a	n/a	n/a	n/a	n/a	n/a	task-social/cue/runtype-vicarious/sch/h048.png	n/a	n/a	n/a	n/a	n/a	n/a	n/a	n/a
153.41	2.38	vicarious	expectrating	5	high_cue	n/a	27.51	Moderate	27.51	Moderate	0.67	1.71	task-social/cue/runtype-vicarious/sch/h048.png	n/a	n/a	n/a	n/a	n/a	n/a	n/a	n/a
161.89	5.0	vicarious	stimulus	5	high_cue	med_stim	n/a	n/a	n/a	n/a	n/a	n/a	task-social/stim/runtype-vicarious/vw121t1aiaff_M.mp4	n/a	n/a	n/a	n/a	n/a	n/a	n/a	n/a
173.1	1.72	vicarious	outcomerating	5	high_cue	med_stim	1.46	Barely detectable	1.46	Barely detectable	0.67	1.71	task-social/outcomerating/task-vicarious_scale.png	n/a	n/a	n/a	n/a	n/a	n/a	n/a	n/a
178.8	0.98	vicarious	cue	6	low_cue	n/a	n/a	n/a	n/a	n/a	n/a	n/a	task-social/cue/runtype-vicarious/scl/l016.png	n/a	n/a	n/a	n/a	n/a	n/a	n/a	n/a
181.9	2.62	vicarious	expectrating	6	low_cue	n/a	1.39	Barely detectable	1.39	Barely detectable	0.48	2.13	task-social/cue/runtype-vicarious/scl/l016.png	n/a	n/a	n/a	n/a	n/a	n/a	n/a	n/a
190.09	5.0	vicarious	stimulus	6	low_cue	high_stim	n/a	n/a	n/a	n/a	n/a	n/a	task-social/stim/runtype-vicarious/hs107t1afaff_H.mp4	n/a	n/a	n/a	n/a	n/a	n/a	n/a	n/a
201.91	2.87	vicarious	outcomerating	6	low_cue	high_stim	18.29	Moderate	18.29	Moderate	0.48	2.13	task-social/outcomerating/task-vicarious_scale.png	n/a	n/a	n/a	n/a	n/a	n/a	n/a	n/a
207.2	0.99	vicarious	cue	7	low_cue	n/a	n/a	n/a	n/a	n/a	n/a	n/a	task-social/cue/runtype-vicarious/scl/l001.png	n/a	n/a	n/a	n/a	n/a	n/a	n/a	n/a
210.2	2.49	vicarious	expectrating	7	low_cue	n/a	7.15	Weak	7.15	Weak	0.42	2.07	task-social/cue/runtype-vicarious/scl/l001.png	n/a	n/a	n/a	n/a	n/a	n/a	n/a	n/a
221.49	5.0	vicarious	stimulus	7	low_cue	low_stim	n/a	n/a	n/a	n/a	n/a	n/a	task-social/stim/runtype-vicarious/hs107t2aeunaff_L.mp4	n/a	n/a	n/a	n/a	n/a	n/a	n/a	n/a
232.71	3.07	vicarious	outcomerating	7	low_cue	low_stim	3.68	Weak	3.68	Weak	0.42	2.07	task-social/outcomerating/task-vicarious_scale.png	n/a	n/a	n/a	n/a	n/a	n/a	n/a	n/a
237.59	0.99	vicarious	cue	8	high_cue	n/a	n/a	n/a	n/a	n/a	n/a	n/a	task-social/cue/runtype-vicarious/sch/h006.png	n/a	n/a	n/a	n/a	n/a	n/a	n/a	n/a
239.29	2.48	vicarious	expectrating	8	high_cue	n/a	58.47	Strong	58.47	Strong	0.65	1.83	task-social/cue/runtype-vicarious/sch/h006.png	n/a	n/a	n/a	n/a	n/a	n/a	n/a	n/a
250.18	5.0	vicarious	stimulus	8	high_cue	high_stim	n/a	n/a	n/a	n/a	n/a	n/a	task-social/stim/runtype-vicarious/kz120t2aaaff_H.mp4	n/a	n/a	n/a	n/a	n/a	n/a	n/a	n/a
260.4	2.12	vicarious	outcomerating	8	high_cue	high_stim	10.58	Moderate	10.58	Moderate	0.65	1.83	task-social/outcomerating/task-vicarious_scale.png	n/a	n/a	n/a	n/a	n/a	n/a	n/a	n/a
268.3	0.98	vicarious	cue	9	high_cue	n/a	n/a	n/a	n/a	n/a	n/a	n/a	task-social/cue/runtype-vicarious/sch/h027.png	n/a	n/a	n/a	n/a	n/a	n/a	n/a	n/a
271.3	2.52	vicarious	expectrating	9	high_cue	n/a	40.93	Strong	40.93	Strong	1.25	1.27	task-social/cue/runtype-vicarious/sch/h027.png	n/a	n/a	n/a	n/a	n/a	n/a	n/a	n/a
279.49	5.0	vicarious	stimulus	9	high_cue	high_stim	n/a	n/a	n/a	n/a	n/a	n/a	task-social/stim/runtype-vicarious/th108t1aeaff_H.mp4	n/a	n/a	n/a	n/a	n/a	n/a	n/a	n/a
292.21	2.24	vicarious	outcomerating	9	high_cue	high_stim	88.39	Very Strong	88.39	Very Strong	1.25	1.27	task-social/outcomerating/task-vicarious_scale.png	n/a	n/a	n/a	n/a	n/a	n/a	n/a	n/a
300.1	0.99	vicarious	cue	10	high_cue	n/a	n/a	n/a	n/a	n/a	n/a	n/a	task-social/cue/runtype-vicarious/sch/h049.png	n/a	n/a	n/a	n/a	n/a	n/a	n/a	n/a
302.9	2.05	vicarious	expectrating	10	high_cue	n/a	50.28	Strong	50.28	Strong	0.32	1.74	task-social/cue/runtype-vicarious/sch/h049.png	n/a	n/a	n/a	n/a	n/a	n/a	n/a	n/a
319.49	5.0	vicarious	stimulus	10	high_cue	low_stim	n/a	n/a	n/a	n/a	n/a	n/a	task-social/stim/runtype-vicarious/th108t1aaunaff_L.mp4	n/a	n/a	n/a	n/a	n/a	n/a	n/a	n/a
328.71	2.17	vicarious	outcomerating	10	high_cue	low_stim	1.4	Barely detectable	1.4	Barely detectable	0.32	1.74	task-social/outcomerating/task-vicarious_scale.png	n/a	n/a	n/a	n/a	n/a	n/a	n/a	n/a
333.59	0.99	vicarious	cue	11	high_cue	n/a	n/a	n/a	n/a	n/a	n/a	n/a	task-social/cue/runtype-vicarious/sch/h018.png	n/a	n/a	n/a	n/a	n/a	n/a	n/a	n/a
336.49	3.29	vicarious	expectrating	11	high_cue	n/a	32.03	Strong	32.03	Strong	1.05	2.24	task-social/cue/runtype-vicarious/sch/h018.png	n/a	n/a	n/a	n/a	n/a	n/a	n/a	n/a
347.39	5.0	vicarious	stimulus	11	high_cue	low_stim	n/a	n/a	n/a	n/a	n/a	n/a	task-social/stim/runtype-vicarious/bn080t1afunaff_L.mp4	n/a	n/a	n/a	n/a	n/a	n/a	n/a	n/a
359.4	2.37	vicarious	outcomerating	11	high_cue	low_stim	3.0	Barely detectable	3.0	Barely detectable	1.05	2.24	task-social/outcomerating/task-vicarious_scale.png	n/a	n/a	n/a	n/a	n/a	n/a	n/a	n/a
366.99	0.99	vicarious	cue	12	low_cue	n/a	n/a	n/a	n/a	n/a	n/a	n/a	task-social/cue/runtype-vicarious/scl/l049.png	n/a	n/a	n/a	n/a	n/a	n/a	n/a	n/a
368.91	2.7	vicarious	expectrating	12	low_cue	n/a	10.12	Moderate	10.12	Moderate	0.8	1.9	task-social/cue/runtype-vicarious/scl/l049.png	n/a	n/a	n/a	n/a	n/a	n/a	n/a	n/a
382.49	5.0	vicarious	stimulus	12	low_cue	med_stim	n/a	n/a	n/a	n/a	n/a	n/a	task-social/stim/runtype-vicarious/th108t2aaunaff_M.mp4	n/a	n/a	n/a	n/a	n/a	n/a	n/a	n/a
394.5	2.5	vicarious	outcomerating	12	low_cue	med_stim	2.3	Barely detectable	2.3	Barely detectable	0.8	1.9	task-social/outcomerating/task-vicarious_scale.png	n/a	n/a	n/a	n/a	n/a	n/a	n/a	n/a
